timestamp,timeIntervalSince1970,attitude.roll,attitude.pitch,attitude.yaw,gravity.x,gravity.y,gravity.z,magneticField.x,magneticField.y,magneticField.z,magneticField.accuracy,rotationRate.x,rotationRate.y,rotationRate.z,userAcceleration.x,userAcceleration.y,userAcceleration.z
"2019-03-26 10:57:01.235 +0000",1553597821.235074,0.025593,0.127433,0.000433,0.025383,-0.127088,-0.991567,0.000000,0.000000,0.000000,-1,-1.102668,-1.331645,0.441262,-0.082787,0.103925,-0.076610
"2019-03-26 10:57:01.257 +0000",1553597821.257382,0.030143,0.106538,0.006307,0.029967,-0.106337,-0.993878,0.000000,0.000000,0.000000,-1,-0.819445,0.969592,-0.007022,-0.177718,0.014433,0.121442
"2019-03-26 10:57:01.280 +0000",1553597821.279680,0.047416,0.096044,-0.004978,0.047179,-0.095896,-0.994273,0.000000,0.000000,0.000000,-1,-0.136781,0.299060,-0.743862,-0.511077,0.034922,0.244013
"2019-03-26 10:57:01.302 +0000",1553597821.301969,0.042024,0.100629,-0.025553,0.041799,-0.100460,-0.994063,0.000000,0.000000,0.000000,-1,0.309656,-0.588410,-0.929317,-0.389013,0.097667,-0.003343
"2019-03-26 10:57:01.324 +0000",1553597821.324276,0.013275,0.100172,-0.040265,0.013208,-0.100004,-0.994899,0.000000,0.000000,0.000000,-1,-0.211094,-1.861241,-0.455520,-0.159983,-0.014909,-0.096547
"2019-03-26 10:57:01.347 +0000",1553597821.346583,-0.044799,0.095255,-0.046623,-0.044581,-0.095111,-0.994468,0.000000,0.000000,0.000000,-1,-0.125330,-2.940138,-0.159341,-0.023519,0.022494,0.178046
"2019-03-26 10:57:01.369 +0000",1553597821.368892,-0.108630,0.088990,-0.037400,-0.107988,-0.088872,-0.990172,0.000000,0.000000,0.000000,-1,-0.428602,-2.234474,0.713808,0.036226,0.056905,0.110609
"2019-03-26 10:57:01.391 +0000",1553597821.391170,-0.131209,0.074675,-0.016326,-0.130468,-0.074606,-0.988641,0.000000,0.000000,0.000000,-1,-0.370059,0.108192,1.142114,-0.030085,-0.029947,-0.038565
"2019-03-26 10:57:01.413 +0000",1553597821.413466,-0.123888,0.080931,0.013257,-0.123167,-0.080843,-0.989088,0.000000,0.000000,0.000000,-1,0.991719,0.070197,1.347724,-0.211565,0.180620,-0.037142
"2019-03-26 10:57:01.436 +0000",1553597821.435769,-0.151284,0.117962,0.056215,-0.149660,-0.117688,-0.981708,0.000000,0.000000,0.000000,-1,2.387974,-1.754691,2.003400,-0.186659,0.193234,-0.072033
"2019-03-26 10:57:01.458 +0000",1553597821.458093,-0.234030,0.164045,0.133604,-0.228787,-0.163311,-0.959680,0.000000,0.000000,0.000000,-1,2.441348,-4.121880,3.494476,-0.073902,0.231365,-0.064429
"2019-03-26 10:57:01.480 +0000",1553597821.480370,-0.347669,0.177551,0.208482,-0.335351,-0.176620,-0.925389,0.000000,0.000000,0.000000,-1,1.306211,-4.242710,2.910768,0.074472,0.267104,0.053899
"2019-03-26 10:57:01.503 +0000",1553597821.502686,-0.448225,0.177477,0.288582,-0.426559,-0.176547,-0.887062,0.000000,0.000000,0.000000,-1,1.327966,-3.937454,3.272786,0.078552,0.487643,-0.232110
"2019-03-26 10:57:01.525 +0000",1553597821.524987,-0.553062,0.166328,0.365063,-0.518046,-0.165563,-0.839177,0.000000,0.000000,0.000000,-1,1.184305,-4.144677,3.144308,-0.046087,0.265553,0.194477
"2019-03-26 10:57:01.547 +0000",1553597821.547294,-0.655308,0.164545,0.437436,-0.601172,-0.163804,-0.782151,0.000000,0.000000,0.000000,-1,2.152902,-3.776336,2.218490,-0.056497,0.302826,0.188066
"2019-03-26 10:57:01.570 +0000",1553597821.569571,-0.746387,0.184556,0.507382,-0.667460,-0.183510,-0.721680,0.000000,0.000000,0.000000,-1,2.827821,-3.404666,1.868129,-0.073339,0.353783,0.113266
"2019-03-26 10:57:01.592 +0000",1553597821.591878,-0.817543,0.184607,0.593686,-0.717072,-0.183560,-0.672393,0.000000,0.000000,0.000000,-1,2.476868,-1.811525,3.203545,-0.553619,0.177197,-0.333054
"2019-03-26 10:57:01.614 +0000",1553597821.614187,-0.869408,0.155381,0.694284,-0.754743,-0.154757,-0.637505,0.000000,0.000000,0.000000,-1,2.344242,-1.606086,4.174249,-0.138552,0.132708,-0.124092
"2019-03-26 10:57:01.637 +0000",1553597821.636500,-0.882101,0.106066,0.775343,-0.767737,-0.105867,-0.631959,0.000000,0.000000,0.000000,-1,0.831834,0.678966,3.871715,0.457282,0.466326,0.024125
"2019-03-26 10:57:01.659 +0000",1553597821.658798,-0.869840,0.065238,0.830519,-0.762600,-0.065192,-0.643577,0.000000,0.000000,0.000000,-1,0.966746,0.924533,2.462819,0.055157,0.132834,0.412528
"2019-03-26 10:57:01.681 +0000",1553597821.681080,-0.840545,0.058020,0.888508,-0.743753,-0.057988,-0.665934,0.000000,0.000000,0.000000,-1,2.169994,1.256175,1.564721,-0.188452,0.070683,0.261241
"2019-03-26 10:57:01.703 +0000",1553597821.703390,-0.846184,0.055689,0.946587,-0.747596,-0.055660,-0.661818,0.000000,0.000000,0.000000,-1,1.243048,-1.006219,1.949125,-0.478631,-0.045384,-0.376360
"2019-03-26 10:57:01.726 +0000",1553597821.725661,-0.906172,0.025918,0.962029,-0.786884,-0.025915,-0.616556,0.000000,0.000000,0.000000,-1,-0.498848,-2.611959,1.084329,-0.094677,-0.211588,0.443567
"2019-03-26 10:57:01.748 +0000",1553597821.748003,-0.929670,0.007082,0.976328,-0.801402,-0.007082,-0.598084,0.000000,0.000000,0.000000,-1,0.199464,-0.650032,1.281827,-0.313878,-0.249190,0.751450
"2019-03-26 10:57:01.770 +0000",1553597821.770281,-0.942545,-0.014031,1.007718,-0.808977,0.014030,-0.587673,0.000000,0.000000,0.000000,-1,0.835094,-0.698098,1.825883,-0.482909,-0.258171,1.339871
"2019-03-26 10:57:01.793 +0000",1553597821.792590,-0.963776,-0.037918,1.055864,-0.820761,0.037909,-0.570012,0.000000,0.000000,0.000000,-1,1.334296,-1.294193,2.227120,-0.011163,0.148889,0.229085
"2019-03-26 10:57:01.815 +0000",1553597821.814896,-1.008407,-0.059096,1.122347,-0.844507,0.059062,-0.532278,0.000000,0.000000,0.000000,-1,2.220306,-2.633399,2.560688,0.071359,0.116109,0.056509
"2019-03-26 10:57:01.837 +0000",1553597821.837202,-1.063370,-0.091038,1.195545,-0.870379,0.090913,-0.483917,0.000000,0.000000,0.000000,-1,1.862909,-2.436850,3.165414,0.076647,0.092468,-0.214462
"2019-03-26 10:57:01.859 +0000",1553597821.859483,-1.087610,-0.153709,1.257372,-0.875079,0.153104,-0.459126,0.000000,0.000000,0.000000,-1,0.494859,-0.668131,4.207309,0.114687,-0.008283,-0.090740
"2019-03-26 10:57:01.882 +0000",1553597821.881797,-1.072718,-0.257314,1.299310,-0.849579,0.254484,-0.462010,0.000000,0.000000,0.000000,-1,-1.080676,0.832010,5.167143,0.176590,-0.107648,0.419606
"2019-03-26 10:57:01.904 +0000",1553597821.904098,-1.042471,-0.368936,1.328335,-0.805539,0.360623,-0.470169,0.000000,0.000000,0.000000,-1,-1.390545,0.652391,4.878318,0.231228,-0.189557,0.429168
"2019-03-26 10:57:01.926 +0000",1553597821.926406,-1.042020,-0.478384,1.362463,-0.766497,0.460345,-0.447844,0.000000,0.000000,0.000000,-1,-1.045386,-1.550227,4.993539,0.105212,-0.044695,0.159194
"2019-03-26 10:57:01.949 +0000",1553597821.948687,-1.084438,-0.578158,1.412133,-0.740358,0.546483,-0.391441,0.000000,0.000000,0.000000,-1,-0.251635,-3.721090,4.681925,-0.336607,-0.071675,-0.374123
"2019-03-26 10:57:01.971 +0000",1553597821.970991,-1.142983,-0.670072,1.461869,-0.713139,0.621043,-0.325175,0.000000,0.000000,0.000000,-1,-0.412663,-3.543347,4.536376,-0.242672,-0.215556,-0.470372
"2019-03-26 10:57:01.993 +0000",1553597821.993300,-1.166397,-0.758261,1.496588,-0.667470,0.687660,-0.285670,0.000000,0.000000,0.000000,-1,-0.552099,-1.467174,3.829386,-0.025401,-0.168876,-0.120733
"2019-03-26 10:57:02.016 +0000",1553597822.015607,-1.143841,-0.839050,1.527116,-0.608189,0.744009,-0.276690,0.000000,0.000000,0.000000,-1,-0.550487,0.882468,3.521965,0.258076,0.004236,0.450747
"2019-03-26 10:57:02.038 +0000",1553597822.037915,-1.094095,-0.903197,1.560990,-0.550081,0.785310,-0.284076,0.000000,0.000000,0.000000,-1,-0.250840,0.826035,2.573580,0.210283,-0.307542,0.594165
"2019-03-26 10:57:02.060 +0000",1553597822.060209,-1.070186,-0.944102,1.582903,-0.514504,0.809971,-0.281483,0.000000,0.000000,0.000000,-1,-0.431905,0.142145,1.657852,0.305123,-0.169132,0.078129
"2019-03-26 10:57:02.083 +0000",1553597822.082501,-1.051417,-0.973135,1.597726,-0.488505,0.826654,-0.279297,0.000000,0.000000,0.000000,-1,-0.089629,0.359817,0.966325,-0.000494,-0.049646,-0.180268
"2019-03-26 10:57:02.105 +0000",1553597822.104816,-1.042110,-0.969727,1.604803,-0.488314,0.824731,-0.285250,0.000000,0.000000,0.000000,-1,0.286343,-0.044589,-0.585562,0.132006,-0.008600,0.223574
"2019-03-26 10:57:02.127 +0000",1553597822.127116,-1.024013,-0.949625,1.608925,-0.497135,0.813197,-0.302600,0.000000,0.000000,0.000000,-1,1.043964,0.576594,-0.998889,0.011005,-0.089397,0.242359
"2019-03-26 10:57:02.149 +0000",1553597822.149393,-1.009795,-0.910616,1.621315,-0.519261,0.789881,-0.326275,0.000000,0.000000,0.000000,-1,0.970098,0.223995,-1.828194,-0.069255,0.054647,0.306881
"2019-03-26 10:57:02.172 +0000",1553597822.171692,-1.030662,-0.845044,1.604286,-0.569214,0.748001,-0.341307,0.000000,0.000000,0.000000,-1,1.244270,-0.710536,-3.031789,0.052673,0.438752,0.262267
"2019-03-26 10:57:02.194 +0000",1553597822.194009,-1.061869,-0.765245,1.582301,-0.629812,0.692714,-0.351404,0.000000,0.000000,0.000000,-1,1.294247,-0.765939,-3.686282,-0.508601,-0.263560,0.100855
"2019-03-26 10:57:02.216 +0000",1553597822.216317,-1.108615,-0.698293,1.549392,-0.685580,0.642911,-0.341534,0.000000,0.000000,0.000000,-1,-0.441873,-1.130786,-2.727330,0.149417,0.694476,-0.338519
"2019-03-26 10:57:02.239 +0000",1553597822.238611,-1.192206,-0.691038,1.504777,-0.716017,0.637337,-0.284817,0.000000,0.000000,0.000000,-1,-1.099912,-3.272471,0.215354,0.067458,0.502342,-0.171360
"2019-03-26 10:57:02.261 +0000",1553597822.260918,-1.218157,-0.730031,1.531318,-0.699300,0.666893,-0.257358,0.000000,0.000000,0.000000,-1,0.586742,-0.684640,2.487021,0.178930,-1.030006,-0.423551
"2019-03-26 10:57:02.283 +0000",1553597822.283211,-1.198419,-0.761930,1.552123,-0.673920,0.690319,-0.263233,0.000000,0.000000,0.000000,-1,0.171336,0.062636,0.769505,0.192642,-0.448040,-0.099743
"2019-03-26 10:57:02.306 +0000",1553597822.305517,-1.191379,-0.768947,1.562070,-0.667534,0.695379,-0.266170,0.000000,0.000000,0.000000,-1,0.060696,0.187782,0.377576,0.493492,1.071375,0.877361
"2019-03-26 10:57:02.328 +0000",1553597822.327821,-1.180593,-0.774099,1.567341,-0.661302,0.699072,-0.271989,0.000000,0.000000,0.000000,-1,0.157005,0.370736,0.279231,-0.017134,0.086862,0.061570
"2019-03-26 10:57:02.350 +0000",1553597822.350103,-1.166110,-0.777860,1.574662,-0.654872,0.701756,-0.280500,0.000000,0.000000,0.000000,-1,0.012250,0.464857,0.139393,0.067439,0.109294,0.209608
"2019-03-26 10:57:02.372 +0000",1553597822.372411,-1.165002,-0.781016,1.555104,-0.652523,0.704001,-0.280350,0.000000,0.000000,0.000000,-1,-1.176581,0.687183,-0.134768,0.165340,0.100061,0.075333
"2019-03-26 10:57:02.395 +0000",1553597822.394713,-1.160570,-0.812503,1.533805,-0.630627,0.726011,-0.274260,0.000000,0.000000,0.000000,-1,-0.828284,0.772706,1.904071,0.130947,-0.014173,0.130720
"2019-03-26 10:57:02.417 +0000",1553597822.417027,-1.126653,-0.868454,1.558070,-0.583332,0.763331,-0.277579,0.000000,0.000000,0.000000,-1,-0.478585,0.778667,2.453727,0.096912,-0.181284,0.072562
"2019-03-26 10:57:02.439 +0000",1553597822.439304,-1.103599,-0.909110,1.575137,-0.548600,0.788957,-0.276738,0.000000,0.000000,0.000000,-1,-0.185516,0.382639,1.487265,0.352143,-0.746446,0.056417
"2019-03-26 10:57:02.462 +0000",1553597822.461611,-1.080974,-0.933324,1.596525,-0.525184,0.803603,-0.280007,0.000000,0.000000,0.000000,-1,0.022860,0.004273,1.281062,0.047691,-0.953597,0.014550
"2019-03-26 10:57:02.484 +0000",1553597822.483922,-1.111679,-0.971024,1.600922,-0.506002,0.825464,-0.250142,0.000000,0.000000,0.000000,-1,-1.070594,-3.213058,1.596958,-0.055613,-0.800852,-0.118205
"2019-03-26 10:57:02.506 +0000",1553597822.506227,-1.143680,-0.979471,1.674760,-0.507382,0.830203,-0.230927,0.000000,0.000000,0.000000,-1,3.479724,-3.654046,0.945335,-0.063633,-0.457949,0.005356
"2019-03-26 10:57:02.529 +0000",1553597822.528536,-1.113780,-0.976657,1.848497,-0.502346,0.828631,-0.247022,0.000000,0.000000,0.000000,-1,4.794705,-6.045499,2.067487,0.128276,-0.445467,-0.273913
"2019-03-26 10:57:02.551 +0000",1553597822.550835,-1.102630,-1.005358,1.981056,-0.478134,0.844354,-0.241774,0.000000,0.000000,0.000000,-1,0.057489,-3.415187,2.966312,0.159561,-0.019509,0.104155
"2019-03-26 10:57:02.573 +0000",1553597822.573121,-1.165970,-1.049459,1.928409,-0.457784,0.867154,-0.196158,0.000000,0.000000,0.000000,-1,-1.827518,1.114749,0.117950,0.223393,0.081988,0.201956
"2019-03-26 10:57:02.595 +0000",1553597822.595430,-1.207058,-1.058788,1.860310,-0.457875,0.871762,-0.174302,0.000000,0.000000,0.000000,-1,-1.614581,-0.285601,-0.335972,-1.131267,3.218066,1.176286
"2019-03-26 10:57:02.618 +0000",1553597822.617724,-1.340869,-1.056075,1.761161,-0.479336,0.870430,-0.112197,0.000000,0.000000,0.000000,-1,-2.317694,-2.802911,-1.002428,-0.021961,-0.341118,0.095412
"2019-03-26 10:57:02.640 +0000",1553597822.640015,-1.511107,-1.042233,1.635852,-0.503395,0.863533,-0.030083,0.000000,0.000000,0.000000,-1,-2.835141,-2.588655,-0.891663,0.192970,-0.079078,-0.259926
"2019-03-26 10:57:02.662 +0000",1553597822.662339,-1.658650,-1.025197,1.522245,-0.516929,0.854817,0.045531,0.000000,0.000000,0.000000,-1,-2.566485,-1.821251,-0.657695,0.200111,0.130855,-0.395934
"2019-03-26 10:57:02.685 +0000",1553597822.684632,-1.764536,-1.003970,1.415084,-0.526911,0.843609,0.103380,0.000000,0.000000,0.000000,-1,-2.596630,-0.224408,-0.628463,0.374766,0.178913,-0.170702
"2019-03-26 10:57:02.707 +0000",1553597822.706938,-1.850287,-0.971703,1.325837,-0.542013,0.825847,0.155559,0.000000,0.000000,0.000000,-1,-2.416365,-0.734815,-0.938953,0.260640,0.131947,-0.217571
"2019-03-26 10:57:02.729 +0000",1553597822.729216,-1.927596,-0.940744,1.250490,-0.552080,0.807996,0.205790,0.000000,0.000000,0.000000,-1,-2.243041,-0.513286,-0.613342,0.021669,0.516878,-0.325083
"2019-03-26 10:57:02.752 +0000",1553597822.751524,-1.996061,-0.908283,1.177561,-0.560313,0.788449,0.253767,0.000000,0.000000,0.000000,-1,-2.423408,-0.620071,-0.531836,0.082850,0.664478,-0.190794
"2019-03-26 10:57:02.774 +0000",1553597822.773817,-2.083682,-0.879069,1.117326,-0.555795,0.770145,0.312998,0.000000,0.000000,0.000000,-1,-1.848454,-2.727696,-0.371460,0.183451,0.665158,-0.147105
"2019-03-26 10:57:02.796 +0000",1553597822.796140,-2.204090,-0.850252,1.073947,-0.531848,0.751447,0.390468,0.000000,0.000000,0.000000,-1,-1.852451,-4.451437,-0.446720,0.194370,0.583682,-0.383067
"2019-03-26 10:57:02.818 +0000",1553597822.818448,-2.316793,-0.815249,1.037949,-0.503577,0.727897,0.465378,0.000000,0.000000,0.000000,-1,-1.632377,-3.233746,-0.513259,0.080359,0.337442,-0.695023
"2019-03-26 10:57:02.841 +0000",1553597822.840724,-2.391844,-0.789232,1.023102,-0.480010,0.709812,0.515516,0.000000,0.000000,0.000000,-1,-0.909486,-2.887624,-0.476324,-0.083955,-0.030461,-0.051374
"2019-03-26 10:57:02.863 +0000",1553597822.863032,-2.461599,-0.773603,1.021186,-0.449834,0.698717,0.556277,0.000000,0.000000,0.000000,-1,-0.395126,-3.173773,-0.409056,-0.083507,-0.103167,-0.279971
"2019-03-26 10:57:02.885 +0000",1553597822.885341,-2.524319,-0.765561,1.029677,-0.417322,0.692941,0.587941,0.000000,0.000000,0.000000,-1,0.058979,-2.995295,-0.431535,0.033258,-0.118234,-0.571920
"2019-03-26 10:57:02.908 +0000",1553597822.907649,-2.579052,-0.765723,1.044300,-0.384473,0.693059,0.609795,0.000000,0.000000,0.000000,-1,0.379175,-2.887885,-0.366602,0.074246,-0.140248,-0.617806
"2019-03-26 10:57:02.930 +0000",1553597822.929951,-2.624156,-0.769897,1.059909,-0.355153,0.696061,0.623991,0.000000,0.000000,0.000000,-1,0.428772,-2.141002,-0.326070,0.321614,-0.170106,-0.698088
"2019-03-26 10:57:02.952 +0000",1553597822.952235,-2.640977,-0.775411,1.077017,-0.342760,0.700009,0.626500,0.000000,0.000000,0.000000,-1,0.523600,-0.749847,-0.375595,0.441332,-0.232190,-0.796712
"2019-03-26 10:57:02.975 +0000",1553597822.974542,-2.626785,-0.780947,1.098905,-0.349703,0.703952,0.618190,0.000000,0.000000,0.000000,-1,0.582596,0.233704,-0.530684,0.544450,-0.274295,-0.583629
"2019-03-26 10:57:02.997 +0000",1553597822.996830,-2.598688,-0.789699,1.126878,-0.363735,0.710141,0.602824,0.000000,0.000000,0.000000,-1,0.813510,0.587964,-0.562262,0.379222,-0.213010,-0.069422
"2019-03-26 10:57:03.019 +0000",1553597823.019158,-2.568714,-0.800453,1.154438,-0.377476,0.717672,0.585200,0.000000,0.000000,0.000000,-1,0.891559,0.262482,-0.439007,0.348088,-0.313573,-0.065715
"2019-03-26 10:57:03.041 +0000",1553597823.041436,-2.560244,-0.810144,1.175024,-0.378582,0.724386,0.576143,0.000000,0.000000,0.000000,-1,0.548105,-0.656998,-0.226303,0.331280,-0.173330,0.102767
"2019-03-26 10:57:03.064 +0000",1553597823.063742,-2.579001,-0.811362,1.186899,-0.367238,0.725226,0.582395,0.000000,0.000000,0.000000,-1,0.071620,-1.528614,-0.346546,-0.096965,0.153436,0.237292
"2019-03-26 10:57:03.086 +0000",1553597823.086043,-2.604269,-0.802137,1.195025,-0.355816,0.718843,0.597210,0.000000,0.000000,0.000000,-1,-0.390140,-1.144173,-0.450640,-0.170429,0.294920,0.296895
"2019-03-26 10:57:03.108 +0000",1553597823.108359,-2.618042,-0.786697,1.199329,-0.353064,0.708025,0.611593,0.000000,0.000000,0.000000,-1,-0.532799,-0.540300,-0.469707,-0.160577,0.434340,0.439081
"2019-03-26 10:57:03.131 +0000",1553597823.130638,-2.615131,-0.770881,1.203263,-0.360426,0.696767,0.620168,0.000000,0.000000,0.000000,-1,-0.579714,0.366427,-0.438079,0.059858,0.420649,0.701655
"2019-03-26 10:57:03.153 +0000",1553597823.152944,-2.606952,-0.751223,1.201348,-0.372394,0.682533,0.628865,0.000000,0.000000,0.000000,-1,-0.931688,0.503209,-0.338960,0.162662,0.106941,0.756206
"2019-03-26 10:57:03.175 +0000",1553597823.175252,-2.599884,-0.734847,1.179791,-0.382541,0.670474,0.635710,0.000000,0.000000,0.000000,-1,-1.095386,0.992887,0.654018,0.050998,-0.065814,0.484758
"2019-03-26 10:57:03.198 +0000",1553597823.197560,-2.620274,-0.720711,1.138670,-0.374184,0.659919,0.651532,0.000000,0.000000,0.000000,-1,-1.169395,-0.349605,0.879276,0.315712,0.629113,-0.235104
"2019-03-26 10:57:03.220 +0000",1553597823.219838,-2.630320,-0.727107,1.117769,-0.365547,0.664711,0.651563,0.000000,0.000000,0.000000,-1,0.698438,1.023253,0.675606,0.415321,1.003166,-0.190976
"2019-03-26 10:57:03.242 +0000",1553597823.242145,-2.588777,-0.756344,1.116424,-0.381921,0.686267,0.619011,0.000000,0.000000,0.000000,-1,0.784553,1.778891,0.749571,0.280175,0.518506,-0.215385
"2019-03-26 10:57:03.264 +0000",1553597823.264453,-2.551587,-0.770614,1.109367,-0.399183,0.696576,0.596184,0.000000,0.000000,0.000000,-1,0.645425,2.683823,0.333402,0.304121,-0.314038,-1.099602
"2019-03-26 10:57:03.287 +0000",1553597823.286731,-2.444139,-0.797016,1.125124,-0.448845,0.715274,0.535650,0.000000,0.000000,0.000000,-1,1.334453,4.616994,0.412059,0.313988,0.193463,-0.072470
"2019-03-26 10:57:03.309 +0000",1553597823.309069,-2.360154,-0.822452,1.141894,-0.479226,0.732816,0.483035,0.000000,0.000000,0.000000,-1,1.252189,2.440346,0.291164,-0.043739,0.445467,-0.919070
"2019-03-26 10:57:03.331 +0000",1553597823.331347,-2.280581,-0.851063,1.179303,-0.499993,0.751982,0.429571,0.000000,0.000000,0.000000,-1,1.975401,2.484391,0.149661,-0.006889,0.599703,-0.669851
"2019-03-26 10:57:03.354 +0000",1553597823.353656,-2.176656,-0.887505,1.233715,-0.518977,0.775499,0.359534,0.000000,0.000000,0.000000,-1,2.286912,2.848782,0.502595,-0.093008,0.362593,-0.106390
"2019-03-26 10:57:03.376 +0000",1553597823.375963,-2.081928,-0.927405,1.284337,-0.523238,0.800066,0.293456,0.000000,0.000000,0.000000,-1,2.035940,2.107235,0.909765,0.020659,-0.157183,-0.169326
"2019-03-26 10:57:03.398 +0000",1553597823.398271,-2.005215,-0.967524,1.337903,-0.514642,0.823484,0.238784,0.000000,0.000000,0.000000,-1,2.098192,1.242582,0.941037,0.161234,-0.273435,-0.236800
"2019-03-26 10:57:03.421 +0000",1553597823.420548,-1.927904,-1.002162,1.409040,-0.504510,0.842637,0.188235,0.000000,0.000000,0.000000,-1,2.239408,0.534076,0.623606,0.115945,-0.259858,-0.268465
"2019-03-26 10:57:03.443 +0000",1553597823.442855,-1.858136,-1.025695,1.488008,-0.497246,0.855075,0.146945,0.000000,0.000000,0.000000,-1,1.932991,-0.122826,0.339019,0.006325,0.054990,-0.210086
"2019-03-26 10:57:03.465 +0000",1553597823.465164,-1.800600,-1.043467,1.544562,-0.489998,0.864154,0.114628,0.000000,0.000000,0.000000,-1,1.239269,0.878700,0.461329,0.044197,-0.015811,-0.060795
"2019-03-26 10:57:03.487 +0000",1553597823.487455,-1.734062,-1.059298,1.585910,-0.482975,0.872012,0.079561,0.000000,0.000000,0.000000,-1,0.981923,1.553273,0.605336,0.149097,-0.045230,0.108534
"2019-03-26 10:57:03.510 +0000",1553597823.509765,-1.652414,-1.077824,1.638238,-0.471671,0.880930,0.038582,0.000000,0.000000,0.000000,-1,1.430192,1.508419,0.727499,0.404593,-0.207499,0.071815
"2019-03-26 10:57:03.532 +0000",1553597823.532056,-1.558900,-1.098193,1.715670,-0.455174,0.890386,-0.005415,0.000000,0.000000,0.000000,-1,1.717862,0.877054,0.937916,0.353322,-0.276464,0.008284
"2019-03-26 10:57:03.554 +0000",1553597823.554367,-1.468520,-1.116771,1.799496,-0.436295,0.898689,-0.044779,0.000000,0.000000,0.000000,-1,1.481660,0.643011,0.882828,0.174728,-0.283806,-0.279424
"2019-03-26 10:57:03.577 +0000",1553597823.576675,-1.390807,-1.129922,1.865522,-0.419837,0.904379,-0.076393,0.000000,0.000000,0.000000,-1,1.034553,0.997577,0.685964,0.119437,-0.177648,-0.088127
"2019-03-26 10:57:03.599 +0000",1553597823.598988,-1.315444,-1.136865,1.917984,-0.406808,0.907320,-0.106198,0.000000,0.000000,0.000000,-1,0.811713,1.345843,0.425986,0.029306,0.020384,0.436123
"2019-03-26 10:57:03.621 +0000",1553597823.621258,-1.252289,-1.143847,1.956212,-0.393269,0.910233,-0.129674,0.000000,0.000000,0.000000,-1,0.473577,1.123696,0.595286,-0.084026,0.157119,0.277013
"2019-03-26 10:57:03.644 +0000",1553597823.643566,-1.206724,-1.152604,1.987165,-0.379490,0.913825,-0.144608,0.000000,0.000000,0.000000,-1,0.444979,0.638367,0.430868,-0.150371,0.307336,0.221558
"2019-03-26 10:57:03.666 +0000",1553597823.665875,-1.168956,-1.148720,2.017477,-0.377023,0.912240,-0.160221,0.000000,0.000000,0.000000,-1,0.596540,0.260899,-0.173581,-0.544348,-0.000100,0.286015
"2019-03-26 10:57:03.688 +0000",1553597823.688182,-1.166948,-1.141228,2.018071,-0.382975,0.909146,-0.163659,0.000000,0.000000,0.000000,-1,-0.254666,0.113527,-0.335149,-0.718405,0.078235,0.241891
"2019-03-26 10:57:03.710 +0000",1553597823.710477,-1.207272,-1.138021,1.970758,-0.391984,0.907805,-0.149123,0.000000,0.000000,0.000000,-1,-0.989754,-0.010947,-0.632089,-0.315795,0.433976,0.562667
"2019-03-26 10:57:03.733 +0000",1553597823.732774,-1.295356,-1.125294,1.889330,-0.414669,0.902394,-0.117195,0.000000,0.000000,0.000000,-1,-1.543747,-1.087568,-1.269091,-0.070363,0.371043,0.251198
"2019-03-26 10:57:03.755 +0000",1553597823.755075,-1.428849,-1.103000,1.771178,-0.446385,0.892564,-0.063792,0.000000,0.000000,0.000000,-1,-2.336187,-1.103552,-1.498788,-0.128139,0.299605,-0.024709
"2019-03-26 10:57:03.777 +0000",1553597823.777384,-1.563093,-1.071510,1.651523,-0.478785,0.877925,-0.003688,0.000000,0.000000,0.000000,-1,-2.313226,-1.596110,-1.629625,-0.199286,0.170095,-0.286519
"2019-03-26 10:57:03.800 +0000",1553597823.799693,-1.684905,-1.036284,1.557744,-0.506108,0.860517,0.058004,0.000000,0.000000,0.000000,-1,-2.076258,-1.631801,-1.341402,0.065557,0.183993,-0.370885
"2019-03-26 10:57:03.822 +0000",1553597823.821969,-1.774784,-1.002415,1.479512,-0.527109,0.842773,0.109040,0.000000,0.000000,0.000000,-1,-2.194036,-0.971604,-1.112850,0.138879,0.649735,-0.466386
"2019-03-26 10:57:03.844 +0000",1553597823.844276,-1.889814,-0.968250,1.390016,-0.538147,0.823895,0.177749,0.000000,0.000000,0.000000,-1,-2.646369,-2.129389,-0.798834,0.056030,0.804523,-0.563095
"2019-03-26 10:57:03.867 +0000",1553597823.866585,-2.000482,-0.933113,1.298410,-0.541218,0.803477,0.248008,0.000000,0.000000,0.000000,-1,-2.952870,-1.162515,-0.453994,0.072117,0.775228,-0.472450
"2019-03-26 10:57:03.889 +0000",1553597823.888891,-2.079057,-0.891860,1.200500,-0.548586,0.778241,0.305605,0.000000,0.000000,0.000000,-1,-3.311587,0.630949,-0.441535,0.520281,0.791812,-0.124849
"2019-03-26 10:57:03.911 +0000",1553597823.911187,-2.116155,-0.845839,1.123960,-0.566915,0.748528,0.343968,0.000000,0.000000,0.000000,-1,-2.536794,0.629717,-0.845609,0.547246,0.773613,-0.083561
"2019-03-26 10:57:03.933 +0000",1553597823.933478,-2.174153,-0.800665,1.087648,-0.573300,0.717819,0.395047,0.000000,0.000000,0.000000,-1,-1.924945,-2.609514,-1.290480,0.457425,0.600509,-0.204694
"2019-03-26 10:57:03.956 +0000",1553597823.955763,-2.281907,-0.745303,1.065952,-0.556774,0.678195,0.479640,0.000000,0.000000,0.000000,-1,-2.087391,-4.920063,-1.673215,0.175808,0.313230,-1.083797
"2019-03-26 10:57:03.978 +0000",1553597823.978092,-2.399889,-0.694919,1.056302,-0.518890,0.640323,0.566339,0.000000,0.000000,0.000000,-1,-1.523042,-4.454082,-1.162285,0.075470,0.272916,-1.028192
"2019-03-26 10:57:04.000 +0000",1553597824.000402,-2.474635,-0.665415,1.056619,-0.486627,0.617386,0.618085,0.000000,0.000000,0.000000,-1,-0.667198,-3.029848,-0.693231,0.026391,0.030899,-0.860639
"2019-03-26 10:57:04.023 +0000",1553597824.022679,-2.538227,-0.658950,1.063155,-0.448620,0.612287,0.651033,0.000000,0.000000,0.000000,-1,0.254307,-2.930380,-0.202465,0.186245,-0.273100,-0.548280
"2019-03-26 10:57:04.045 +0000",1553597824.044986,-2.586528,-0.670513,1.073856,-0.412905,0.621388,0.665873,0.000000,0.000000,0.000000,-1,0.829099,-2.256204,0.065956,0.397875,-0.492146,-0.887934
"2019-03-26 10:57:04.067 +0000",1553597824.067295,-2.630056,-0.692029,1.082485,-0.376905,0.638101,0.671394,0.000000,0.000000,0.000000,-1,1.052165,-2.070716,0.291424,0.479887,-0.485025,-0.744407
"2019-03-26 10:57:04.090 +0000",1553597824.089602,-2.664093,-0.720351,1.092134,-0.345393,0.659648,0.667508,0.000000,0.000000,0.000000,-1,1.465160,-1.648573,0.297778,0.535564,-0.434474,-0.763685
"2019-03-26 10:57:04.112 +0000",1553597824.111881,-2.673919,-0.756883,1.112855,-0.327731,0.686659,0.648916,0.000000,0.000000,0.000000,-1,1.857151,-0.656902,-0.020992,0.418673,-0.342436,-0.392767
"2019-03-26 10:57:04.134 +0000",1553597824.134188,-2.658348,-0.783253,1.137813,-0.329265,0.705589,0.627479,0.000000,0.000000,0.000000,-1,1.026603,0.249850,-0.215477,0.375804,-0.339759,-0.267432
"2019-03-26 10:57:04.156 +0000",1553597824.156495,-2.643071,-0.792964,1.147558,-0.335520,0.712437,0.616328,0.000000,0.000000,0.000000,-1,0.339143,0.248214,0.073289,0.194834,-0.154758,0.100621
"2019-03-26 10:57:04.179 +0000",1553597824.178796,-2.659561,-0.797182,1.141252,-0.323915,0.715390,0.619109,0.000000,0.000000,0.000000,-1,-0.132348,-1.063573,0.329117,0.045351,0.378223,0.662507
"2019-03-26 10:57:04.201 +0000",1553597824.201112,-2.697392,-0.789445,1.132274,-0.302637,0.709963,0.635896,0.000000,0.000000,0.000000,-1,-0.553438,-1.349757,-0.147371,0.052912,0.450880,0.414885
"2019-03-26 10:57:04.223 +0000",1553597824.223390,-2.704177,-0.770904,1.139402,-0.303840,0.696784,0.649749,0.000000,0.000000,0.000000,-1,-0.698104,-0.035988,-0.778125,0.020103,0.589105,0.272340
"2019-03-26 10:57:04.246 +0000",1553597824.245697,-2.684275,-0.746564,1.155028,-0.324105,0.679121,0.658598,0.000000,0.000000,0.000000,-1,-0.887746,0.418570,-0.912498,-0.197304,0.497134,0.426424
"2019-03-26 10:57:04.268 +0000",1553597824.268003,-2.672082,-0.712067,1.156742,-0.342511,0.653400,0.675096,0.000000,0.000000,0.000000,-1,-1.522124,1.100897,-0.624765,-0.046863,0.152325,0.512785
"2019-03-26 10:57:04.290 +0000",1553597824.290313,-2.651508,-0.684594,1.134545,-0.364640,0.632359,0.683491,0.000000,0.000000,0.000000,-1,-1.147124,1.103301,0.593586,0.065446,0.228923,0.521984
"2019-03-26 10:57:04.313 +0000",1553597824.312592,-2.654794,-0.684709,1.112449,-0.362358,0.632448,0.684621,0.000000,0.000000,0.000000,-1,0.159230,-0.150731,0.638772,0.140206,0.930388,0.292964
"2019-03-26 10:57:04.335 +0000",1553597824.334897,-2.651708,-0.720677,1.109560,-0.353533,0.659894,0.662989,0.000000,0.000000,0.000000,-1,1.659948,0.615015,0.945234,0.256655,0.496722,-1.079951
"2019-03-26 10:57:04.357 +0000",1553597824.357206,-2.631560,-0.747541,1.104484,-0.358032,0.679837,0.640027,0.000000,0.000000,0.000000,-1,0.783250,1.627762,0.489274,0.457764,-0.039014,-1.247937
"2019-03-26 10:57:04.380 +0000",1553597824.379513,-2.534428,-0.778093,1.113690,-0.406370,0.701922,0.584952,0.000000,0.000000,0.000000,-1,1.512542,5.333758,0.608035,0.729093,-0.525226,-0.916876
"2019-03-26 10:57:04.402 +0000",1553597824.401812,-2.426219,-0.805540,1.119036,-0.454356,0.721205,0.522900,0.000000,0.000000,0.000000,-1,0.936265,3.535733,0.472403,-0.047994,0.337984,-0.974224
"2019-03-26 10:57:04.424 +0000",1553597824.424099,-2.360479,-0.834831,1.149285,-0.472645,0.741183,0.476712,0.000000,0.000000,0.000000,-1,1.992276,1.527352,0.158218,0.035206,0.447934,-0.932706
"2019-03-26 10:57:04.446 +0000",1553597824.446407,-2.279421,-0.870494,1.197907,-0.489303,0.764648,0.419401,0.000000,0.000000,0.000000,-1,2.078613,2.337292,0.277601,0.006927,0.855409,-0.124036
"2019-03-26 10:57:04.469 +0000",1553597824.468715,-2.184753,-0.906123,1.235417,-0.504158,0.787118,0.355343,0.000000,0.000000,0.000000,-1,1.701357,3.122895,0.834912,0.015725,0.261313,-0.115521
"2019-03-26 10:57:04.491 +0000",1553597824.491022,-2.101354,-0.947659,1.268463,-0.503357,0.812052,0.295303,0.000000,0.000000,0.000000,-1,1.799669,2.169403,1.111374,0.166138,-0.207041,-0.075424
"2019-03-26 10:57:04.513 +0000",1553597824.513300,-2.032329,-0.985938,1.317906,-0.494318,0.833790,0.245854,0.000000,0.000000,0.000000,-1,1.975558,0.693369,0.813176,0.215478,-0.365742,-0.328220
"2019-03-26 10:57:04.536 +0000",1553597824.535598,-1.976924,-1.018288,1.378171,-0.482133,0.851211,0.207334,0.000000,0.000000,0.000000,-1,1.895156,0.010966,0.589699,0.125200,-0.051238,-0.337232
"2019-03-26 10:57:04.558 +0000",1553597824.557921,-1.922975,-1.041050,1.439762,-0.474300,0.862935,0.174305,0.000000,0.000000,0.000000,-1,1.493318,0.266079,0.437157,-0.022709,-0.024556,-0.052357
"2019-03-26 10:57:04.580 +0000",1553597824.580225,-1.871509,-1.061621,1.479160,-0.465583,0.873147,0.144385,0.000000,0.000000,0.000000,-1,0.926479,0.921165,0.665561,-0.024331,-0.027978,0.014291
"2019-03-26 10:57:04.603 +0000",1553597824.602501,-1.816559,-1.083038,1.510337,-0.454565,0.883386,0.114020,0.000000,0.000000,0.000000,-1,1.039970,1.400000,0.732070,0.240469,-0.163339,0.244607
"2019-03-26 10:57:04.625 +0000",1553597824.624821,-1.724213,-1.104350,1.580778,-0.444433,0.893172,0.068723,0.000000,0.000000,0.000000,-1,1.926348,1.172523,0.661277,0.183767,-0.285781,-0.114637
"2019-03-26 10:57:04.647 +0000",1553597824.647116,-1.623787,-1.125817,1.675986,-0.429835,0.902620,0.022799,0.000000,0.000000,0.000000,-1,1.867546,0.387083,0.830735,0.049082,-0.249284,-0.275652
"2019-03-26 10:57:04.669 +0000",1553597824.669424,-1.542328,-1.145948,1.758630,-0.412016,0.911101,-0.011733,0.000000,0.000000,0.000000,-1,1.396139,0.379723,0.887663,0.062941,-0.201644,-0.259630
"2019-03-26 10:57:04.692 +0000",1553597824.691733,-1.466240,-1.162657,1.821355,-0.394735,0.917861,-0.041423,0.000000,0.000000,0.000000,-1,0.886934,1.141765,0.773994,0.190923,-0.217635,0.271831
"2019-03-26 10:57:04.714 +0000",1553597824.714010,-1.394024,-1.176739,1.865347,-0.377955,0.923359,-0.067517,0.000000,0.000000,0.000000,-1,0.630966,1.445231,0.702961,-0.008001,0.132626,0.297848
"2019-03-26 10:57:04.736 +0000",1553597824.736306,-1.323989,-1.185721,1.915050,-0.364246,0.926770,-0.091770,0.000000,0.000000,0.000000,-1,0.801355,0.753026,0.462311,-0.078442,0.205829,0.271793
"2019-03-26 10:57:04.759 +0000",1553597824.758627,-1.274123,-1.185970,1.962250,-0.358999,0.926863,-0.109744,0.000000,0.000000,0.000000,-1,0.687704,0.111804,0.075943,-0.181788,0.152375,0.099765
"2019-03-26 10:57:04.781 +0000",1553597824.780920,-1.253258,-1.180353,1.980620,-0.361571,0.924740,-0.118834,0.000000,0.000000,0.000000,-1,0.127057,0.198937,-0.235205,-0.562486,0.250858,0.355925
"2019-03-26 10:57:04.803 +0000",1553597824.803237,-1.279294,-1.177017,1.945029,-0.367495,0.923465,-0.110267,0.000000,0.000000,0.000000,-1,-0.932206,0.291358,-0.396509,-0.475736,0.287640,0.437080
"2019-03-26 10:57:04.826 +0000",1553597824.825513,-1.365199,-1.171257,1.853000,-0.380801,0.921240,-0.079414,0.000000,0.000000,0.000000,-1,-1.779864,-0.374965,-0.831350,-0.179395,0.477060,0.569389
"2019-03-26 10:57:04.848 +0000",1553597824.847807,-1.505919,-1.150589,1.731870,-0.407092,0.913004,-0.026448,0.000000,0.000000,0.000000,-1,-2.127163,-1.950876,-1.451426,-0.070920,0.271047,0.041005
"2019-03-26 10:57:04.870 +0000",1553597824.870121,-1.680223,-1.113388,1.599570,-0.438983,0.897200,0.048229,0.000000,0.000000,0.000000,-1,-2.902069,-2.552051,-1.589084,-0.218213,0.109819,-0.329754
"2019-03-26 10:57:04.892 +0000",1553597824.892428,-1.838747,-1.068433,1.476700,-0.464316,0.876447,0.127479,0.000000,0.000000,0.000000,-1,-2.539841,-1.642479,-1.502721,-0.328745,-0.088407,-0.638008
"2019-03-26 10:57:04.915 +0000",1553597824.914706,-1.922786,-1.026821,1.397480,-0.485811,0.855658,0.178431,0.000000,0.000000,0.000000,-1,-2.390557,-0.658998,-1.048666,0.173357,0.331323,-0.294306
"2019-03-26 10:57:04.937 +0000",1553597824.937014,-2.033511,-0.984471,1.307878,-0.495121,0.832980,0.246983,0.000000,0.000000,0.000000,-1,-2.832009,-1.969605,-0.808962,0.268268,0.855756,-0.753315
"2019-03-26 10:57:04.959 +0000",1553597824.959317,-2.143476,-0.938909,1.217081,-0.496429,0.806914,0.320075,0.000000,0.000000,0.000000,-1,-3.184914,-1.117073,-0.443278,0.116790,0.862458,-0.260459
"2019-03-26 10:57:04.982 +0000",1553597824.981630,-2.224887,-0.894400,1.122607,-0.496784,0.779834,0.380874,0.000000,0.000000,0.000000,-1,-3.240148,0.109678,-0.044812,0.138981,0.894681,-0.222564
"2019-03-26 10:57:05.004 +0000",1553597825.003908,-2.286505,-0.848841,1.044218,-0.498699,0.750515,0.433621,0.000000,0.000000,0.000000,-1,-2.895041,-0.397706,-0.227482,0.363155,0.849964,-0.216717
"2019-03-26 10:57:05.026 +0000",1553597825.026216,-2.359375,-0.803422,0.992314,-0.489343,0.719736,0.492466,0.000000,0.000000,0.000000,-1,-2.338418,-2.352356,-0.589498,0.303201,0.729056,-0.283711
"2019-03-26 10:57:05.049 +0000",1553597825.048521,-2.455367,-0.755750,0.971649,-0.461123,0.685835,0.563025,0.000000,0.000000,0.000000,-1,-1.867394,-4.336834,-1.020757,0.221011,0.514132,-0.586691
"2019-03-26 10:57:05.071 +0000",1553597825.070823,-2.563433,-0.720289,0.960940,-0.410745,0.659602,0.629455,0.000000,0.000000,0.000000,-1,-1.389611,-4.287657,-0.446617,-0.217322,0.100545,-0.925369
"2019-03-26 10:57:05.093 +0000",1553597825.093109,-2.638170,-0.695383,0.954150,-0.370411,0.640679,0.672552,0.000000,0.000000,0.000000,-1,-0.911567,-2.665843,-0.377692,-0.112911,0.009635,-0.900411
"2019-03-26 10:57:05.115 +0000",1553597825.115416,-2.696067,-0.679305,0.954591,-0.335270,0.628252,0.702064,0.000000,0.000000,0.000000,-1,-0.410791,-2.638309,-0.310732,0.142826,-0.287386,-0.559882
"2019-03-26 10:57:05.138 +0000",1553597825.137724,-2.755953,-0.681884,0.962236,-0.292039,0.630257,0.719367,0.000000,0.000000,0.000000,-1,0.589348,-3.030878,-0.140587,0.271302,-0.404763,-0.635062
"2019-03-26 10:57:05.160 +0000",1553597825.160032,-2.800976,-0.704332,0.976518,-0.254575,0.647525,0.718264,0.000000,0.000000,0.000000,-1,1.378017,-1.890041,-0.101995,0.467374,-0.542911,-1.051607
"2019-03-26 10:57:05.182 +0000",1553597825.182339,-2.809469,-0.737315,0.998467,-0.241368,0.672303,0.699822,0.000000,0.000000,0.000000,-1,1.800743,-0.643283,-0.308886,0.486150,-0.584900,-1.011391
"2019-03-26 10:57:05.205 +0000",1553597825.204617,-2.780724,-0.775903,1.033651,-0.252030,0.700361,0.667814,0.000000,0.000000,0.000000,-1,2.075151,0.835472,-0.629549,0.564133,-0.649870,-0.770292
"2019-03-26 10:57:05.227 +0000",1553597825.226926,-2.714494,-0.806426,1.073140,-0.286683,0.721818,0.629914,0.000000,0.000000,0.000000,-1,1.421661,1.979709,-0.508489,0.367920,-0.398469,-0.297165
"2019-03-26 10:57:05.249 +0000",1553597825.249232,-2.680014,-0.819916,1.086700,-0.303863,0.731089,0.610882,0.000000,0.000000,0.000000,-1,0.371716,0.167097,0.090206,-0.063035,-0.217661,0.290378
"2019-03-26 10:57:05.272 +0000",1553597825.271542,-2.710337,-0.820136,1.088135,-0.285135,0.731239,0.619668,0.000000,0.000000,0.000000,-1,-0.207584,-2.102493,-0.140968,-0.171973,0.149285,0.687263
"2019-03-26 10:57:05.294 +0000",1553597825.293828,-2.742273,-0.809814,1.094046,-0.268124,0.724159,0.635377,0.000000,0.000000,0.000000,-1,-0.379984,-0.969623,-0.467436,-0.010609,0.762428,0.447601
"2019-03-26 10:57:05.316 +0000",1553597825.316125,-2.736198,-0.793653,1.104323,-0.276558,0.712920,0.644407,0.000000,0.000000,0.000000,-1,-0.655866,0.242477,-0.653230,-0.039726,0.624238,0.513170
"2019-03-26 10:57:05.338 +0000",1553597825.338433,-2.726304,-0.770068,1.115490,-0.289625,0.696184,0.656845,0.000000,0.000000,0.000000,-1,-0.961314,-0.138132,-0.746744,-0.045199,0.352919,0.429459
"2019-03-26 10:57:05.361 +0000",1553597825.360732,-2.745909,-0.735344,1.113519,-0.285841,0.670842,0.684299,0.000000,0.000000,0.000000,-1,-1.762448,-0.916281,-0.519364,0.001555,0.241160,0.324124
"2019-03-26 10:57:05.383 +0000",1553597825.383050,-2.728445,-0.705179,1.105556,-0.305736,0.648170,0.697424,0.000000,0.000000,0.000000,-1,-0.932536,1.753627,0.148273,0.046764,0.413048,0.660425
"2019-03-26 10:57:05.405 +0000",1553597825.405327,-2.712221,-0.694708,1.088204,-0.319818,0.640161,0.698506,0.000000,0.000000,0.000000,-1,-0.501233,0.382895,0.331820,-0.081701,0.810385,0.422084
"2019-03-26 10:57:05.428 +0000",1553597825.427635,-2.727005,-0.714846,1.078622,-0.304201,0.655501,0.691216,0.000000,0.000000,0.000000,-1,1.362270,-0.135621,0.922756,0.211153,1.189454,-0.899026
"2019-03-26 10:57:05.450 +0000",1553597825.449944,-2.731285,-0.741786,1.062589,-0.294088,0.675606,0.676069,0.000000,0.000000,0.000000,-1,0.603644,0.707637,0.842995,0.527898,0.095894,-0.989088
"2019-03-26 10:57:05.472 +0000",1553597825.472250,-2.650744,-0.772289,1.064765,-0.337653,0.697777,0.631742,0.000000,0.000000,0.000000,-1,1.693930,5.276593,0.445629,0.900519,-0.446419,-1.081373
"2019-03-26 10:57:05.495 +0000",1553597825.494528,-2.524124,-0.806147,1.078936,-0.400814,0.721625,0.564451,0.000000,0.000000,0.000000,-1,1.362786,4.380297,0.289692,0.489513,-0.013618,0.193788
"2019-03-26 10:57:05.517 +0000",1553597825.516838,-2.436783,-0.833217,1.111520,-0.435705,0.740099,0.512265,0.000000,0.000000,0.000000,-1,1.829821,2.233328,-0.169899,-0.117930,0.836623,-0.643995
"2019-03-26 10:57:05.539 +0000",1553597825.539145,-2.348424,-0.867153,1.167510,-0.461039,0.762490,0.453930,0.000000,0.000000,0.000000,-1,2.358109,2.093602,-0.095240,-0.152639,0.914680,-0.293483
"2019-03-26 10:57:05.561 +0000",1553597825.561453,-2.265150,-0.903120,1.218670,-0.475806,0.785263,0.396196,0.000000,0.000000,0.000000,-1,2.001115,1.860300,0.373121,-0.217995,0.252915,-0.131990
"2019-03-26 10:57:05.584 +0000",1553597825.583734,-2.194218,-0.941863,1.257401,-0.477618,0.808655,0.343449,0.000000,0.000000,0.000000,-1,1.855227,1.706123,0.920265,0.149005,-0.238618,-0.251942
"2019-03-26 10:57:05.606 +0000",1553597825.606060,-2.131052,-0.984003,1.298871,-0.469044,0.832721,0.294234,0.000000,0.000000,0.000000,-1,1.958899,0.960761,0.938091,0.338871,-0.368457,-0.312377
"2019-03-26 10:57:05.628 +0000",1553597825.628345,-2.085514,-1.020394,1.345194,-0.455262,0.852314,0.257482,0.000000,0.000000,0.000000,-1,1.686760,-0.076839,0.818168,0.359193,-0.359440,-0.291417
"2019-03-26 10:57:05.651 +0000",1553597825.650654,-2.049991,-1.049582,1.392838,-0.441850,0.867215,0.229579,0.000000,0.000000,0.000000,-1,1.499654,-0.250414,0.488405,0.279664,-0.106671,-0.230770
"2019-03-26 10:57:05.673 +0000",1553597825.672960,-2.005404,-1.070865,1.436237,-0.434801,0.877616,0.201839,0.000000,0.000000,0.000000,-1,1.159080,0.718752,0.474694,0.046816,-0.088706,-0.121135
"2019-03-26 10:57:05.695 +0000",1553597825.695239,-1.941766,-1.093279,1.477630,-0.428314,0.888139,0.166605,0.000000,0.000000,0.000000,-1,1.294572,1.421981,0.669477,0.049362,-0.194978,0.041922
"2019-03-26 10:57:05.718 +0000",1553597825.717546,-1.853787,-1.120503,1.542284,-0.417918,0.900319,0.121529,0.000000,0.000000,0.000000,-1,1.807782,1.156830,0.758888,0.291820,-0.232778,0.059685
"2019-03-26 10:57:05.740 +0000",1553597825.739839,-1.747383,-1.148770,1.637514,-0.403240,0.912261,0.071956,0.000000,0.000000,0.000000,-1,2.131686,0.828997,0.883510,0.169872,-0.301452,-0.334453
"2019-03-26 10:57:05.762 +0000",1553597825.762162,-1.632092,-1.175672,1.744198,-0.384200,0.922949,0.023579,0.000000,0.000000,0.000000,-1,1.917582,0.719862,0.997276,0.055510,-0.278570,-0.254155
"2019-03-26 10:57:05.784 +0000",1553597825.784465,-1.521547,-1.197629,1.845077,-0.364125,0.931177,-0.017947,0.000000,0.000000,0.000000,-1,1.586282,0.852349,0.937653,-0.007274,-0.178721,0.064273
"2019-03-26 10:57:05.807 +0000",1553597825.806748,-1.415524,-1.212863,1.933154,-0.346124,0.936623,-0.054180,0.000000,0.000000,0.000000,-1,1.144194,1.184789,0.744710,-0.017294,-0.040718,0.262355
"2019-03-26 10:57:05.829 +0000",1553597825.829055,-1.325860,-1.221704,1.999177,-0.331836,0.939683,-0.082944,0.000000,0.000000,0.000000,-1,0.854615,1.299204,0.460727,-0.027615,0.231108,0.250028
"2019-03-26 10:57:05.851 +0000",1553597825.851363,-1.250349,-1.220539,2.056060,-0.325672,0.939285,-0.108086,0.000000,0.000000,0.000000,-1,0.852453,0.625927,0.043678,-0.131390,0.306474,0.341286
"2019-03-26 10:57:05.874 +0000",1553597825.873672,-1.214876,-1.213461,2.089319,-0.327857,0.936832,-0.121881,0.000000,0.000000,0.000000,-1,0.291741,0.129052,-0.185373,-0.405206,0.276119,0.232538
"2019-03-26 10:57:05.896 +0000",1553597825.895955,-1.237992,-1.211362,2.057084,-0.332444,0.936096,-0.114913,0.000000,0.000000,0.000000,-1,-0.870261,0.355541,-0.340468,-0.469237,0.334625,0.309447
"2019-03-26 10:57:05.918 +0000",1553597825.918256,-1.330103,-1.205750,1.954086,-0.346702,0.934107,-0.085098,0.000000,0.000000,0.000000,-1,-1.836463,-0.010240,-0.981476,-0.143304,0.569265,0.643967
"2019-03-26 10:57:05.941 +0000",1553597825.940564,-1.487302,-1.181905,1.806117,-0.377842,0.925330,-0.031621,0.000000,0.000000,0.000000,-1,-2.433578,-1.528667,-1.660475,-0.145717,0.677331,0.339818
"2019-03-26 10:57:05.963 +0000",1553597825.962858,-1.679100,-1.139790,1.651412,-0.415337,0.908546,0.045159,0.000000,0.000000,0.000000,-1,-3.019611,-2.456049,-1.874550,-0.361350,0.080331,-0.657967
"2019-03-26 10:57:05.985 +0000",1553597825.985150,-1.845872,-1.093129,1.510348,-0.442426,0.888070,0.124866,0.000000,0.000000,0.000000,-1,-2.954952,-1.046610,-1.327550,-0.192523,0.178596,-0.690128
"2019-03-26 10:57:06.007 +0000",1553597826.007477,-1.924489,-1.052592,1.416480,-0.464661,0.868710,0.171561,0.000000,0.000000,0.000000,-1,-2.430608,0.366086,-0.942892,0.745377,0.496448,-0.278602
"2019-03-26 10:57:06.030 +0000",1553597826.029765,-2.026211,-1.014501,1.316484,-0.474225,0.849217,0.232252,0.000000,0.000000,0.000000,-1,-2.887851,-1.280884,-0.520331,0.744885,0.563747,-0.543501
"2019-03-26 10:57:06.052 +0000",1553597826.052074,-2.135714,-0.974054,1.216816,-0.474642,0.827171,0.300838,0.000000,0.000000,0.000000,-1,-3.124863,-0.845777,-0.271224,0.340807,0.724007,-0.427593
"2019-03-26 10:57:06.074 +0000",1553597826.074351,-2.221151,-0.933682,1.111189,-0.473446,0.803815,0.360180,0.000000,0.000000,0.000000,-1,-3.371372,0.472473,0.269009,0.166714,0.825625,-0.176068
"2019-03-26 10:57:06.097 +0000",1553597826.096658,-2.279678,-0.889501,1.023645,-0.478075,0.776758,0.409990,0.000000,0.000000,0.000000,-1,-2.825699,0.036395,-0.265281,0.189974,0.871268,-0.179811
"2019-03-26 10:57:06.119 +0000",1553597826.118965,-2.347159,-0.841933,0.970519,-0.475184,0.745932,0.466674,0.000000,0.000000,0.000000,-1,-2.444609,-1.956368,-0.602223,0.131480,0.556863,-0.428329
"2019-03-26 10:57:06.141 +0000",1553597826.141274,-2.445654,-0.797773,0.938040,-0.447686,0.715803,0.535914,0.000000,0.000000,0.000000,-1,-2.018225,-4.134656,-0.566577,0.182931,0.442538,-0.804194
"2019-03-26 10:57:06.164 +0000",1553597826.163583,-2.565011,-0.757318,0.907115,-0.396158,0.686975,0.609199,0.000000,0.000000,0.000000,-1,-1.966246,-4.173493,-0.117135,0.030268,0.123678,-0.931144
"2019-03-26 10:57:06.186 +0000",1553597826.185863,-2.652397,-0.729486,0.887154,-0.350330,0.666487,0.658076,0.000000,0.000000,0.000000,-1,-1.116045,-2.754729,-0.108275,0.167316,-0.300077,-0.648585
"2019-03-26 10:57:06.208 +0000",1553597826.208168,-2.714572,-0.714029,0.881425,-0.312993,0.654884,0.687868,0.000000,0.000000,0.000000,-1,-0.363432,-2.959709,-0.072639,0.203008,-0.435981,-0.553026
"2019-03-26 10:57:06.230 +0000",1553597826.230475,-2.798096,-0.719745,0.881919,-0.253251,0.659193,0.708045,0.000000,0.000000,0.000000,-1,0.559819,-3.995618,0.114350,0.190476,-0.454451,-0.573081
"2019-03-26 10:57:06.253 +0000",1553597826.252784,-2.861907,-0.740933,0.891500,-0.203683,0.674977,0.709168,0.000000,0.000000,0.000000,-1,1.230861,-2.312376,-0.176945,0.258004,-0.393757,-0.937531
"2019-03-26 10:57:06.275 +0000",1553597826.275061,-2.858358,-0.770631,0.917166,-0.200507,0.696588,0.688885,0.000000,0.000000,0.000000,-1,1.628639,0.306552,-0.553424,0.417639,-0.454065,-1.090023
"2019-03-26 10:57:06.297 +0000",1553597826.297365,-2.805139,-0.799806,0.951185,-0.230058,0.717221,0.657774,0.000000,0.000000,0.000000,-1,1.432274,1.670363,-0.643769,0.337602,-0.506589,-0.588072
"2019-03-26 10:57:06.320 +0000",1553597826.319676,-2.755488,-0.815096,0.976796,-0.258260,0.727791,0.635312,0.000000,0.000000,0.000000,-1,0.613870,1.028941,-0.367988,0.218953,-0.359627,-0.086225
"2019-03-26 10:57:06.342 +0000",1553597826.341978,-2.752873,-0.822066,0.983681,-0.257991,0.732554,0.629925,0.000000,0.000000,0.000000,-1,0.233045,-0.930345,0.083430,0.020702,-0.017466,0.441928
"2019-03-26 10:57:06.364 +0000",1553597826.364293,-2.797988,-0.821751,0.978211,-0.229397,0.732340,0.641136,0.000000,0.000000,0.000000,-1,-0.217915,-2.008068,0.105209,-0.067570,0.331412,0.614876
"2019-03-26 10:57:06.387 +0000",1553597826.386571,-2.823175,-0.814695,0.979576,-0.214790,0.727516,0.651602,0.000000,0.000000,0.000000,-1,-0.343780,-0.567722,-0.242576,0.011848,0.417870,0.371912
"2019-03-26 10:57:06.409 +0000",1553597826.408858,-2.816720,-0.801309,0.985355,-0.222081,0.718268,0.659373,0.000000,0.000000,0.000000,-1,-0.598728,0.302257,-0.466262,-0.189541,0.306192,0.355398
"2019-03-26 10:57:06.431 +0000",1553597826.431186,-2.809499,-0.784250,0.996806,-0.230798,0.706294,0.669239,0.000000,0.000000,0.000000,-1,-0.650859,-0.444650,-0.512998,-0.075232,0.322896,0.404660
"2019-03-26 10:57:06.453 +0000",1553597826.453494,-2.847602,-0.748605,0.983481,-0.212300,0.680617,0.701205,0.000000,0.000000,0.000000,-1,-2.340169,-1.427384,0.032156,0.105305,0.307206,0.446622
"2019-03-26 10:57:06.476 +0000",1553597826.475772,-2.834394,-0.717574,0.976764,-0.227821,0.657559,0.718132,0.000000,0.000000,0.000000,-1,-0.223884,2.025696,-0.191113,0.365486,0.336658,0.262230
"2019-03-26 10:57:06.498 +0000",1553597826.498078,-2.777983,-0.725730,0.981843,-0.266032,0.663681,0.699109,0.000000,0.000000,0.000000,-1,0.425541,1.683858,0.093802,0.239573,1.308090,0.477618
"2019-03-26 10:57:06.520 +0000",1553597826.520387,-2.775421,-0.749006,0.973048,-0.262219,0.680911,0.683814,0.000000,0.000000,0.000000,-1,0.928312,-0.152882,0.963814,-0.015354,0.907208,-1.043296
"2019-03-26 10:57:06.543 +0000",1553597826.542719,-2.782657,-0.774180,0.959646,-0.251162,0.699130,0.669429,0.000000,0.000000,0.000000,-1,1.130671,0.888898,0.581250,0.177019,0.043225,-1.104091
"2019-03-26 10:57:06.565 +0000",1553597826.564974,-2.703735,-0.815122,0.970150,-0.290771,0.727809,0.621084,0.000000,0.000000,0.000000,-1,1.996473,4.196482,0.407117,0.551498,-0.212276,-0.459601
"2019-03-26 10:57:06.587 +0000",1553597826.587279,-2.605354,-0.852822,0.986112,-0.336105,0.753140,0.565521,0.000000,0.000000,0.000000,-1,1.642720,3.297687,0.243749,-0.084488,0.110828,-0.386153
"2019-03-26 10:57:06.610 +0000",1553597826.609590,-2.523158,-0.888915,1.026380,-0.365397,0.776388,0.513524,0.000000,0.000000,0.000000,-1,2.246964,1.835988,-0.211941,-0.126043,0.384653,-0.826298
"2019-03-26 10:57:06.632 +0000",1553597826.631891,-2.443687,-0.928723,1.081751,-0.384834,0.800856,0.458838,0.000000,0.000000,0.000000,-1,2.271373,1.601737,-0.031213,-0.077065,0.362489,-0.322684
"2019-03-26 10:57:06.654 +0000",1553597826.654199,-2.368126,-0.965246,1.127504,-0.397665,0.822189,0.407269,0.000000,0.000000,0.000000,-1,1.865634,1.770580,0.412468,0.086172,-0.035293,-0.325558
"2019-03-26 10:57:06.676 +0000",1553597826.676481,-2.305160,-1.005992,1.161200,-0.397294,0.844693,0.358679,0.000000,0.000000,0.000000,-1,1.948615,1.376133,0.834067,0.154359,-0.155698,-0.257544
"2019-03-26 10:57:06.699 +0000",1553597826.698789,-2.247097,-1.048626,1.207146,-0.388982,0.866739,0.312182,0.000000,0.000000,0.000000,-1,2.027807,0.474019,0.719296,0.291951,-0.338601,-0.221285
"2019-03-26 10:57:06.721 +0000",1553597826.721092,-2.202404,-1.084177,1.259895,-0.377422,0.883919,0.276115,0.000000,0.000000,0.000000,-1,1.822761,-0.304764,0.398618,0.196957,-0.109597,-0.323921
"2019-03-26 10:57:06.743 +0000",1553597826.743405,-2.152021,-1.110252,1.319442,-0.371455,0.895811,0.244017,0.000000,0.000000,0.000000,-1,1.447768,0.234818,0.321716,-0.021611,0.056567,-0.220960
"2019-03-26 10:57:06.766 +0000",1553597826.765718,-2.104473,-1.130511,1.357252,-0.366932,0.904630,0.216808,0.000000,0.000000,0.000000,-1,0.959481,0.746885,0.458383,-0.124462,0.006274,-0.057735
"2019-03-26 10:57:06.788 +0000",1553597826.787990,-2.049104,-1.152504,1.389826,-0.360615,0.913784,0.186965,0.000000,0.000000,0.000000,-1,1.163588,1.356357,0.577115,0.255558,-0.263149,0.151338
"2019-03-26 10:57:06.810 +0000",1553597826.810299,-1.955954,-1.178909,1.463004,-0.353952,0.924190,0.143494,0.000000,0.000000,0.000000,-1,1.950873,0.919848,0.541629,0.285120,-0.385173,-0.033830
"2019-03-26 10:57:06.833 +0000",1553597826.832607,-1.841357,-1.206506,1.573984,-0.343325,0.934377,0.095225,0.000000,0.000000,0.000000,-1,2.156451,0.306357,0.611671,0.131075,-0.264074,-0.189357
"2019-03-26 10:57:06.855 +0000",1553597826.854896,-1.732053,-1.230166,1.685179,-0.329747,0.942544,0.053640,0.000000,0.000000,0.000000,-1,1.683829,0.267071,0.683769,0.040150,-0.042566,0.036326
"2019-03-26 10:57:06.877 +0000",1553597826.877191,-1.644011,-1.248165,1.765618,-0.316214,0.948404,0.023193,0.000000,0.000000,0.000000,-1,1.028034,0.775964,0.654160,0.052206,-0.022837,0.233033
"2019-03-26 10:57:06.900 +0000",1553597826.899500,-1.565867,-1.263732,1.822658,-0.302258,0.953225,-0.001490,0.000000,0.000000,0.000000,-1,0.709844,1.117983,0.698128,-0.004261,0.050818,0.392313
"2019-03-26 10:57:06.922 +0000",1553597826.921808,-1.495245,-1.278387,1.873187,-0.287438,0.957552,-0.021758,0.000000,0.000000,0.000000,-1,0.620303,0.935543,0.610390,-0.023597,0.053083,0.294264
"2019-03-26 10:57:06.944 +0000",1553597826.944114,-1.433199,-1.284224,1.923039,-0.279995,0.959218,-0.038772,0.000000,0.000000,0.000000,-1,0.604258,0.396180,0.149969,-0.113377,0.202388,0.025558
"2019-03-26 10:57:06.966 +0000",1553597826.966394,-1.391419,-1.279575,1.959927,-0.282516,0.957894,-0.051227,0.000000,0.000000,0.000000,-1,0.371780,0.350235,-0.254140,-0.413789,0.300331,0.138462
"2019-03-26 10:57:06.989 +0000",1553597826.988700,-1.399282,-1.274547,1.942341,-0.287651,0.956438,-0.049826,0.000000,0.000000,0.000000,-1,-0.612761,0.368374,-0.227430,-0.635734,0.193785,0.174246
"2019-03-26 10:57:07.011 +0000",1553597827.011010,-1.490420,-1.270542,1.842521,-0.294808,0.955261,-0.023747,0.000000,0.000000,0.000000,-1,-1.616418,0.016225,-0.519983,-0.157188,0.332916,0.451619
"2019-03-26 10:57:07.033 +0000",1553597827.033317,-1.637957,-1.246785,1.703162,-0.317654,0.947966,0.021366,0.000000,0.000000,0.000000,-1,-2.070023,-1.280329,-1.417985,0.050488,0.414430,0.348812
"2019-03-26 10:57:07.056 +0000",1553597827.055598,-1.820576,-1.201481,1.560588,-0.349775,0.932575,0.089230,0.000000,0.000000,0.000000,-1,-2.750693,-2.400061,-1.737080,-0.392077,0.061383,-0.484112
"2019-03-26 10:57:07.078 +0000",1553597827.077919,-1.985622,-1.146728,1.425586,-0.376573,0.911423,0.165836,0.000000,0.000000,0.000000,-1,-2.951782,-1.353189,-1.394145,-0.018782,0.319946,-0.291186
"2019-03-26 10:57:07.100 +0000",1553597827.100211,-2.066654,-1.099140,1.344535,-0.399639,0.890817,0.216179,0.000000,0.000000,0.000000,-1,-2.117918,0.126965,-1.095551,0.334377,0.465552,-0.133232
"2019-03-26 10:57:07.123 +0000",1553597827.122518,-2.139285,-1.053397,1.272179,-0.416825,0.869109,0.266284,0.000000,0.000000,0.000000,-1,-2.537032,-0.917091,-0.959928,0.654084,0.608873,-0.525988
"2019-03-26 10:57:07.145 +0000",1553597827.144827,-2.229210,-1.003655,1.201323,-0.424924,0.843440,0.328707,0.000000,0.000000,0.000000,-1,-2.648230,-1.275694,-0.791801,0.314039,0.670293,-0.726656
"2019-03-26 10:57:07.167 +0000",1553597827.167103,-2.300009,-0.956232,1.128277,-0.429972,0.817025,0.384181,0.000000,0.000000,0.000000,-1,-2.840657,0.227119,-0.246980,0.100428,0.804786,-0.211863
"2019-03-26 10:57:07.189 +0000",1553597827.189412,-2.342865,-0.910802,1.051640,-0.439276,0.789996,0.427719,0.000000,0.000000,0.000000,-1,-2.828347,0.980457,-0.123405,0.208578,0.850812,-0.223465
"2019-03-26 10:57:07.212 +0000",1553597827.211720,-2.379725,-0.870662,1.008234,-0.444758,0.764755,0.466197,0.000000,0.000000,0.000000,-1,-1.873436,-1.258568,-0.583210,0.322825,0.782028,-0.216975
"2019-03-26 10:57:07.234 +0000",1553597827.234026,-2.465256,-0.830071,0.974004,-0.422399,0.737979,0.526275,0.000000,0.000000,0.000000,-1,-2.114590,-3.477962,-0.288212,0.137685,0.485669,-0.440811
"2019-03-26 10:57:07.256 +0000",1553597827.256305,-2.592782,-0.788063,0.937588,-0.367894,0.708989,0.601655,0.000000,0.000000,0.000000,-1,-2.191504,-4.846647,-0.155763,-0.030147,0.264537,-1.093568
"2019-03-26 10:57:07.279 +0000",1553597827.278606,-2.705646,-0.750333,0.911432,-0.308874,0.681882,0.663049,0.000000,0.000000,0.000000,-1,-1.584094,-3.668532,0.007467,0.085485,-0.055234,-1.016015
"2019-03-26 10:57:07.301 +0000",1553597827.300915,-2.779374,-0.728841,0.895616,-0.264326,0.666005,0.697545,0.000000,0.000000,0.000000,-1,-0.821251,-2.528447,0.172590,0.203672,-0.333547,-0.592274
"2019-03-26 10:57:07.323 +0000",1553597827.323228,-2.848619,-0.725949,0.886874,-0.215985,0.663846,0.716002,0.000000,0.000000,0.000000,-1,0.192177,-3.080079,0.244910,0.161160,-0.404202,-0.603713
"2019-03-26 10:57:07.346 +0000",1553597827.345536,-2.908350,-0.744243,0.889650,-0.170022,0.677415,0.715682,0.000000,0.000000,0.000000,-1,1.147542,-2.330191,0.009163,0.227456,-0.470979,-0.814193
"2019-03-26 10:57:07.368 +0000",1553597827.367814,-2.922563,-0.776082,0.906152,-0.155067,0.700489,0.696613,0.000000,0.000000,0.000000,-1,1.649184,-0.401208,-0.338970,0.322227,-0.477726,-1.119068
"2019-03-26 10:57:07.390 +0000",1553597827.390122,-2.889200,-0.810703,0.933186,-0.172056,0.724772,0.667160,0.000000,0.000000,0.000000,-1,1.707255,1.134634,-0.506405,0.270917,-0.477625,-0.713440
"2019-03-26 10:57:07.412 +0000",1553597827.412430,-2.837344,-0.838583,0.961886,-0.200272,0.743697,0.637814,0.000000,0.000000,0.000000,-1,1.173107,1.285812,-0.481925,0.219178,-0.338622,-0.220791
"2019-03-26 10:57:07.435 +0000",1553597827.434736,-2.806979,-0.848682,0.981850,-0.217066,0.750410,0.624313,0.000000,0.000000,0.000000,-1,0.333843,0.314164,-0.344643,0.100825,-0.165907,0.153351
"2019-03-26 10:57:07.457 +0000",1553597827.457015,-2.815764,-0.846792,0.983886,-0.212027,0.749159,0.627539,0.000000,0.000000,0.000000,-1,-0.307692,-0.956608,0.038525,-0.081186,0.205385,0.425378
"2019-03-26 10:57:07.479 +0000",1553597827.479323,-2.848150,-0.833791,0.978928,-0.194397,0.740485,0.643345,0.000000,0.000000,0.000000,-1,-0.718964,-1.249182,-0.182352,-0.080872,0.398981,0.533749
"2019-03-26 10:57:07.502 +0000",1553597827.501631,-2.859849,-0.814659,0.988044,-0.190762,0.727492,0.659064,0.000000,0.000000,0.000000,-1,-0.744406,-0.596698,-0.686852,0.013668,0.445665,0.460900
"2019-03-26 10:57:07.524 +0000",1553597827.523941,-2.854088,-0.795389,1.006764,-0.198494,0.714136,0.671275,0.000000,0.000000,0.000000,-1,-0.587803,-0.251363,-0.791574,-0.262993,0.520606,0.340901
"2019-03-26 10:57:07.546 +0000",1553597827.546222,-2.859219,-0.779763,1.017715,-0.198133,0.703111,0.682919,0.000000,0.000000,0.000000,-1,-0.731681,-0.978893,-0.270354,-0.183017,0.421264,0.418414
"2019-03-26 10:57:07.569 +0000",1553597827.568523,-2.903468,-0.748162,1.005236,-0.172886,0.680293,0.712258,0.000000,0.000000,0.000000,-1,-1.839652,-1.362095,0.007973,0.049733,0.060430,0.423682
"2019-03-26 10:57:07.591 +0000",1553597827.590832,-2.865743,-0.739462,1.006471,-0.201231,0.673891,0.710899,0.000000,0.000000,0.000000,-1,0.808627,3.115366,-0.043042,0.443907,-0.117906,0.353417
"2019-03-26 10:57:07.613 +0000",1553597827.613140,-2.799213,-0.746188,1.009766,-0.246520,0.678845,0.691663,0.000000,0.000000,0.000000,-1,-0.273240,1.135098,-0.169830,0.075637,0.831974,0.151004
"2019-03-26 10:57:07.635 +0000",1553597827.635446,-2.815169,-0.759200,1.013186,-0.232601,0.688341,0.687083,0.000000,0.000000,0.000000,-1,1.113193,-1.063276,0.293151,0.048870,0.707655,-1.379329
"2019-03-26 10:57:07.658 +0000",1553597827.657725,-2.821409,-0.784206,1.014195,-0.222821,0.706263,0.671970,0.000000,0.000000,0.000000,-1,0.997254,0.490030,0.207362,0.119900,0.859121,-0.635043
"2019-03-26 10:57:07.680 +0000",1553597827.680033,-2.750983,-0.816314,1.029862,-0.260781,0.728627,0.633322,0.000000,0.000000,0.000000,-1,1.895660,3.867691,0.018975,0.217568,-0.085240,-0.265509
"2019-03-26 10:57:07.702 +0000",1553597827.702340,-2.640706,-0.856300,1.051441,-0.314647,0.755423,0.574746,0.000000,0.000000,0.000000,-1,1.703490,3.928796,0.254053,0.153880,-0.036261,-0.098366
"2019-03-26 10:57:07.725 +0000",1553597827.724648,-2.560921,-0.889881,1.077908,-0.345337,0.776997,0.526325,0.000000,0.000000,0.000000,-1,1.890649,2.016325,0.024242,0.187119,0.069210,-0.841435
"2019-03-26 10:57:07.747 +0000",1553597827.746945,-2.480718,-0.928542,1.128889,-0.367672,0.800748,0.472885,0.000000,0.000000,0.000000,-1,2.272365,1.914865,-0.169459,0.040096,0.431888,-0.296173
"2019-03-26 10:57:07.769 +0000",1553597827.769233,-2.388009,-0.963336,1.177354,-0.390563,0.821100,0.416239,0.000000,0.000000,0.000000,-1,1.845584,2.602755,0.255960,-0.062242,0.269430,-0.322352
"2019-03-26 10:57:07.792 +0000",1553597827.791540,-2.307368,-1.002521,1.212445,-0.398670,0.842831,0.361523,0.000000,0.000000,0.000000,-1,1.918769,1.983558,0.773831,-0.089566,-0.018002,-0.263806
"2019-03-26 10:57:07.814 +0000",1553597827.813851,-2.248764,-1.042549,1.254626,-0.392556,0.863692,0.316128,0.000000,0.000000,0.000000,-1,1.868492,0.392693,0.708537,0.131829,-0.228773,-0.178448
"2019-03-26 10:57:07.836 +0000",1553597827.836157,-2.212907,-1.077447,1.297074,-0.379257,0.880752,0.283620,0.000000,0.000000,0.000000,-1,1.610395,-0.176285,0.569574,0.202606,-0.080337,-0.363668
"2019-03-26 10:57:07.858 +0000",1553597827.858435,-2.177167,-1.105245,1.338915,-0.368884,0.893574,0.255832,0.000000,0.000000,0.000000,-1,1.265642,0.151990,0.561550,0.056124,-0.029164,-0.233996
"2019-03-26 10:57:07.881 +0000",1553597827.880737,-2.128171,-1.130623,1.372678,-0.361605,0.904678,0.225388,0.000000,0.000000,0.000000,-1,1.147244,1.182866,0.575919,0.052050,-0.236709,0.032165
"2019-03-26 10:57:07.903 +0000",1553597827.903051,-2.064221,-1.155927,1.413779,-0.354990,0.915169,0.190912,0.000000,0.000000,0.000000,-1,1.349171,1.014508,0.598589,0.165003,-0.298485,0.116842
"2019-03-26 10:57:07.925 +0000",1553597827.925356,-1.985191,-1.183009,1.482500,-0.346135,0.925748,0.152253,0.000000,0.000000,0.000000,-1,1.757637,0.630694,0.552550,0.128896,-0.279279,-0.080079
"2019-03-26 10:57:07.948 +0000",1553597827.947636,-1.880839,-1.211017,1.579709,-0.335281,0.935975,0.107415,0.000000,0.000000,0.000000,-1,1.998894,0.564811,0.667368,-0.033615,-0.231736,-0.249719
"2019-03-26 10:57:07.970 +0000",1553597827.969933,-1.773941,-1.238769,1.687000,-0.319257,0.945383,0.065762,0.000000,0.000000,0.000000,-1,1.792370,0.142245,0.847187,0.065794,-0.095972,-0.040616
"2019-03-26 10:57:07.992 +0000",1553597827.992250,-1.671370,-1.262860,1.782555,-0.301561,0.952961,0.030432,0.000000,0.000000,0.000000,-1,1.258471,0.909566,0.828982,0.150850,-0.102101,0.064737
"2019-03-26 10:57:08.015 +0000",1553597828.014560,-1.582566,-1.279938,1.842434,-0.286755,0.957998,0.003375,0.000000,0.000000,0.000000,-1,0.673653,1.604858,0.640200,0.250957,-0.058569,0.215817
"2019-03-26 10:57:08.037 +0000",1553597828.036839,-1.489008,-1.288481,1.903548,-0.277649,0.960413,-0.022759,0.000000,0.000000,0.000000,-1,0.857694,1.434997,0.275827,0.010543,0.236761,0.301476
"2019-03-26 10:57:08.059 +0000",1553597828.059145,-1.403359,-1.288753,1.974401,-0.274427,0.960489,-0.046383,0.000000,0.000000,0.000000,-1,0.823508,0.445090,0.056340,-0.311328,0.214591,-0.017871
"2019-03-26 10:57:08.081 +0000",1553597828.081465,-1.348465,-1.284029,2.019985,-0.275891,0.959163,-0.062370,0.000000,0.000000,0.000000,-1,0.440047,0.656769,-0.196292,-0.500598,0.146321,0.078926
"2019-03-26 10:57:08.104 +0000",1553597828.103761,-1.335155,-1.277591,2.014561,-0.281035,0.957322,-0.067477,0.000000,0.000000,0.000000,-1,-0.348091,0.831847,-0.325960,-0.420503,0.169341,0.291202
"2019-03-26 10:57:08.126 +0000",1553597828.126069,-1.392794,-1.272907,1.938104,-0.288866,0.955958,-0.051969,0.000000,0.000000,0.000000,-1,-1.225836,0.574863,-0.517579,-0.202406,0.391408,0.496961
"2019-03-26 10:57:08.148 +0000",1553597828.148346,-1.516036,-1.256448,1.812193,-0.308733,0.950998,-0.016923,0.000000,0.000000,0.000000,-1,-1.809136,-0.768973,-1.221692,-0.056196,0.504980,0.392289
"2019-03-26 10:57:08.171 +0000",1553597828.170655,-1.696910,-1.220902,1.663493,-0.340076,0.939409,0.043117,0.000000,0.000000,0.000000,-1,-2.528069,-2.108146,-1.659189,-0.287411,0.343901,-0.092174
"2019-03-26 10:57:08.193 +0000",1553597828.192952,-1.887791,-1.171834,1.502642,-0.369108,0.921464,0.121089,0.000000,0.000000,0.000000,-1,-3.239102,-1.701399,-1.375298,-0.044725,0.230605,-0.447154
"2019-03-26 10:57:08.215 +0000",1553597828.215270,-2.009230,-1.122606,1.386956,-0.392350,0.901233,0.183960,0.000000,0.000000,0.000000,-1,-2.425581,0.003459,-1.181672,0.326920,0.431012,-0.275345
"2019-03-26 10:57:08.238 +0000",1553597828.237547,-2.086025,-1.077518,1.300413,-0.412044,0.880785,0.233317,0.000000,0.000000,0.000000,-1,-2.694395,-0.415041,-0.897710,0.832592,0.465330,-0.446162
"2019-03-26 10:57:08.260 +0000",1553597828.259875,-2.195629,-1.030186,1.206748,-0.417420,0.857395,0.301056,0.000000,0.000000,0.000000,-1,-2.968080,-1.472670,-0.470377,0.230973,0.675015,-0.693680
"2019-03-26 10:57:08.282 +0000",1553597828.282163,-2.296037,-0.985650,1.105666,-0.413324,0.833631,0.366364,0.000000,0.000000,0.000000,-1,-3.284275,-0.005086,0.207590,0.234827,0.974810,-0.192383
"2019-03-26 10:57:08.304 +0000",1553597828.304471,-2.364175,-0.938347,0.998704,-0.414637,0.806582,0.421309,0.000000,0.000000,0.000000,-1,-3.437147,1.204645,0.350613,0.337886,0.980527,-0.176039
"2019-03-26 10:57:08.327 +0000",1553597828.326779,-2.402246,-0.894511,0.935315,-0.421735,0.779903,0.462483,0.000000,0.000000,0.000000,-1,-2.125303,-0.350005,-0.360741,0.472684,0.784199,-0.192433
"2019-03-26 10:57:08.349 +0000",1553597828.349057,-2.468050,-0.844728,0.897189,-0.414135,0.747790,0.518943,0.000000,0.000000,0.000000,-1,-2.691025,-2.298703,-0.651340,0.225109,0.442426,-0.396476
"2019-03-26 10:57:08.371 +0000",1553597828.371364,-2.569675,-0.791195,0.859529,-0.380494,0.711194,0.591124,0.000000,0.000000,0.000000,-1,-2.508917,-3.699877,-0.359702,0.073975,0.336642,-1.098692
"2019-03-26 10:57:08.394 +0000",1553597828.393672,-2.661965,-0.747904,0.831983,-0.338296,0.680103,0.650397,0.000000,0.000000,0.000000,-1,-1.839968,-2.800614,-0.109366,0.055154,0.123043,-0.882376
"2019-03-26 10:57:08.416 +0000",1553597828.415955,-2.725809,-0.720271,0.814238,-0.303587,0.659588,0.687589,0.000000,0.000000,0.000000,-1,-1.143807,-2.212729,0.099087,0.253447,-0.246151,-0.574567
"2019-03-26 10:57:08.438 +0000",1553597828.438258,-2.792366,-0.708862,0.799067,-0.259743,0.650971,0.713282,0.000000,0.000000,0.000000,-1,-0.304014,-2.839974,0.360566,0.222878,-0.345307,-0.563791
"2019-03-26 10:57:08.461 +0000",1553597828.460566,-2.864052,-0.719830,0.791823,-0.206019,0.659257,0.723144,0.000000,0.000000,0.000000,-1,0.787207,-2.904726,0.356646,0.159602,-0.462662,-0.686584
"2019-03-26 10:57:08.483 +0000",1553597828.482870,-2.908964,-0.748971,0.794864,-0.168842,0.680885,0.712662,0.000000,0.000000,0.000000,-1,1.532268,-1.499275,0.114990,0.196247,-0.556023,-1.047425
"2019-03-26 10:57:08.505 +0000",1553597828.505180,-2.908784,-0.786848,0.812691,-0.162901,0.708131,0.687032,0.000000,0.000000,0.000000,-1,1.903969,-0.051730,-0.334371,0.199354,-0.619066,-0.677908
"2019-03-26 10:57:08.527 +0000",1553597828.527459,-2.877736,-0.824142,0.842056,-0.177136,0.733965,0.655681,0.000000,0.000000,0.000000,-1,1.660381,0.614246,-0.506619,0.180707,-0.539812,-0.487773
"2019-03-26 10:57:08.550 +0000",1553597828.549768,-2.849589,-0.841725,0.864640,-0.191774,0.745794,0.637977,0.000000,0.000000,0.000000,-1,0.496890,0.394213,-0.336451,0.150453,-0.323781,-0.149208
"2019-03-26 10:57:08.572 +0000",1553597828.572075,-2.853888,-0.841004,0.863487,-0.189181,0.745313,0.639311,0.000000,0.000000,0.000000,-1,-0.328221,-0.598032,0.199233,0.037494,0.094149,0.560915
"2019-03-26 10:57:08.594 +0000",1553597828.594382,-2.887451,-0.830626,0.852018,-0.169558,0.738354,0.652751,0.000000,0.000000,0.000000,-1,-0.567362,-1.260299,0.110728,-0.155805,0.427021,0.843663
"2019-03-26 10:57:08.617 +0000",1553597828.616690,-2.911148,-0.817056,0.854589,-0.156317,0.729134,0.666279,0.000000,0.000000,0.000000,-1,-0.624516,-1.028605,-0.409899,-0.030160,0.486503,0.458217
"2019-03-26 10:57:08.639 +0000",1553597828.638968,-2.916576,-0.799300,0.868685,-0.155563,0.716869,0.679632,0.000000,0.000000,0.000000,-1,-0.646600,-0.525297,-0.681092,-0.262406,0.542592,0.258799
"2019-03-26 10:57:08.661 +0000",1553597828.661276,-2.922319,-0.784031,0.882378,-0.154020,0.706140,0.691118,0.000000,0.000000,0.000000,-1,-0.712145,-0.944879,-0.380907,-0.198091,0.496055,0.382582
"2019-03-26 10:57:08.684 +0000",1553597828.683583,-2.952669,-0.751643,0.876007,-0.137202,0.682840,0.717569,0.000000,0.000000,0.000000,-1,-1.789522,-0.808816,-0.069960,0.108836,0.212607,0.459479
"2019-03-26 10:57:08.706 +0000",1553597828.705889,-2.937844,-0.731774,0.867144,-0.150541,0.668191,0.728601,0.000000,0.000000,0.000000,-1,-0.325116,1.713684,0.264312,0.509473,0.768867,0.437034
"2019-03-26 10:57:08.728 +0000",1553597828.728168,-2.907863,-0.730313,0.862164,-0.172539,0.667103,0.724710,0.000000,0.000000,0.000000,-1,0.176825,0.755232,0.167588,0.135796,1.273189,-0.539346
"2019-03-26 10:57:08.750 +0000",1553597828.750477,-2.901401,-0.760122,0.854687,-0.172410,0.689010,0.703946,0.000000,0.000000,0.000000,-1,1.498911,0.658593,0.800448,0.165712,1.113404,-0.791898
"2019-03-26 10:57:08.773 +0000",1553597828.772784,-2.894419,-0.787965,0.839985,-0.172559,0.708920,0.683854,0.000000,0.000000,0.000000,-1,1.073250,1.137447,0.612415,0.066968,0.159702,-0.956193
"2019-03-26 10:57:08.795 +0000",1553597828.795093,-2.822001,-0.829800,0.842830,-0.212078,0.737796,0.640843,0.000000,0.000000,0.000000,-1,2.226227,4.335672,0.439376,0.477047,-0.502002,-0.683628
"2019-03-26 10:57:08.817 +0000",1553597828.817369,-2.714525,-0.879664,0.858239,-0.264018,0.770525,0.580161,0.000000,0.000000,0.000000,-1,1.977863,3.613971,0.250912,-0.032994,0.058638,-0.317343
"2019-03-26 10:57:08.840 +0000",1553597828.839679,-2.645812,-0.915841,0.891343,-0.289772,0.793075,0.535784,0.000000,0.000000,0.000000,-1,1.965334,1.034913,-0.234822,-0.211968,0.389679,-0.948641
"2019-03-26 10:57:08.862 +0000",1553597828.861999,-2.583646,-0.956202,0.944783,-0.305292,0.817007,0.489178,0.000000,0.000000,0.000000,-1,2.390425,1.071848,-0.273425,-0.112310,0.570627,-0.268368
"2019-03-26 10:57:08.884 +0000",1553597828.884294,-2.508678,-0.996888,0.993518,-0.321135,0.839785,0.437759,0.000000,0.000000,0.000000,-1,2.025390,1.782160,0.217571,-0.082491,0.213849,-0.308944
"2019-03-26 10:57:08.907 +0000",1553597828.906602,-2.442864,-1.038775,1.024135,-0.326303,0.861783,0.388402,0.000000,0.000000,0.000000,-1,2.009758,1.652439,0.712451,0.111566,-0.259900,-0.278294
"2019-03-26 10:57:08.929 +0000",1553597828.928885,-2.381705,-1.083768,1.068367,-0.322378,0.883728,0.339260,0.000000,0.000000,0.000000,-1,2.141297,0.452525,0.565610,0.278112,-0.288894,-0.293423
"2019-03-26 10:57:08.951 +0000",1553597828.951187,-2.343764,-1.122486,1.122056,-0.310277,0.901181,0.302657,0.000000,0.000000,0.000000,-1,1.916211,-0.757745,0.324427,0.136037,-0.156552,-0.379257
"2019-03-26 10:57:08.973 +0000",1553597828.973495,-2.292959,-1.150471,1.186395,-0.306198,0.912956,0.269730,0.000000,0.000000,0.000000,-1,1.554712,0.124547,0.115472,-0.039048,0.034569,-0.304978
"2019-03-26 10:57:08.996 +0000",1553597828.995803,-2.235048,-1.172970,1.230813,-0.305042,0.921905,0.238830,0.000000,0.000000,0.000000,-1,1.142302,0.969155,0.347223,-0.118069,-0.016525,-0.014312
"2019-03-26 10:57:09.018 +0000",1553597829.018081,-2.178247,-1.196347,1.260857,-0.300328,0.930709,0.208767,0.000000,0.000000,0.000000,-1,1.013276,1.444983,0.617103,0.254094,-0.178146,0.221256
"2019-03-26 10:57:09.040 +0000",1553597829.040388,-2.102566,-1.224211,1.311515,-0.292781,0.940538,0.172242,0.000000,0.000000,0.000000,-1,1.612599,1.082335,0.615617,0.310436,-0.330553,-0.041886
"2019-03-26 10:57:09.063 +0000",1553597829.062695,-1.984352,-1.257359,1.416002,-0.282337,0.951279,0.123908,0.000000,0.000000,0.000000,-1,2.199598,0.738330,0.664822,0.169269,-0.335404,-0.124839
"2019-03-26 10:57:09.085 +0000",1553597829.085005,-1.847725,-1.288797,1.551119,-0.267674,0.960501,0.076082,0.000000,0.000000,0.000000,-1,2.008817,0.134522,0.737089,-0.008312,-0.119482,-0.256883
"2019-03-26 10:57:09.107 +0000",1553597829.107312,-1.736069,-1.311035,1.659909,-0.253349,0.966451,0.042257,0.000000,0.000000,0.000000,-1,1.147052,0.581616,0.654597,0.039314,-0.047994,-0.093511
"2019-03-26 10:57:09.130 +0000",1553597829.129602,-1.656277,-1.326240,1.715561,-0.241241,0.970245,0.020672,0.000000,0.000000,0.000000,-1,0.506220,1.396540,0.551567,0.071762,0.177933,0.376255
"2019-03-26 10:57:09.152 +0000",1553597829.151876,-1.581802,-1.336348,1.759210,-0.232292,0.972643,0.002557,0.000000,0.000000,0.000000,-1,0.544263,1.378549,0.348295,-0.073433,0.124495,0.168281
"2019-03-26 10:57:09.174 +0000",1553597829.174205,-1.503769,-1.339843,1.819197,-0.228391,0.973449,-0.015332,0.000000,0.000000,0.000000,-1,0.622828,0.522556,0.071843,-0.197710,0.137132,-0.005466
"2019-03-26 10:57:09.197 +0000",1553597829.196510,-1.448108,-1.336211,1.869902,-0.230693,0.972611,-0.028446,0.000000,0.000000,0.000000,-1,0.452157,0.307313,-0.219087,-0.436025,0.222168,-0.064785
"2019-03-26 10:57:09.219 +0000",1553597829.218790,-1.433898,-1.329488,1.873286,-0.236738,0.971026,-0.032613,0.000000,0.000000,0.000000,-1,-0.251714,0.549026,-0.304650,-0.559802,0.222654,0.146154
"2019-03-26 10:57:09.241 +0000",1553597829.241098,-1.499295,-1.323930,1.793348,-0.243742,0.969683,-0.017458,0.000000,0.000000,0.000000,-1,-1.162887,0.501435,-0.423710,-0.214403,0.291960,0.419283
"2019-03-26 10:57:09.263 +0000",1553597829.263407,-1.641293,-1.306907,1.644743,-0.260189,0.965383,0.018373,0.000000,0.000000,0.000000,-1,-1.928579,-0.235702,-1.047690,0.042126,0.354075,0.422423
"2019-03-26 10:57:09.286 +0000",1553597829.285714,-1.820336,-1.265772,1.486527,-0.291015,0.953840,0.074166,0.000000,0.000000,0.000000,-1,-2.480516,-1.899085,-1.674398,-0.059068,0.227313,0.060326
"2019-03-26 10:57:09.308 +0000",1553597829.308008,-2.014131,-1.207868,1.335565,-0.320693,0.934861,0.152285,0.000000,0.000000,0.000000,-1,-3.160380,-2.167380,-1.631370,-0.350816,0.104507,-0.601045
"2019-03-26 10:57:09.330 +0000",1553597829.330299,-2.128541,-1.149169,1.241679,-0.347225,0.912424,0.216603,0.000000,0.000000,0.000000,-1,-2.224077,-0.565871,-1.455382,-0.107686,0.342870,-0.374470
"2019-03-26 10:57:09.353 +0000",1553597829.352608,-2.201846,-1.100077,1.175242,-0.366182,0.891242,0.267578,0.000000,0.000000,0.000000,-1,-2.600954,-1.119867,-0.887420,0.500429,0.571938,-0.381958
"2019-03-26 10:57:09.375 +0000",1553597829.374902,-2.316595,-1.048133,1.089077,-0.366678,0.866493,0.338729,0.000000,0.000000,0.000000,-1,-2.958460,-1.728608,-0.481475,0.295785,0.721077,-0.490340
"2019-03-26 10:57:09.397 +0000",1553597829.397223,-2.410340,-0.997204,1.003025,-0.362385,0.839957,0.403918,0.000000,0.000000,0.000000,-1,-3.120894,-0.343906,0.055723,0.264927,0.800180,-0.295824
"2019-03-26 10:57:09.420 +0000",1553597829.419501,-2.475411,-0.945964,0.912467,-0.361500,0.811061,0.459889,0.000000,0.000000,0.000000,-1,-3.245662,0.776575,0.338491,0.310581,0.907948,-0.271901
"2019-03-26 10:57:09.442 +0000",1553597829.441809,-2.513582,-0.896103,0.850563,-0.367009,0.780899,0.505471,0.000000,0.000000,0.000000,-1,-2.453475,-0.080399,-0.270111,0.400761,0.841645,-0.318338
"2019-03-26 10:57:09.464 +0000",1553597829.464116,-2.567497,-0.845089,0.818548,-0.360420,0.748030,0.557269,0.000000,0.000000,0.000000,-1,-2.465431,-2.034401,-0.720455,0.304711,0.531572,-0.322573
"2019-03-26 10:57:09.486 +0000",1553597829.486425,-2.654391,-0.793425,0.804687,-0.328367,0.712760,0.619797,0.000000,0.000000,0.000000,-1,-2.071869,-4.089964,-0.756624,0.037657,0.401940,-0.927689
"2019-03-26 10:57:09.509 +0000",1553597829.508701,-2.746774,-0.749831,0.797580,-0.281482,0.681515,0.675504,0.000000,0.000000,0.000000,-1,-1.673133,-3.475297,-0.588233,-0.158231,0.165104,-0.932691
"2019-03-26 10:57:09.531 +0000",1553597829.531006,-2.805310,-0.720800,0.801832,-0.247907,0.659986,0.709197,0.000000,0.000000,0.000000,-1,-0.818364,-2.530259,-0.609902,-0.024051,-0.241666,-0.597198
"2019-03-26 10:57:09.553 +0000",1553597829.553317,-2.866294,-0.710100,0.814447,-0.206131,0.651909,0.729742,0.000000,0.000000,0.000000,-1,-0.084751,-3.509917,-0.489243,0.071579,-0.361077,-0.574393
"2019-03-26 10:57:09.576 +0000",1553597829.575626,-2.935699,-0.714511,0.824472,-0.154438,0.655248,0.739459,0.000000,0.000000,0.000000,-1,0.530190,-3.039790,-0.184258,0.094166,-0.407872,-0.748156
"2019-03-26 10:57:09.598 +0000",1553597829.597916,-2.968487,-0.736349,0.833639,-0.127619,0.671588,0.729852,0.000000,0.000000,0.000000,-1,1.258283,-0.828597,-0.108052,0.448480,-0.646990,-1.008340
"2019-03-26 10:57:09.620 +0000",1553597829.620205,-2.947105,-0.767686,0.847524,-0.139057,0.694472,0.705954,0.000000,0.000000,0.000000,-1,1.552551,1.190843,-0.263552,0.466770,-0.729537,-0.864340
"2019-03-26 10:57:09.643 +0000",1553597829.642519,-2.899549,-0.799548,0.866554,-0.167070,0.717041,0.676713,0.000000,0.000000,0.000000,-1,1.395933,1.461402,-0.266021,0.280137,-0.669556,-0.437821
"2019-03-26 10:57:09.665 +0000",1553597829.664826,-2.877028,-0.818326,0.878746,-0.178713,0.730003,0.659665,0.000000,0.000000,0.000000,-1,0.668311,0.031256,-0.050189,0.034762,-0.371833,-0.093884
"2019-03-26 10:57:09.687 +0000",1553597829.687135,-2.892388,-0.831641,0.880575,-0.166148,0.739038,0.652853,0.000000,0.000000,0.000000,-1,0.552897,-1.128090,0.141172,-0.092519,0.088385,0.348978
"2019-03-26 10:57:09.709 +0000",1553597829.709412,-2.933455,-0.837077,0.876499,-0.138372,0.742689,0.655184,0.000000,0.000000,0.000000,-1,-0.061009,-2.028742,0.162549,-0.125956,0.412142,0.504743
"2019-03-26 10:57:09.732 +0000",1553597829.731718,-2.973979,-0.824806,0.876790,-0.113227,0.734416,0.669188,0.000000,0.000000,0.000000,-1,-0.763689,-1.377670,-0.314937,-0.019570,0.390889,0.249498
"2019-03-26 10:57:09.754 +0000",1553597829.754023,-2.971681,-0.804021,0.891598,-0.117321,0.720152,0.683825,0.000000,0.000000,0.000000,-1,-0.825813,0.126410,-0.730250,-0.174869,0.567781,0.471296
"2019-03-26 10:57:09.776 +0000",1553597829.776331,-2.950375,-0.784908,0.910108,-0.134454,0.706760,0.694559,0.000000,0.000000,0.000000,-1,-0.741295,0.354329,-0.651601,-0.188147,0.565762,0.520620
"2019-03-26 10:57:09.799 +0000",1553597829.798613,-2.945228,-0.759407,0.910497,-0.141499,0.688492,0.711307,0.000000,0.000000,0.000000,-1,-1.277971,0.329607,0.013318,-0.042766,0.351898,0.506863
"2019-03-26 10:57:09.821 +0000",1553597829.820914,-2.934411,-0.738287,0.886804,-0.152142,0.673022,0.723806,0.000000,0.000000,0.000000,-1,-0.894895,1.185751,0.915199,0.266553,0.259916,0.389552
"2019-03-26 10:57:09.843 +0000",1553597829.843211,-2.947307,-0.727197,0.859295,-0.144228,0.664778,0.732986,0.000000,0.000000,0.000000,-1,-0.599897,-0.515258,0.641379,0.307115,0.736421,-0.109283
"2019-03-26 10:57:09.866 +0000",1553597829.865520,-2.957565,-0.743847,0.845903,-0.134657,0.677124,0.723444,0.000000,0.000000,0.000000,-1,1.433956,0.539689,0.600631,0.510085,1.410813,-0.704447
"2019-03-26 10:57:09.888 +0000",1553597829.887827,-2.947735,-0.771669,0.831168,-0.138078,0.697333,0.703322,0.000000,0.000000,0.000000,-1,0.752199,1.018197,0.669284,0.052995,0.749567,-0.621458
"2019-03-26 10:57:09.910 +0000",1553597829.910105,-2.893666,-0.802186,0.829421,-0.170583,0.718877,0.673882,0.000000,0.000000,0.000000,-1,1.947460,3.717017,0.183117,0.292150,-0.382650,-1.161080
"2019-03-26 10:57:09.932 +0000",1553597829.932412,-2.775262,-0.852443,0.844194,-0.235743,0.752890,0.614477,0.000000,0.000000,0.000000,-1,2.090576,4.876434,0.325474,0.327341,-0.102866,-0.186971
"2019-03-26 10:57:09.955 +0000",1553597829.954720,-2.691109,-0.889126,0.860923,-0.274342,0.776521,0.567231,0.000000,0.000000,0.000000,-1,1.749210,2.015484,0.146034,-0.111400,0.262297,-0.891725
"2019-03-26 10:57:09.977 +0000",1553597829.977023,-2.641266,-0.932486,0.893368,-0.285831,0.803104,0.522805,0.000000,0.000000,0.000000,-1,2.318834,0.923012,0.059213,-0.076626,0.739926,-0.272744
"2019-03-26 10:57:09.999 +0000",1553597829.999306,-2.584632,-0.975806,0.930496,-0.296285,0.828154,0.475790,0.000000,0.000000,0.000000,-1,1.960123,1.433032,0.288994,-0.136423,0.547365,-0.323843
"2019-03-26 10:57:10.022 +0000",1553597830.021613,-2.525130,-1.016612,0.951095,-0.304253,0.850330,0.429383,0.000000,0.000000,0.000000,-1,1.801972,2.060985,0.773366,-0.118263,-0.022495,-0.336899
"2019-03-26 10:57:10.044 +0000",1553597830.043912,-2.459124,-1.064454,0.976672,-0.305883,0.874524,0.376355,0.000000,0.000000,0.000000,-1,2.206821,1.753528,0.750217,0.272100,-0.352017,-0.218945
"2019-03-26 10:57:10.066 +0000",1553597830.066224,-2.400267,-1.109164,1.019293,-0.300770,0.895327,0.328523,0.000000,0.000000,0.000000,-1,1.954430,0.447633,0.596709,0.277684,-0.338503,-0.211977
"2019-03-26 10:57:10.089 +0000",1553597830.088506,-2.355200,-1.144318,1.069945,-0.292797,0.910428,0.292215,0.000000,0.000000,0.000000,-1,1.764382,-0.112371,0.225715,0.008999,-0.134672,-0.355692
"2019-03-26 10:57:10.111 +0000",1553597830.110814,-2.296747,-1.171072,1.124516,-0.291044,0.921168,0.258346,0.000000,0.000000,0.000000,-1,1.383814,0.768402,0.262393,-0.161837,0.072881,-0.277327
"2019-03-26 10:57:10.133 +0000",1553597830.133121,-2.237022,-1.195139,1.161140,-0.288429,0.930267,0.226743,0.000000,0.000000,0.000000,-1,1.066815,1.293494,0.567731,-0.136238,-0.059936,0.073169
"2019-03-26 10:57:10.155 +0000",1553597830.155430,-2.166201,-1.223116,1.198588,-0.282088,0.940165,0.191090,0.000000,0.000000,0.000000,-1,1.394914,1.714749,0.672060,0.228148,-0.284068,0.172283
"2019-03-26 10:57:10.178 +0000",1553597830.177739,-2.067714,-1.256143,1.274852,-0.272057,0.950904,0.147538,0.000000,0.000000,0.000000,-1,1.850973,0.722356,0.710837,0.240791,-0.380790,-0.000809
"2019-03-26 10:57:10.200 +0000",1553597830.200016,-1.959876,-1.288977,1.380894,-0.257318,0.960551,0.105495,0.000000,0.000000,0.000000,-1,1.900899,0.129592,0.749615,-0.081122,-0.281062,-0.255520
"2019-03-26 10:57:10.222 +0000",1553597830.222323,-1.847926,-1.317058,1.496525,-0.241446,0.967981,0.068679,0.000000,0.000000,0.000000,-1,1.499298,0.040709,0.713016,-0.088785,-0.252725,-0.142089
"2019-03-26 10:57:10.245 +0000",1553597830.244632,-1.750080,-1.337249,1.584441,-0.227720,0.972852,0.041270,0.000000,0.000000,0.000000,-1,0.943922,0.978758,0.628778,0.008757,-0.113065,0.079046
"2019-03-26 10:57:10.267 +0000",1553597830.266921,-1.659704,-1.351895,1.647030,-0.216300,0.976137,0.019281,0.000000,0.000000,0.000000,-1,0.637683,1.327597,0.526307,-0.025888,0.210875,0.279669
"2019-03-26 10:57:10.289 +0000",1553597830.289217,-1.568723,-1.360709,1.718834,-0.208545,0.978013,-0.000432,0.000000,0.000000,0.000000,-1,0.725113,0.668447,0.258141,-0.100995,0.242401,0.185949
"2019-03-26 10:57:10.312 +0000",1553597830.311525,-1.492280,-1.361506,1.792336,-0.207126,0.978179,-0.016296,0.000000,0.000000,0.000000,-1,0.638061,-0.027840,-0.055775,-0.318463,0.276445,0.025787
"2019-03-26 10:57:10.334 +0000",1553597830.333832,-1.464546,-1.356580,1.818989,-0.211384,0.977143,-0.022544,0.000000,0.000000,0.000000,-1,-0.053716,0.215911,-0.251760,-0.528530,0.252563,0.107536
"2019-03-26 10:57:10.356 +0000",1553597830.356141,-1.539805,-1.351373,1.734472,-0.217562,0.976023,-0.006745,0.000000,0.000000,0.000000,-1,-1.184289,0.346589,-0.373737,-0.181501,0.348989,0.538224
"2019-03-26 10:57:10.378 +0000",1553597830.378447,-1.697894,-1.331875,1.572604,-0.234746,0.971594,0.029997,0.000000,0.000000,0.000000,-1,-1.942839,-0.358946,-1.097237,-0.038539,0.403208,0.479768
"2019-03-26 10:57:10.401 +0000",1553597830.400725,-1.893689,-1.287229,1.404474,-0.265324,0.960064,0.088778,0.000000,0.000000,0.000000,-1,-2.546111,-2.246074,-1.686128,-0.020229,0.349980,0.082258
"2019-03-26 10:57:10.423 +0000",1553597830.423033,-2.074170,-1.225209,1.269922,-0.296731,0.940877,0.163407,0.000000,0.000000,0.000000,-1,-2.907321,-1.868774,-1.739253,-0.395728,0.024822,-0.651765
"2019-03-26 10:57:10.445 +0000",1553597830.445347,-2.159544,-1.168391,1.192957,-0.325696,0.920122,0.217481,0.000000,0.000000,0.000000,-1,-2.108006,-0.169268,-1.337175,-0.101001,0.352400,-0.404997
"2019-03-26 10:57:10.468 +0000",1553597830.467649,-2.260605,-1.120178,1.112912,-0.335948,0.900178,0.277162,0.000000,0.000000,0.000000,-1,-2.762283,-2.134862,-0.578164,0.471583,0.616637,-0.566819
"2019-03-26 10:57:10.490 +0000",1553597830.489930,-2.386201,-1.070399,1.025216,-0.328921,0.877392,0.349277,0.000000,0.000000,0.000000,-1,-2.868753,-1.623394,-0.319755,0.247546,0.584858,-0.324634
"2019-03-26 10:57:10.512 +0000",1553597830.512234,-2.466404,-1.019161,0.938052,-0.327574,0.851668,0.409092,0.000000,0.000000,0.000000,-1,-3.068285,0.410897,0.238953,0.153120,0.681947,-0.210392
"2019-03-26 10:57:10.535 +0000",1553597830.534580,-2.525200,-0.969460,0.850828,-0.327054,0.824581,0.461630,0.000000,0.000000,0.000000,-1,-3.082850,0.646159,0.318734,0.145398,0.833470,-0.251196
"2019-03-26 10:57:10.557 +0000",1553597830.556830,-2.568300,-0.918953,0.799359,-0.329049,0.794967,0.509661,0.000000,0.000000,0.000000,-1,-2.310436,-0.913693,-0.406451,0.274346,0.613770,-0.330798
"2019-03-26 10:57:10.579 +0000",1553597830.579128,-2.637167,-0.867301,0.773845,-0.312644,0.762586,0.566319,0.000000,0.000000,0.000000,-1,-2.430621,-2.799274,-0.647797,0.078574,0.481234,-0.694538
"2019-03-26 10:57:10.601 +0000",1553597830.601436,-2.728316,-0.813643,0.758476,-0.275850,0.726794,0.629029,0.000000,0.000000,0.000000,-1,-2.277072,-3.933374,-0.637664,-0.036864,0.379712,-1.006592
"2019-03-26 10:57:10.624 +0000",1553597830.623744,-2.814271,-0.767291,0.750345,-0.231420,0.694188,0.681578,0.000000,0.000000,0.000000,-1,-1.838299,-3.302804,-0.496690,-0.150249,0.133693,-0.869749
"2019-03-26 10:57:10.646 +0000",1553597830.646052,-2.885389,-0.730589,0.749795,-0.188735,0.667308,0.720471,0.000000,0.000000,0.000000,-1,-1.382463,-3.184112,-0.392102,-0.027147,-0.133495,-0.813702
"2019-03-26 10:57:10.668 +0000",1553597830.668361,-2.956958,-0.712253,0.755961,-0.138956,0.653540,0.744027,0.000000,0.000000,0.000000,-1,-0.361696,-3.525698,-0.401038,-0.018545,-0.297095,-0.831796
"2019-03-26 10:57:10.691 +0000",1553597830.690638,-3.023163,-0.717704,0.770499,-0.089006,0.657657,0.748041,0.000000,0.000000,0.000000,-1,0.666715,-3.179959,-0.496707,-0.025770,-0.449130,-0.918665
"2019-03-26 10:57:10.713 +0000",1553597830.712934,-3.065156,-0.741010,0.788158,-0.056339,0.675034,0.735633,0.000000,0.000000,0.000000,-1,1.318740,-1.776021,-0.482839,0.300174,-0.491226,-1.000632
"2019-03-26 10:57:10.735 +0000",1553597830.735252,-3.062096,-0.775311,0.807309,-0.056717,0.699938,0.711948,0.000000,0.000000,0.000000,-1,1.689855,0.311381,-0.568198,0.372330,-0.514864,-0.958515
"2019-03-26 10:57:10.758 +0000",1553597830.757561,-3.018035,-0.809980,0.835967,-0.084978,0.724273,0.684257,0.000000,0.000000,0.000000,-1,1.493760,1.248902,-0.828434,0.432695,-0.568725,-0.661155
"2019-03-26 10:57:10.780 +0000",1553597830.779839,-2.975141,-0.827672,0.860346,-0.112101,0.736358,0.667241,0.000000,0.000000,0.000000,-1,0.588804,0.939325,-0.301325,0.331278,-0.449615,-0.246815
"2019-03-26 10:57:10.802 +0000",1553597830.802145,-2.974317,-0.834154,0.857954,-0.111853,0.740729,0.662427,0.000000,0.000000,0.000000,-1,0.105457,-0.513192,0.146792,-0.099207,0.110132,0.509829
"2019-03-26 10:57:10.824 +0000",1553597830.824454,-3.014147,-0.830444,0.857441,-0.085736,0.738231,0.669077,0.000000,0.000000,0.000000,-1,-0.350895,-2.360807,-0.101239,-0.283435,0.538167,0.733419
"2019-03-26 10:57:10.847 +0000",1553597830.846760,-3.054568,-0.814028,0.864331,-0.059674,0.727059,0.683977,0.000000,0.000000,0.000000,-1,-0.898474,-1.536788,-0.407758,-0.174884,0.657264,0.302580
"2019-03-26 10:57:10.869 +0000",1553597830.869052,-3.050943,-0.794139,0.883293,-0.063450,0.713260,0.698021,0.000000,0.000000,0.000000,-1,-0.685656,0.220884,-0.806596,-0.213574,0.513577,0.255470
"2019-03-26 10:57:10.891 +0000",1553597830.891346,-3.027428,-0.780632,0.904581,-0.080934,0.703729,0.705844,0.000000,0.000000,0.000000,-1,-0.772538,-0.064720,-0.532420,-0.042128,0.419226,0.547986
"2019-03-26 10:57:10.914 +0000",1553597830.913655,-3.037463,-0.744579,0.910806,-0.076436,0.677662,0.731390,0.000000,0.000000,0.000000,-1,-1.644899,0.244109,-0.421405,0.022008,0.195888,0.488184
"2019-03-26 10:57:10.936 +0000",1553597830.935946,-2.965271,-0.745849,0.904103,-0.128840,0.678596,0.723124,0.000000,0.000000,0.000000,-1,0.756041,4.568597,1.034848,-0.125631,0.078011,0.714758
"2019-03-26 10:57:10.958 +0000",1553597830.958271,-2.955310,-0.732140,0.857083,-0.137747,0.668463,0.730878,0.000000,0.000000,0.000000,-1,-1.661883,-1.256563,1.203371,-0.213373,0.485956,-0.203687
"2019-03-26 10:57:10.981 +0000",1553597830.980564,-3.016910,-0.737610,0.828941,-0.092036,0.672521,0.734333,0.000000,0.000000,0.000000,-1,1.213781,-1.179607,0.747401,0.689769,1.230677,-1.179066
"2019-03-26 10:57:11.003 +0000",1553597831.002856,-3.006822,-0.769712,0.820684,-0.096487,0.695929,0.711599,0.000000,0.000000,0.000000,-1,1.223925,1.774645,0.277068,0.508276,1.608850,-0.145376
"2019-03-26 10:57:11.025 +0000",1553597831.025163,-2.919902,-0.807540,0.827339,-0.151997,0.722589,0.674361,0.000000,0.000000,0.000000,-1,2.108092,4.684727,0.059331,0.055592,-0.251260,-0.976439
"2019-03-26 10:57:11.047 +0000",1553597831.047472,-2.806908,-0.854756,0.837888,-0.215610,0.754411,0.619982,0.000000,0.000000,0.000000,-1,2.022742,4.374799,0.405675,0.236606,-0.138200,0.017637
"2019-03-26 10:57:11.070 +0000",1553597831.069750,-2.722971,-0.904305,0.853871,-0.251312,0.785996,0.564848,0.000000,0.000000,0.000000,-1,2.468937,2.539266,0.320436,0.245224,0.125335,-0.981794
"2019-03-26 10:57:11.092 +0000",1553597831.092070,-2.648498,-0.958320,0.896501,-0.272129,0.818227,0.506409,0.000000,0.000000,0.000000,-1,2.677143,1.446524,-0.115129,-0.191341,0.544322,-0.319703
"2019-03-26 10:57:11.114 +0000",1553597831.114365,-2.575623,-1.002712,0.944531,-0.288504,0.842933,0.454125,0.000000,0.000000,0.000000,-1,2.100261,1.636900,0.189347,-0.360651,0.450143,-0.289727
"2019-03-26 10:57:11.137 +0000",1553597831.136672,-2.520678,-1.047368,0.969891,-0.290804,0.866110,0.406553,0.000000,0.000000,0.000000,-1,1.962065,1.271433,0.812802,-0.372679,0.134317,-0.374846
"2019-03-26 10:57:11.159 +0000",1553597831.158962,-2.484238,-1.091101,0.994563,-0.281993,0.887136,0.365335,0.000000,0.000000,0.000000,-1,1.832789,0.270649,0.654158,0.340388,-0.520116,-0.416742
"2019-03-26 10:57:11.181 +0000",1553597831.181258,-2.458235,-1.129349,1.021323,-0.269765,0.904134,0.331313,0.000000,0.000000,0.000000,-1,1.613023,0.251874,0.594684,0.328435,-0.420538,-0.404967
"2019-03-26 10:57:11.204 +0000",1553597831.203566,-2.406568,-1.159664,1.058823,-0.268006,0.916669,0.296464,0.000000,0.000000,0.000000,-1,1.297570,1.069913,0.306925,0.186662,-0.050015,-0.324663
"2019-03-26 10:57:11.226 +0000",1553597831.225874,-2.350746,-1.181576,1.083688,-0.269782,0.925205,0.266858,0.000000,0.000000,0.000000,-1,0.895739,1.600367,0.417415,0.013053,-0.009892,-0.099530
"2019-03-26 10:57:11.248 +0000",1553597831.248182,-2.291031,-1.204524,1.107557,-0.269194,0.933669,0.236214,0.000000,0.000000,0.000000,-1,1.172086,1.711497,0.494701,0.156218,-0.140715,0.066048
"2019-03-26 10:57:11.270 +0000",1553597831.270459,-2.213381,-1.234310,1.161785,-0.264319,0.943921,0.197861,0.000000,0.000000,0.000000,-1,1.609433,0.806477,0.543860,0.207206,-0.285565,-0.110031
"2019-03-26 10:57:11.293 +0000",1553597831.292768,-2.130255,-1.267284,1.232971,-0.253308,0.954293,0.158620,0.000000,0.000000,0.000000,-1,1.680219,0.746837,0.705782,0.037274,-0.331246,-0.203909
"2019-03-26 10:57:11.315 +0000",1553597831.315075,-2.031451,-1.298820,1.319776,-0.240633,0.963242,0.119418,0.000000,0.000000,0.000000,-1,1.582160,0.617504,0.673393,-0.084501,-0.265518,-0.044925
"2019-03-26 10:57:11.337 +0000",1553597831.337383,-1.931120,-1.323884,1.407392,-0.228715,0.969672,0.086174,0.000000,0.000000,0.000000,-1,1.262143,0.818834,0.600758,-0.148986,-0.163855,0.044731
"2019-03-26 10:57:11.360 +0000",1553597831.359690,-1.835288,-1.345710,1.484022,-0.215429,0.974775,0.058346,0.000000,0.000000,0.000000,-1,0.939249,0.997643,0.749138,-0.237788,-0.009504,0.055759
"2019-03-26 10:57:11.382 +0000",1553597831.381979,-1.747970,-1.365103,1.551755,-0.201049,0.978920,0.035998,0.000000,0.000000,0.000000,-1,0.789369,0.864229,0.621242,-0.118333,0.212029,0.196790
"2019-03-26 10:57:11.404 +0000",1553597831.404276,-1.652130,-1.375070,1.636649,-0.193836,0.980907,0.015800,0.000000,0.000000,0.000000,-1,0.795999,0.371682,0.176541,-0.163784,0.251454,0.131859
"2019-03-26 10:57:11.427 +0000",1553597831.426584,-1.595166,-1.374819,1.691355,-0.194667,0.980858,0.004745,0.000000,0.000000,0.000000,-1,0.197496,0.173374,-0.142015,-0.474706,0.222038,0.123719
"2019-03-26 10:57:11.449 +0000",1553597831.448892,-1.634121,-1.367313,1.643307,-0.201677,0.979369,0.012788,0.000000,0.000000,0.000000,-1,-0.814671,0.393128,-0.464459,-0.526793,0.091646,0.183424
"2019-03-26 10:57:11.471 +0000",1553597831.471170,-1.756687,-1.343518,1.514065,-0.221445,0.974283,0.041645,0.000000,0.000000,0.000000,-1,-1.665948,-0.111971,-1.198461,-0.120199,0.344885,0.476192
"2019-03-26 10:57:11.493 +0000",1553597831.493477,-1.919964,-1.297965,1.372552,-0.253200,0.963012,0.092186,0.000000,0.000000,0.000000,-1,-2.262319,-1.832537,-1.661052,-0.091328,0.454255,0.141807
"2019-03-26 10:57:11.516 +0000",1553597831.515785,-2.094886,-1.236611,1.236038,-0.283976,0.944678,0.164139,0.000000,0.000000,0.000000,-1,-3.171749,-1.765334,-1.679406,-0.227285,0.205957,-0.359818
"2019-03-26 10:57:11.538 +0000",1553597831.538093,-2.208171,-1.174364,1.136471,-0.310318,0.922444,0.229781,0.000000,0.000000,0.000000,-1,-2.430485,-0.262881,-1.330187,-0.132645,0.427806,-0.466811
"2019-03-26 10:57:11.560 +0000",1553597831.560370,-2.275352,-1.125077,1.063980,-0.328460,0.902301,0.279226,0.000000,0.000000,0.000000,-1,-2.658674,-0.454744,-0.657449,0.682830,0.717481,-0.317602
"2019-03-26 10:57:11.583 +0000",1553597831.582678,-2.386908,-1.073678,0.975209,-0.326701,0.878961,0.347411,0.000000,0.000000,0.000000,-1,-2.926674,-1.753881,-0.333416,0.560389,0.667945,-0.853744
"2019-03-26 10:57:11.605 +0000",1553597831.604969,-2.481284,-1.021948,0.893382,-0.319993,0.853126,0.412044,0.000000,0.000000,0.000000,-1,-2.977999,-0.488879,0.094485,0.080568,0.817925,-0.198833
"2019-03-26 10:57:11.627 +0000",1553597831.627294,-2.547539,-0.970480,0.806162,-0.316190,0.825157,0.468123,0.000000,0.000000,0.000000,-1,-3.192796,0.679778,0.438814,0.029234,0.915688,-0.207305
"2019-03-26 10:57:11.650 +0000",1553597831.649602,-2.587144,-0.916210,0.737793,-0.320534,0.793300,0.517623,0.000000,0.000000,0.000000,-1,-2.690655,0.456712,-0.040321,0.163261,0.914143,-0.275023
"2019-03-26 10:57:11.672 +0000",1553597831.671879,-2.640466,-0.871237,0.706673,-0.309329,0.765126,0.564710,0.000000,0.000000,0.000000,-1,-2.167123,-2.280277,-0.387964,0.250202,0.670589,-0.261091
"2019-03-26 10:57:11.694 +0000",1553597831.694187,-2.732198,-0.821803,0.684286,-0.271036,0.732375,0.624633,0.000000,0.000000,0.000000,-1,-2.264694,-3.922443,-0.353580,0.003366,0.274934,-0.962295
"2019-03-26 10:57:11.716 +0000",1553597831.716495,-2.818098,-0.788364,0.681053,-0.224109,0.709201,0.668438,0.000000,0.000000,0.000000,-1,-1.988911,-3.867180,-0.413502,-0.165555,0.050748,-1.013302
"2019-03-26 10:57:11.739 +0000",1553597831.738803,-2.894870,-0.748860,0.677475,-0.178888,0.680804,0.710285,0.000000,0.000000,0.000000,-1,-1.566426,-2.961225,-0.314677,-0.125754,-0.136569,-0.998356
"2019-03-26 10:57:11.761 +0000",1553597831.761081,-2.954405,-0.724968,0.680248,-0.139297,0.663111,0.735445,0.000000,0.000000,0.000000,-1,-0.650868,-2.806047,-0.369005,0.068069,-0.311030,-0.800967
"2019-03-26 10:57:11.783 +0000",1553597831.783388,-3.012680,-0.724863,0.692308,-0.096236,0.663033,0.742379,0.000000,0.000000,0.000000,-1,0.525231,-2.944920,-0.462790,0.076567,-0.492897,-0.750069
"2019-03-26 10:57:11.806 +0000",1553597831.805682,-3.055004,-0.750679,0.714283,-0.063237,0.682135,0.728487,0.000000,0.000000,0.000000,-1,1.573495,-2.263763,-0.668115,0.099736,-0.464346,-0.996416
"2019-03-26 10:57:11.828 +0000",1553597831.828009,-3.069390,-0.790305,0.741503,-0.050759,0.710568,0.701795,0.000000,0.000000,0.000000,-1,1.916326,-0.979795,-0.787292,0.265496,-0.510129,-0.880674
"2019-03-26 10:57:11.850 +0000",1553597831.850282,-3.053715,-0.829381,0.773551,-0.059270,0.737513,0.672727,0.000000,0.000000,0.000000,-1,1.702131,-0.115365,-0.859565,0.307226,-0.523463,-0.738935
"2019-03-26 10:57:11.873 +0000",1553597831.872591,-3.029274,-0.853472,0.799786,-0.073680,0.753567,0.653229,0.000000,0.000000,0.000000,-1,0.661680,0.439215,-0.484088,0.291972,-0.401867,-0.386551
"2019-03-26 10:57:11.895 +0000",1553597831.894897,-3.020574,-0.853523,0.797598,-0.079356,0.753601,0.652524,0.000000,0.000000,0.000000,-1,-0.398993,0.237546,0.288864,-0.042104,0.133575,0.200961
"2019-03-26 10:57:11.917 +0000",1553597831.917260,-3.048782,-0.840824,0.790873,-0.061802,0.745193,0.663979,0.000000,0.000000,0.000000,-1,-0.566235,-1.863804,-0.074641,-0.402096,0.626832,0.750816
"2019-03-26 10:57:11.940 +0000",1553597831.939514,-3.088200,-0.827788,0.796735,-0.036103,0.736437,0.675542,0.000000,0.000000,0.000000,-1,-0.629659,-1.627234,-0.287660,-0.185927,0.781920,0.565379
"2019-03-26 10:57:11.962 +0000",1553597831.961792,-3.087500,-0.812011,0.809844,-0.037200,0.725673,0.687034,0.000000,0.000000,0.000000,-1,-0.656860,0.342558,-0.522252,0.050032,0.544118,0.448327
"2019-03-26 10:57:11.984 +0000",1553597831.984098,-3.065468,-0.792722,0.823191,-0.053381,0.712266,0.699876,0.000000,0.000000,0.000000,-1,-1.233135,0.298744,-0.337269,0.084677,0.234999,0.476241
"2019-03-26 10:57:12.006 +0000",1553597832.006389,-3.065960,-0.753758,0.824383,-0.055093,0.684384,0.727037,0.000000,0.000000,0.000000,-1,-1.570681,0.369742,-0.072568,0.086816,0.088565,0.257246
"2019-03-26 10:57:12.029 +0000",1553597832.028715,-3.059100,-0.739760,0.801557,-0.060863,0.674111,0.736119,0.000000,0.000000,0.000000,-1,-0.406696,1.071985,1.028260,0.092128,0.128044,0.413082
"2019-03-26 10:57:12.051 +0000",1553597832.051018,-3.062596,-0.730990,0.778681,-0.058753,0.667607,0.742192,0.000000,0.000000,0.000000,-1,-0.044415,0.186872,0.506561,0.546149,1.014171,-0.588033
"2019-03-26 10:57:12.073 +0000",1553597832.073300,-3.055503,-0.762451,0.770954,-0.062178,0.690696,0.720467,0.000000,0.000000,0.000000,-1,1.820409,0.688870,0.326747,0.302352,0.929391,-0.530144
"2019-03-26 10:57:12.096 +0000",1553597832.095608,-3.034554,-0.798470,0.769879,-0.074549,0.716289,0.693810,0.000000,0.000000,0.000000,-1,1.606751,1.499758,0.087476,-0.224858,0.364476,-0.958489
"2019-03-26 10:57:12.118 +0000",1553597832.117910,-2.960661,-0.841397,0.780381,-0.119920,0.745575,0.655543,0.000000,0.000000,0.000000,-1,2.037754,3.543854,-0.069425,0.120194,-0.282288,-0.590297
"2019-03-26 10:57:12.140 +0000",1553597832.140223,-2.870240,-0.892784,0.803603,-0.168124,0.778821,0.604294,0.000000,0.000000,0.000000,-1,2.049688,2.708541,-0.083094,-0.210676,0.191439,-0.574509
"2019-03-26 10:57:12.163 +0000",1553597832.162501,-2.797789,-0.937770,0.836257,-0.199407,0.806241,0.556967,0.000000,0.000000,0.000000,-1,2.290438,1.712824,-0.244106,-0.118373,0.412494,-0.822180
"2019-03-26 10:57:12.185 +0000",1553597832.184808,-2.739023,-0.986303,0.869895,-0.216177,0.833992,0.507667,0.000000,0.000000,0.000000,-1,2.283032,1.408013,0.144404,0.001318,0.515084,-0.347709
"2019-03-26 10:57:12.207 +0000",1553597832.207108,-2.673278,-1.032293,0.895230,-0.231493,0.858477,0.457633,0.000000,0.000000,0.000000,-1,2.061630,2.344004,0.446136,0.066270,-0.111925,-0.352104
"2019-03-26 10:57:12.229 +0000",1553597832.229425,-2.604329,-1.081602,0.912438,-0.240497,0.882712,0.403710,0.000000,0.000000,0.000000,-1,2.144543,2.258062,0.799248,0.108356,-0.246710,-0.205590
"2019-03-26 10:57:12.252 +0000",1553597832.251727,-2.554493,-1.128049,0.940371,-0.237325,0.903578,0.356685,0.000000,0.000000,0.000000,-1,1.977845,0.191648,0.563209,0.180959,-0.366713,-0.169444
"2019-03-26 10:57:12.274 +0000",1553597832.274005,-2.539071,-1.168266,0.974086,-0.222012,0.920073,0.322764,0.000000,0.000000,0.000000,-1,1.793355,-0.789511,0.395682,-0.040256,0.076082,-0.512416
"2019-03-26 10:57:12.296 +0000",1553597832.296319,-2.496998,-1.201071,1.022677,-0.217131,0.932427,0.288850,0.000000,0.000000,0.000000,-1,1.537260,0.369519,0.168273,-0.085725,0.072014,-0.396928
"2019-03-26 10:57:12.319 +0000",1553597832.318626,-2.438587,-1.227907,1.057150,-0.217364,0.941787,0.256496,0.000000,0.000000,0.000000,-1,1.151457,1.506976,0.416043,-0.083981,-0.044723,0.042485
"2019-03-26 10:57:12.341 +0000",1553597832.340909,-2.383904,-1.254483,1.076776,-0.213778,0.950389,0.225966,0.000000,0.000000,0.000000,-1,1.129819,1.630794,0.625827,0.263857,-0.260188,0.027422
"2019-03-26 10:57:12.363 +0000",1553597832.363210,-2.301232,-1.288369,1.129718,-0.207590,0.960382,0.185939,0.000000,0.000000,0.000000,-1,1.834369,1.218885,0.598771,0.223901,-0.346307,-0.064479
"2019-03-26 10:57:12.386 +0000",1553597832.385520,-2.177683,-1.330535,1.240489,-0.195464,0.971276,0.135709,0.000000,0.000000,0.000000,-1,2.293596,0.453318,0.760831,-0.021562,-0.322960,-0.252378
"2019-03-26 10:57:12.408 +0000",1553597832.407827,-2.035851,-1.370542,1.382355,-0.177792,0.980016,0.089209,0.000000,0.000000,0.000000,-1,1.897271,0.124958,0.828084,-0.185535,-0.179265,-0.369757
"2019-03-26 10:57:12.430 +0000",1553597832.430113,-1.899881,-1.397760,1.508383,-0.162935,0.985066,0.055643,0.000000,0.000000,0.000000,-1,1.159436,0.895189,0.629888,0.005556,0.045588,0.253622
"2019-03-26 10:57:12.452 +0000",1553597832.452412,-1.785829,-1.414287,1.592301,-0.152281,0.987777,0.033260,0.000000,0.000000,0.000000,-1,0.615056,1.615368,0.510373,-0.020738,0.108475,0.335042
"2019-03-26 10:57:12.475 +0000",1553597832.474720,-1.678602,-1.425313,1.667600,-0.144129,0.989436,0.015598,0.000000,0.000000,0.000000,-1,0.621520,1.186549,0.321898,-0.055196,0.200887,0.403149
"2019-03-26 10:57:12.497 +0000",1553597832.497027,-1.572591,-1.429624,1.763195,-0.140703,0.990052,0.000253,0.000000,0.000000,0.000000,-1,0.592148,0.257919,0.042323,-0.416441,0.198257,-0.074593
"2019-03-26 10:57:12.519 +0000",1553597832.519336,-1.507135,-1.425094,1.821168,-0.144893,0.989404,-0.009237,0.000000,0.000000,0.000000,-1,0.188258,0.453268,-0.295770,-0.551960,0.176993,0.010976
"2019-03-26 10:57:12.542 +0000",1553597832.541614,-1.555778,-1.417299,1.763896,-0.152879,0.988242,-0.002296,0.000000,0.000000,0.000000,-1,-0.734302,0.255598,-0.413503,-0.636138,0.141885,0.273094
"2019-03-26 10:57:12.564 +0000",1553597832.563929,-1.727896,-1.399479,1.589165,-0.168381,0.985361,0.026672,0.000000,0.000000,0.000000,-1,-1.628685,-0.122142,-0.973738,-0.141174,0.329687,0.298859
"2019-03-26 10:57:12.586 +0000",1553597832.586230,-1.920616,-1.355572,1.408130,-0.200632,0.976929,0.073195,0.000000,0.000000,0.000000,-1,-2.234615,-1.266882,-1.724288,-0.165823,0.353531,0.105149
"2019-03-26 10:57:12.609 +0000",1553597832.608537,-2.114545,-1.291126,1.260641,-0.236227,0.961147,0.142808,0.000000,0.000000,0.000000,-1,-2.992767,-2.581842,-1.939959,-0.419367,0.182988,-0.368135
"2019-03-26 10:57:12.631 +0000",1553597832.630814,-2.251806,-1.221755,1.155765,-0.265710,0.939701,0.215313,0.000000,0.000000,0.000000,-1,-2.726649,-0.831022,-1.570819,0.148599,0.679226,-0.290661
"2019-03-26 10:57:12.653 +0000",1553597832.653130,-2.300222,-1.168508,1.103426,-0.291905,0.920167,0.260928,0.000000,0.000000,0.000000,-1,-2.144359,-0.107738,-1.010063,0.702961,0.581893,-0.575321
"2019-03-26 10:57:12.675 +0000",1553597832.675431,-2.405110,-1.116111,1.024041,-0.294991,0.898399,0.325360,0.000000,0.000000,0.000000,-1,-2.936182,-2.202023,-0.431087,0.518868,0.621819,-0.901212
"2019-03-26 10:57:12.698 +0000",1553597832.697739,-2.525911,-1.063090,0.940371,-0.280773,0.873862,0.396903,0.000000,0.000000,0.000000,-1,-2.946224,-1.613255,0.083469,0.344372,0.693033,-0.738334
"2019-03-26 10:57:12.720 +0000",1553597832.720047,-2.608734,-1.008993,0.848653,-0.270617,0.846296,0.458857,0.000000,0.000000,0.000000,-1,-3.291252,0.620138,0.610574,0.202044,0.770068,-0.211650
"2019-03-26 10:57:12.742 +0000",1553597832.742324,-2.648481,-0.951343,0.775933,-0.274833,0.814196,0.511421,0.000000,0.000000,0.000000,-1,-2.819678,0.728548,-0.037748,0.249565,0.782636,-0.267006
"2019-03-26 10:57:12.765 +0000",1553597832.764632,-2.689372,-0.900663,0.750231,-0.271395,0.783739,0.558658,0.000000,0.000000,0.000000,-1,-2.280470,-1.764388,-0.581075,0.213426,0.672270,-0.265903
"2019-03-26 10:57:12.787 +0000",1553597832.786916,-2.763567,-0.846565,0.733825,-0.244542,0.749009,0.615780,0.000000,0.000000,0.000000,-1,-2.484054,-3.306448,-0.414887,-0.012539,0.316985,-1.062740
"2019-03-26 10:57:12.809 +0000",1553597832.809248,-2.855757,-0.805265,0.720965,-0.195375,0.721014,0.664806,0.000000,0.000000,0.000000,-1,-2.237700,-3.924246,-0.193441,-0.053908,0.231561,-1.021053
"2019-03-26 10:57:12.832 +0000",1553597832.831524,-2.934596,-0.765245,0.712202,-0.148225,0.692714,0.705817,0.000000,0.000000,0.000000,-1,-1.613093,-2.644317,-0.115216,0.013184,-0.138240,-1.034384
"2019-03-26 10:57:12.854 +0000",1553597832.853832,-2.982821,-0.739997,0.706090,-0.116757,0.674286,0.729182,0.000000,0.000000,0.000000,-1,-0.763009,-2.051793,0.003943,0.072201,-0.364471,-0.826259
"2019-03-26 10:57:12.876 +0000",1553597832.876141,-3.047904,-0.741487,0.706531,-0.068991,0.675385,0.734231,0.000000,0.000000,0.000000,-1,0.599281,-3.241127,-0.086641,0.001120,-0.562226,-0.555154
"2019-03-26 10:57:12.898 +0000",1553597832.898449,-3.110068,-0.768386,0.715173,-0.022664,0.694976,0.718676,0.000000,0.000000,0.000000,-1,1.510751,-2.760479,-0.275357,-0.102184,-0.534865,-0.971621
"2019-03-26 10:57:12.921 +0000",1553597832.920726,-3.136762,-0.808531,0.729274,-0.003336,0.723274,0.690553,0.000000,0.000000,0.000000,-1,1.911139,-0.810312,-0.541846,0.009546,-0.575950,-0.984483
"2019-03-26 10:57:12.943 +0000",1553597832.943033,-3.105098,-0.846859,0.755902,-0.024167,0.749204,0.661899,0.000000,0.000000,0.000000,-1,1.488279,1.093647,-0.897595,0.259152,-0.478787,-0.480823
"2019-03-26 10:57:12.965 +0000",1553597832.965342,-3.057104,-0.863296,0.785072,-0.054847,0.759989,0.647618,0.000000,0.000000,0.000000,-1,0.419625,1.132539,-0.584541,0.249350,-0.372934,-0.175664
"2019-03-26 10:57:12.988 +0000",1553597832.987650,-3.040608,-0.864065,0.785929,-0.065463,0.760488,0.646043,0.000000,0.000000,0.000000,-1,-0.202603,0.346565,0.145404,0.056308,-0.015203,0.383299
"2019-03-26 10:57:13.010 +0000",1553597833.009928,-3.063243,-0.851862,0.781408,-0.051547,0.752508,0.656563,0.000000,0.000000,0.000000,-1,-0.781601,-1.670488,-0.005653,-0.177152,0.635615,0.572563
"2019-03-26 10:57:13.032 +0000",1553597833.032235,-3.103540,-0.830586,0.787669,-0.025658,0.738327,0.673955,0.000000,0.000000,0.000000,-1,-0.972591,-1.733536,-0.383540,-0.200233,0.592179,0.355662
"2019-03-26 10:57:13.055 +0000",1553597833.054554,-3.097997,-0.816239,0.806483,-0.029852,0.728575,0.684315,0.000000,0.000000,0.000000,-1,-0.327659,0.500666,-0.710750,-0.227350,0.385759,0.281001
"2019-03-26 10:57:13.077 +0000",1553597833.076852,-3.066637,-0.805638,0.826711,-0.051870,0.721273,0.690706,0.000000,0.000000,0.000000,-1,-0.858491,0.415344,-0.448466,-0.191081,0.352793,0.487288
"2019-03-26 10:57:13.099 +0000",1553597833.099159,-3.064119,-0.767922,0.829977,-0.055675,0.694642,0.717198,0.000000,0.000000,0.000000,-1,-1.743040,0.204486,-0.162889,0.152813,0.137618,0.204265
"2019-03-26 10:57:13.121 +0000",1553597833.121437,-3.029930,-0.755613,0.822617,-0.081105,0.685735,0.723319,0.000000,0.000000,0.000000,-1,0.046984,2.733975,0.352578,0.211141,-0.064549,0.403802
"2019-03-26 10:57:13.144 +0000",1553597833.143744,-2.999267,-0.760909,0.817375,-0.102726,0.689580,0.716887,0.000000,0.000000,0.000000,-1,0.531533,0.025110,0.283791,0.260517,1.020656,0.275880
"2019-03-26 10:57:13.166 +0000",1553597833.166061,-3.036064,-0.789197,0.800569,-0.074198,0.709788,0.700497,0.000000,0.000000,0.000000,-1,1.198986,-1.261652,0.842578,-0.135549,0.514501,-1.183880
"2019-03-26 10:57:13.188 +0000",1553597833.188360,-3.039849,-0.816875,0.785915,-0.069524,0.729010,0.680963,0.000000,0.000000,0.000000,-1,1.564123,1.868562,0.346024,0.183019,-0.020636,-1.348016
"2019-03-26 10:57:13.211 +0000",1553597833.210668,-2.938526,-0.868449,0.788983,-0.130283,0.763328,0.632737,0.000000,0.000000,0.000000,-1,2.436955,5.282589,0.339663,0.481693,-0.499580,-0.570527
"2019-03-26 10:57:13.233 +0000",1553597833.232930,-2.833392,-0.911444,0.801720,-0.185830,0.790389,0.583739,0.000000,0.000000,0.000000,-1,1.754953,3.147375,-0.135411,-0.092337,0.308945,-1.140258
"2019-03-26 10:57:13.255 +0000",1553597833.255253,-2.771518,-0.952363,0.841260,-0.209690,0.814788,0.540510,0.000000,0.000000,0.000000,-1,2.307676,0.710686,-0.449731,-0.066784,0.789491,-0.449354
"2019-03-26 10:57:13.278 +0000",1553597833.277561,-2.711283,-0.996254,0.882690,-0.226701,0.839441,0.493907,0.000000,0.000000,0.000000,-1,2.083148,1.561224,0.022712,-0.228957,0.813757,-0.211589
"2019-03-26 10:57:13.300 +0000",1553597833.299869,-2.648909,-1.040956,0.902593,-0.239048,0.862888,0.445287,0.000000,0.000000,0.000000,-1,2.075045,2.139624,0.724758,-0.268597,0.200314,-0.293920
"2019-03-26 10:57:13.322 +0000",1553597833.322146,-2.597511,-1.091308,0.923644,-0.238797,0.887231,0.394712,0.000000,0.000000,0.000000,-1,2.145470,0.791263,0.688376,0.101010,-0.303750,-0.121808
"2019-03-26 10:57:13.344 +0000",1553597833.344455,-2.590067,-1.136616,0.943869,-0.220424,0.907215,0.358293,0.000000,0.000000,0.000000,-1,1.823430,-0.962815,0.755911,0.245097,-0.357075,-0.432435
"2019-03-26 10:57:13.367 +0000",1553597833.366763,-2.579063,-1.176992,0.971379,-0.204640,0.923456,0.324579,0.000000,0.000000,0.000000,-1,1.779726,-0.199173,0.368267,0.025456,-0.104532,-0.539789
"2019-03-26 10:57:13.389 +0000",1553597833.389072,-2.535489,-1.210336,1.004189,-0.200925,0.935735,0.289879,0.000000,0.000000,0.000000,-1,1.414325,0.998888,0.379806,-0.110873,-0.091680,-0.048179
"2019-03-26 10:57:13.411 +0000",1553597833.411347,-2.480302,-1.238553,1.032528,-0.200309,0.945313,0.257409,0.000000,0.000000,0.000000,-1,1.190383,1.403808,0.455510,-0.133034,-0.103104,0.099906
"2019-03-26 10:57:13.434 +0000",1553597833.433655,-2.417270,-1.268533,1.064812,-0.197253,0.954665,0.222948,0.000000,0.000000,0.000000,-1,1.512969,1.342683,0.519459,0.147814,-0.228652,0.068189
"2019-03-26 10:57:13.456 +0000",1553597833.455959,-2.329177,-1.307031,1.135580,-0.189268,0.965415,0.179307,0.000000,0.000000,0.000000,-1,2.019564,0.657994,0.595224,0.029798,-0.325629,-0.304674
"2019-03-26 10:57:13.478 +0000",1553597833.478265,-2.215324,-1.348209,1.242078,-0.176467,0.975330,0.132633,0.000000,0.000000,0.000000,-1,2.031205,0.412460,0.722703,-0.045594,-0.299243,-0.334080
"2019-03-26 10:57:13.501 +0000",1553597833.500578,-2.095785,-1.386224,1.354963,-0.158811,0.983015,0.091984,0.000000,0.000000,0.000000,-1,1.596738,0.440071,0.912074,-0.056583,-0.234846,-0.149433
"2019-03-26 10:57:13.523 +0000",1553597833.522857,-1.984014,-1.417105,1.448850,-0.140202,0.988213,0.061473,0.000000,0.000000,0.000000,-1,1.090431,1.241823,0.887373,0.000889,-0.191551,0.170155
"2019-03-26 10:57:13.545 +0000",1553597833.545165,-1.857164,-1.439945,1.541858,-0.125165,0.991451,0.036856,0.000000,0.000000,0.000000,-1,0.811196,1.513894,0.652857,-0.003833,0.199131,0.286294
"2019-03-26 10:57:13.567 +0000",1553597833.567472,-1.714305,-1.451618,1.661060,-0.117674,0.992907,0.017004,0.000000,0.000000,0.000000,-1,0.741145,0.928955,0.182892,-0.112581,0.257917,0.158426
"2019-03-26 10:57:13.590 +0000",1553597833.589781,-1.568249,-1.450817,1.790930,-0.119692,0.992811,-0.000305,0.000000,0.000000,0.000000,-1,0.681699,0.615020,-0.192711,-0.340833,0.315844,-0.004334
"2019-03-26 10:57:13.612 +0000",1553597833.612057,-1.470047,-1.445274,1.881208,-0.124558,0.992132,-0.012592,0.000000,0.000000,0.000000,-1,0.302589,0.283882,-0.209783,-0.738372,0.213922,0.229129
"2019-03-26 10:57:13.634 +0000",1553597833.634365,-1.511361,-1.440666,1.836091,-0.129535,0.991545,-0.007708,0.000000,0.000000,0.000000,-1,-0.562221,0.092430,-0.316381,-0.626844,0.122545,0.292513
"2019-03-26 10:57:13.657 +0000",1553597833.656673,-1.692604,-1.423700,1.658704,-0.145480,0.989201,0.017809,0.000000,0.000000,0.000000,-1,-1.471059,-0.480177,-1.005150,-0.258084,0.265194,0.436888
"2019-03-26 10:57:13.679 +0000",1553597833.678976,-1.927448,-1.381312,1.444867,-0.176500,0.982102,0.065761,0.000000,0.000000,0.000000,-1,-2.282203,-1.602402,-1.636895,-0.389952,0.240051,-0.118511
"2019-03-26 10:57:13.701 +0000",1553597833.701258,-2.137354,-1.320146,1.289888,-0.209280,0.968751,0.133128,0.000000,0.000000,0.000000,-1,-2.760672,-2.935719,-1.858487,-0.439936,0.071883,-0.609232
"2019-03-26 10:57:13.724 +0000",1553597833.723566,-2.283150,-1.252814,1.185833,-0.236622,0.949868,0.204353,0.000000,0.000000,0.000000,-1,-2.675332,-1.246587,-1.516168,-0.347698,0.191275,-0.734581
"2019-03-26 10:57:13.746 +0000",1553597833.745877,-2.344408,-1.198242,1.130800,-0.260399,0.931401,0.254332,0.000000,0.000000,0.000000,-1,-2.299024,-0.571590,-1.013377,0.149025,0.556255,-0.549437
"2019-03-26 10:57:13.768 +0000",1553597833.768163,-2.448704,-1.141961,1.058888,-0.265605,0.909451,0.319928,0.000000,0.000000,0.000000,-1,-2.863108,-2.076209,-0.669038,0.496211,0.690357,-0.798352
"2019-03-26 10:57:13.790 +0000",1553597833.790490,-2.542684,-1.084167,0.987124,-0.263633,0.883914,0.386256,0.000000,0.000000,0.000000,-1,-2.948334,-0.652667,-0.276054,0.415336,0.771466,-0.477748
"2019-03-26 10:57:13.813 +0000",1553597833.812768,-2.597760,-1.024995,0.907112,-0.268594,0.854712,0.444213,0.000000,0.000000,0.000000,-1,-3.328649,1.381399,0.244122,0.257623,0.826364,-0.311461
"2019-03-26 10:57:13.835 +0000",1553597833.835078,-2.614628,-0.966802,0.843284,-0.285621,0.823074,0.490887,0.000000,0.000000,0.000000,-1,-2.612140,1.385736,-0.303929,0.325721,0.790589,-0.295224
"2019-03-26 10:57:13.857 +0000",1553597833.857384,-2.648396,-0.917277,0.827046,-0.287847,0.793949,0.535527,0.000000,0.000000,0.000000,-1,-2.225843,-2.231972,-0.936580,0.285802,0.555889,-0.240071
"2019-03-26 10:57:13.880 +0000",1553597833.879690,-2.740735,-0.856156,0.807427,-0.255721,0.755329,0.603394,0.000000,0.000000,0.000000,-1,-2.910070,-4.085520,-0.466382,-0.049683,0.299160,-1.178529
"2019-03-26 10:57:13.902 +0000",1553597833.901981,-2.862657,-0.796665,0.780177,-0.192484,0.715029,0.672074,0.000000,0.000000,0.000000,-1,-2.562311,-4.651859,0.011441,-0.116782,-0.102098,-1.056855
"2019-03-26 10:57:13.924 +0000",1553597833.924277,-2.957853,-0.753023,0.765261,-0.133308,0.683847,0.717344,0.000000,0.000000,0.000000,-1,-1.714523,-3.008034,0.005896,-0.213936,-0.199167,-1.080869
"2019-03-26 10:57:13.947 +0000",1553597833.946585,-3.016605,-0.728303,0.759258,-0.093037,0.665604,0.740483,0.000000,0.000000,0.000000,-1,-0.713342,-2.465263,-0.033228,-0.130291,-0.302018,-0.827764
"2019-03-26 10:57:13.969 +0000",1553597833.968892,-3.082536,-0.727635,0.763076,-0.044075,0.665106,0.745448,0.000000,0.000000,0.000000,-1,0.378135,-3.234153,-0.163636,-0.033333,-0.393392,-0.539774
"2019-03-26 10:57:13.991 +0000",1553597833.991171,3.140561,-0.749600,0.769821,0.000755,0.681346,0.731961,0.000000,0.000000,0.000000,-1,1.324173,-2.616368,-0.203449,0.003838,-0.388636,-0.926709
"2019-03-26 10:57:14.013 +0000",1553597834.013478,3.106129,-0.786356,0.774610,0.025048,0.707783,0.705985,0.000000,0.000000,0.000000,-1,1.758034,-1.039096,-0.196175,0.076652,-0.479680,-0.846442
"2019-03-26 10:57:14.036 +0000",1553597834.035786,3.112659,-0.825134,0.781965,0.019628,0.734639,0.678175,0.000000,0.000000,0.000000,-1,1.654379,0.660264,-0.370093,0.269023,-0.489903,-0.782362
"2019-03-26 10:57:14.058 +0000",1553597834.058094,-3.128016,-0.853543,0.797985,-0.008924,0.753614,0.657257,0.000000,0.000000,0.000000,-1,0.973326,1.605405,-0.515234,0.259885,-0.381513,-0.324554
"2019-03-26 10:57:14.080 +0000",1553597834.080372,-3.099763,-0.868493,0.802825,-0.027013,0.763356,0.645412,0.000000,0.000000,0.000000,-1,0.531532,0.616482,0.201703,0.000737,-0.120794,0.131016
"2019-03-26 10:57:14.103 +0000",1553597834.102684,-3.116738,-0.871150,0.788550,-0.016004,0.765070,0.643748,0.000000,0.000000,0.000000,-1,-0.199785,-0.966041,0.459824,-0.324802,0.384069,0.648763
"2019-03-26 10:57:14.125 +0000",1553597834.124987,3.119598,-0.859143,0.779053,0.014363,0.757283,0.652929,0.000000,0.000000,0.000000,-1,-0.677263,-1.886542,0.104312,-0.049474,0.473171,0.333521
"2019-03-26 10:57:14.147 +0000",1553597834.147295,3.106963,-0.842811,0.788973,0.023037,0.746516,0.664968,0.000000,0.000000,0.000000,-1,-0.700958,-0.118565,-0.467154,-0.043850,0.460149,0.215418
"2019-03-26 10:57:14.170 +0000",1553597834.169603,-3.140287,-0.831897,0.811268,-0.000879,0.739210,0.673474,0.000000,0.000000,0.000000,-1,-0.443804,1.139189,-0.675454,-0.187537,0.431810,0.450061
"2019-03-26 10:57:14.192 +0000",1553597834.191882,-3.124782,-0.808228,0.818852,-0.011612,0.723064,0.690683,0.000000,0.000000,0.000000,-1,-1.534281,-0.010001,0.022780,-0.166504,0.285770,0.639624
"2019-03-26 10:57:14.214 +0000",1553597834.214190,-3.114663,-0.772500,0.802327,-0.019284,0.697928,0.715909,0.000000,0.000000,0.000000,-1,-1.469932,1.568753,0.772966,0.064602,-0.138708,0.275073
"2019-03-26 10:57:14.236 +0000",1553597834.236496,-3.104070,-0.752302,0.788217,-0.027389,0.683321,0.729604,0.000000,0.000000,0.000000,-1,-0.649672,0.286928,0.045334,0.345306,0.633970,0.236765
"2019-03-26 10:57:14.259 +0000",1553597834.258804,-3.112897,-0.773122,0.787909,-0.020536,0.698373,0.715439,0.000000,0.000000,0.000000,-1,1.852818,-0.229509,0.148993,0.292401,1.616553,-0.593781
"2019-03-26 10:57:14.281 +0000",1553597834.281089,-3.111117,-0.806466,0.779868,-0.021088,0.721846,0.691732,0.000000,0.000000,0.000000,-1,1.082403,0.616918,0.254038,-0.209808,0.334764,-1.027334
"2019-03-26 10:57:14.303 +0000",1553597834.303388,-3.050126,-0.847598,0.783431,-0.060447,0.749693,0.659020,0.000000,0.000000,0.000000,-1,2.577032,4.056772,-0.135543,0.217628,-0.646818,-1.258828
"2019-03-26 10:57:14.326 +0000",1553597834.325698,-2.939508,-0.907125,0.791627,-0.123641,0.787736,0.603478,0.000000,0.000000,0.000000,-1,2.280667,4.422590,0.334969,0.169463,-0.372849,-0.021172
"2019-03-26 10:57:14.348 +0000",1553597834.347997,-2.870332,-0.949641,0.801171,-0.155938,0.813206,0.560695,0.000000,0.000000,0.000000,-1,2.099559,1.601995,0.075845,-0.032203,0.474742,-1.063792
"2019-03-26 10:57:14.370 +0000",1553597834.370282,-2.828203,-1.003004,0.836571,-0.165787,0.843090,0.511580,0.000000,0.000000,0.000000,-1,2.589388,0.512446,-0.200839,-0.032501,0.739139,-0.437483
"2019-03-26 10:57:14.393 +0000",1553597834.392591,-2.770043,-1.049336,0.867161,-0.180857,0.867092,0.464157,0.000000,0.000000,0.000000,-1,1.999939,2.059963,0.177183,-0.262884,0.664295,-0.365249
"2019-03-26 10:57:14.415 +0000",1553597834.414899,-2.706440,-1.096142,0.879521,-0.192661,0.889451,0.414438,0.000000,0.000000,0.000000,-1,2.113939,2.272469,0.721184,-0.234784,0.001540,-0.322016
"2019-03-26 10:57:14.437 +0000",1553597834.437207,-2.666893,-1.143368,0.894909,-0.189471,0.910035,0.368697,0.000000,0.000000,0.000000,-1,1.940497,0.321124,0.657795,0.228213,-0.454117,-0.234176
"2019-03-26 10:57:14.460 +0000",1553597834.459514,-2.659427,-1.184806,0.913289,-0.174572,0.926426,0.333556,0.000000,0.000000,0.000000,-1,1.772038,-0.538583,0.402360,0.226376,-0.347996,-0.539275
"2019-03-26 10:57:14.482 +0000",1553597834.481791,-2.619087,-1.220917,0.954836,-0.171068,0.939414,0.297047,0.000000,0.000000,0.000000,-1,1.644094,0.682113,0.196705,0.031846,-0.042212,-0.524770
"2019-03-26 10:57:14.504 +0000",1553597834.504108,-2.554706,-1.250787,0.986117,-0.174203,0.949233,0.261937,0.000000,0.000000,0.000000,-1,1.260831,1.836814,0.449285,-0.133079,-0.158537,0.068248
"2019-03-26 10:57:14.526 +0000",1553597834.526407,-2.500864,-1.280530,0.997190,-0.171089,0.958168,0.229441,0.000000,0.000000,0.000000,-1,1.238045,1.899263,0.695589,0.120811,-0.247383,0.225637
"2019-03-26 10:57:14.549 +0000",1553597834.548715,-2.429872,-1.317326,1.038321,-0.163784,0.968048,0.189889,0.000000,0.000000,0.000000,-1,1.810310,1.033118,0.603039,0.196499,-0.389496,0.006705
"2019-03-26 10:57:14.571 +0000",1553597834.570996,-2.328800,-1.358381,1.130162,-0.153101,0.977525,0.144934,0.000000,0.000000,0.000000,-1,1.997857,0.272882,0.582575,-0.306296,-0.131806,-0.382224
"2019-03-26 10:57:14.593 +0000",1553597834.593315,-2.223470,-1.393754,1.236893,-0.139920,0.984369,0.106959,0.000000,0.000000,0.000000,-1,1.499808,-0.010150,0.612166,-0.330447,-0.093561,-0.280894
"2019-03-26 10:57:14.616 +0000",1553597834.615609,-2.127777,-1.418462,1.323299,-0.128810,0.988420,0.080217,0.000000,0.000000,0.000000,-1,0.986860,0.861323,0.485119,-0.125111,-0.059831,0.063750
"2019-03-26 10:57:14.638 +0000",1553597834.637917,-2.026898,-1.434461,1.395624,-0.122019,0.990721,0.059863,0.000000,0.000000,0.000000,-1,0.618130,1.472202,0.393941,0.012202,-0.004118,0.262021
"2019-03-26 10:57:14.660 +0000",1553597834.660194,-1.937340,-1.447488,1.452570,-0.114826,0.992407,0.044081,0.000000,0.000000,0.000000,-1,0.545248,1.389682,0.376034,-0.049694,0.135294,0.127001
"2019-03-26 10:57:14.683 +0000",1553597834.682502,-1.822985,-1.456067,1.546787,-0.110857,0.993426,0.028565,0.000000,0.000000,0.000000,-1,0.591285,0.641940,0.102329,-0.132399,0.242017,0.076995
"2019-03-26 10:57:14.705 +0000",1553597834.704813,-1.714179,-1.455618,1.647382,-0.113744,0.993374,0.016422,0.000000,0.000000,0.000000,-1,0.415328,0.378495,-0.246481,-0.601527,0.153217,0.031750
"2019-03-26 10:57:14.727 +0000",1553597834.727111,-1.677005,-1.448429,1.673184,-0.121374,0.992522,0.012940,0.000000,0.000000,0.000000,-1,-0.174462,0.583314,-0.341592,-0.592233,0.125489,0.159927
"2019-03-26 10:57:14.749 +0000",1553597834.749421,-1.783152,-1.436699,1.552702,-0.130692,0.991022,0.028178,0.000000,0.000000,0.000000,-1,-1.099664,0.545333,-0.519049,-0.341201,0.218343,0.318914
"2019-03-26 10:57:14.772 +0000",1553597834.771704,-1.963786,-1.406596,1.366705,-0.151002,0.986549,0.062599,0.000000,0.000000,0.000000,-1,-1.830536,-0.251084,-1.206995,-0.040907,0.388771,0.338494
"2019-03-26 10:57:14.794 +0000",1553597834.794020,-2.142670,-1.353348,1.215264,-0.181412,0.976451,0.116760,0.000000,0.000000,0.000000,-1,-2.490543,-2.007011,-1.581221,-0.399825,0.138600,-0.388656
"2019-03-26 10:57:14.816 +0000",1553597834.816320,-2.305012,-1.284968,1.096783,-0.209309,0.959428,0.188910,0.000000,0.000000,0.000000,-1,-3.090057,-1.923608,-1.579737,-0.482631,0.055968,-0.666494
"2019-03-26 10:57:14.839 +0000",1553597834.838642,-2.390425,-1.219862,1.029667,-0.234624,0.939052,0.251262,0.000000,0.000000,0.000000,-1,-2.338881,-0.266368,-1.286472,-0.156139,0.286427,-0.471233
"2019-03-26 10:57:14.861 +0000",1553597834.860917,-2.447397,-1.165195,0.974497,-0.252434,0.918865,0.303255,0.000000,0.000000,0.000000,-1,-2.743598,-0.761598,-0.788514,0.454216,0.487278,-0.424334
"2019-03-26 10:57:14.883 +0000",1553597834.883226,-2.548510,-1.103090,0.904636,-0.251984,0.892605,0.373847,0.000000,0.000000,0.000000,-1,-3.042936,-1.957462,-0.476575,0.294815,0.652058,-0.868491
"2019-03-26 10:57:14.906 +0000",1553597834.905534,-2.636454,-1.046659,0.831918,-0.242190,0.865756,0.437962,0.000000,0.000000,0.000000,-1,-2.971896,-0.318069,0.366116,0.108935,0.742307,-0.416508
"2019-03-26 10:57:14.928 +0000",1553597834.927843,-2.692545,-0.991817,0.747800,-0.237531,0.837021,0.492924,0.000000,0.000000,0.000000,-1,-3.129065,1.050929,0.659070,0.152234,0.873901,-0.329976
"2019-03-26 10:57:14.950 +0000",1553597834.950119,-2.720891,-0.937662,0.694035,-0.241641,0.806177,0.540082,0.000000,0.000000,0.000000,-1,-2.315006,0.056838,-0.099652,0.395815,0.740820,-0.301633
"2019-03-26 10:57:14.972 +0000",1553597834.972428,-2.771216,-0.891780,0.683030,-0.227325,0.778191,0.585442,0.000000,0.000000,0.000000,-1,-2.130116,-2.927323,-0.705759,0.298950,0.533531,-0.331933
