timestamp,timeIntervalSince1970,attitude.roll,attitude.pitch,attitude.yaw,gravity.x,gravity.y,gravity.z,magneticField.x,magneticField.y,magneticField.z,magneticField.accuracy,rotationRate.x,rotationRate.y,rotationRate.z,userAcceleration.x,userAcceleration.y,userAcceleration.z
"2019-11-26 16:49:11.629 +0000",1574786951.629263,0.186532,0.445607,-0.042378,0.167343,-0.431006,-0.886696,0.000000,0.000000,0.000000,-1,-0.026996,-0.051408,0.104660,0.082978,-0.016336,0.012673
"2019-11-26 16:49:11.649 +0000",1574786951.649350,0.170268,0.452831,-0.033461,0.152368,-0.437513,-0.886209,0.000000,0.000000,0.000000,-1,-0.055047,-0.130637,0.154603,0.044959,0.015257,0.020364
"2019-11-26 16:49:11.669 +0000",1574786951.669438,0.176206,0.450379,-0.036811,0.157816,-0.435306,-0.886342,0.000000,0.000000,0.000000,-1,-0.087938,-0.066925,-0.083373,0.019766,-0.000958,0.007741
"2019-11-26 16:49:11.690 +0000",1574786951.689527,0.188225,0.442719,-0.047647,0.169076,-0.428398,-0.887631,0.000000,0.000000,0.000000,-1,-0.237314,-0.214924,-0.332120,0.064323,-0.045036,-0.014240
"2019-11-26 16:49:11.710 +0000",1574786951.709613,0.201928,0.436665,-0.060597,0.181739,-0.422919,-0.887756,0.000000,0.000000,0.000000,-1,-0.478669,-0.434977,-0.241500,0.109643,-0.047158,-0.000947
"2019-11-26 16:49:11.730 +0000",1574786951.729700,0.195003,0.426262,-0.063223,0.176431,-0.413470,-0.893261,0.000000,0.000000,0.000000,-1,-0.855492,-0.877847,-0.077529,0.084357,-0.024716,-0.092152
"2019-11-26 16:49:11.750 +0000",1574786951.749789,0.168231,0.401495,-0.062638,0.154124,-0.390795,-0.907483,0.000000,0.000000,0.000000,-1,-1.343875,-1.482161,-0.255960,0.104925,-0.055449,-0.169864
"2019-11-26 16:49:11.770 +0000",1574786951.769876,0.133843,0.367875,-0.067991,0.124516,-0.359633,-0.924748,0.000000,0.000000,0.000000,-1,-1.702653,-1.913402,-0.585359,0.046978,-0.099137,-0.204936
"2019-11-26 16:49:11.790 +0000",1574786951.789967,0.082523,0.331919,-0.080289,0.077930,-0.325858,-0.942201,0.000000,0.000000,0.000000,-1,-1.691380,-3.086804,-0.819288,-0.081440,0.020102,-0.211592
"2019-11-26 16:49:11.810 +0000",1574786951.810052,0.005721,0.301179,-0.095998,0.005464,-0.296646,-0.954972,0.000000,0.000000,0.000000,-1,-1.428603,-4.363606,-0.797819,-0.059144,0.085998,0.021241
"2019-11-26 16:49:11.830 +0000",1574786951.830139,-0.048308,0.268458,-0.105563,-0.046559,-0.265245,-0.963056,0.000000,0.000000,0.000000,-1,-1.725418,-2.002198,-0.218346,-0.014018,0.050828,0.386442
"2019-11-26 16:49:11.850 +0000",1574786951.850226,-0.063352,0.223487,-0.095446,-0.061735,-0.221631,-0.973174,0.000000,0.000000,0.000000,-1,-2.394814,-0.329104,0.871159,-0.225359,-0.033938,0.063293
"2019-11-26 16:49:11.870 +0000",1574786951.870313,-0.065897,0.160563,-0.071175,-0.065002,-0.159874,-0.984995,0.000000,0.000000,0.000000,-1,-3.276689,0.205297,1.522562,-0.087418,-0.015495,0.043741
"2019-11-26 16:49:11.890 +0000",1574786951.890401,-0.058102,0.091260,-0.038582,-0.057828,-0.091134,-0.994158,0.000000,0.000000,0.000000,-1,-3.255986,0.668263,1.921370,0.073865,-0.139686,0.093859
"2019-11-26 16:49:11.910 +0000",1574786951.910489,-0.050272,0.042828,-0.003340,-0.050204,-0.042815,-0.997821,0.000000,0.000000,0.000000,-1,-1.937928,0.432876,1.814938,-0.055112,0.110717,0.041110
"2019-11-26 16:49:11.931 +0000",1574786951.930577,-0.048977,0.030850,0.032519,-0.048934,-0.030845,-0.998326,0.000000,0.000000,0.000000,-1,-0.035315,-0.003290,1.809668,-0.130983,0.041053,0.019444
"2019-11-26 16:49:11.951 +0000",1574786951.950664,-0.055243,0.048961,0.068579,-0.055149,-0.048941,-0.997278,0.000000,0.000000,0.000000,-1,1.284906,-0.301302,1.753407,-0.123760,0.078513,0.078256
"2019-11-26 16:49:11.971 +0000",1574786951.970751,-0.070022,0.080398,0.110109,-0.069739,-0.080311,-0.994327,0.000000,0.000000,0.000000,-1,1.763270,-0.695123,2.030692,0.128256,0.159550,0.188617
"2019-11-26 16:49:11.991 +0000",1574786951.990839,-0.099351,0.110938,0.153095,-0.098578,-0.110710,-0.988952,0.000000,0.000000,0.000000,-1,1.647221,-1.501994,1.948039,0.161047,0.097756,0.148543
"2019-11-26 16:49:12.011 +0000",1574786952.010926,-0.140586,0.137941,0.189648,-0.138793,-0.137504,-0.980729,0.000000,0.000000,0.000000,-1,1.535064,-1.870972,1.519879,-0.030458,0.091087,0.009522
"2019-11-26 16:49:12.031 +0000",1574786952.031013,-0.172649,0.169494,0.218608,-0.169331,-0.168684,-0.971016,0.000000,0.000000,0.000000,-1,1.881355,-1.138650,1.051307,-0.078762,0.161786,0.047616
"2019-11-26 16:49:12.051 +0000",1574786952.051101,-0.187367,0.207702,0.248965,-0.182269,-0.206212,-0.961382,0.000000,0.000000,0.000000,-1,2.214007,-0.233877,1.202127,-0.020704,0.230260,0.036562
"2019-11-26 16:49:12.071 +0000",1574786952.071190,-0.203180,0.247021,0.289681,-0.195660,-0.244517,-0.949699,0.000000,0.000000,0.000000,-1,2.292133,-0.467422,1.654470,0.002255,0.188807,0.089424
"2019-11-26 16:49:12.091 +0000",1574786952.091277,-0.236317,0.281631,0.331229,-0.224900,-0.277923,-0.933905,0.000000,0.000000,0.000000,-1,2.048054,-1.330163,1.524577,0.006317,0.193038,0.123633
"2019-11-26 16:49:12.111 +0000",1574786952.111368,-0.285486,0.312595,0.373443,-0.267976,-0.307529,-0.913025,0.000000,0.000000,0.000000,-1,2.012977,-1.943634,1.584389,0.065553,0.225528,0.192185
"2019-11-26 16:49:12.131 +0000",1574786952.131451,-0.349323,0.342100,0.427238,-0.322429,-0.335466,-0.885157,0.000000,0.000000,0.000000,-1,2.262916,-2.487228,2.113737,0.119792,0.307863,0.191645
"2019-11-26 16:49:12.152 +0000",1574786952.151539,-0.435917,0.373693,0.502577,-0.393101,-0.365056,-0.843923,0.000000,0.000000,0.000000,-1,2.987776,-3.095620,2.763922,0.144642,0.309102,0.264989
"2019-11-26 16:49:12.172 +0000",1574786952.171627,-0.523288,0.402803,0.581842,-0.459736,-0.391999,-0.796856,0.000000,0.000000,0.000000,-1,2.873068,-2.760542,2.465747,0.113773,0.328934,0.231549
"2019-11-26 16:49:12.192 +0000",1574786952.191713,-0.620410,0.408398,0.657949,-0.533556,-0.397140,-0.746725,0.000000,0.000000,0.000000,-1,1.827401,-3.314866,2.948587,0.068499,0.151748,0.299383
"2019-11-26 16:49:12.212 +0000",1574786952.211801,-0.699708,0.382675,0.722575,-0.597413,-0.373404,-0.709695,0.000000,0.000000,0.000000,-1,0.503187,-2.596789,3.194675,0.281816,0.295965,0.184945
"2019-11-26 16:49:12.232 +0000",1574786952.231889,-0.777743,0.339368,0.783706,-0.661653,-0.332891,-0.671862,0.000000,0.000000,0.000000,-1,0.344086,-2.850519,3.685687,0.172502,0.389089,0.093325
"2019-11-26 16:49:12.252 +0000",1574786952.251976,-0.849405,0.288004,0.856411,-0.719960,-0.284039,-0.633229,0.000000,0.000000,0.000000,-1,0.915461,-2.292332,4.416500,0.076070,0.408642,-0.079463
"2019-11-26 16:49:12.272 +0000",1574786952.272069,-0.911053,0.229685,0.938144,-0.769399,-0.227671,-0.596818,0.000000,0.000000,0.000000,-1,1.227880,-1.973813,4.806205,0.107259,0.367334,-0.288024
"2019-11-26 16:49:12.292 +0000",1574786952.292150,-0.964023,0.167995,1.011411,-0.809927,-0.167205,-0.562192,0.000000,0.000000,0.000000,-1,0.997220,-1.864440,4.481879,0.120382,0.202728,-0.173800
"2019-11-26 16:49:12.312 +0000",1574786952.312239,-1.000506,0.107168,1.069581,-0.836915,-0.106963,-0.536780,0.000000,0.000000,0.000000,-1,0.594428,-1.294084,4.010870,-0.015594,0.192275,-0.170511
"2019-11-26 16:49:12.332 +0000",1574786952.332332,-1.032011,0.037233,1.117737,-0.857738,-0.037224,-0.512738,0.000000,0.000000,0.000000,-1,0.100881,-1.355755,4.280562,-0.117162,0.076805,-0.298907
"2019-11-26 16:49:12.352 +0000",1574786952.352412,-1.049495,-0.029947,1.160855,-0.866783,0.029942,-0.497785,0.000000,0.000000,0.000000,-1,0.215146,-0.739356,3.808759,-0.231377,0.090938,-0.392839
"2019-11-26 16:49:12.373 +0000",1574786952.372505,-1.062666,-0.082700,1.203751,-0.870670,0.082605,-0.484881,0.000000,0.000000,0.000000,-1,0.699468,-0.784235,3.192860,-0.287503,0.020834,-0.402188
"2019-11-26 16:49:12.393 +0000",1574786952.392592,-1.069484,-0.122751,1.248521,-0.870354,0.122443,-0.476961,0.000000,0.000000,0.000000,-1,1.036616,-0.489428,2.697511,-0.286766,-0.077079,-0.190122
"2019-11-26 16:49:12.413 +0000",1574786952.412680,-1.067961,-0.154998,1.286193,-0.865715,0.154378,-0.476135,0.000000,0.000000,0.000000,-1,0.755849,-0.079434,2.152928,-0.324852,-0.198018,-0.002259
"2019-11-26 16:49:12.433 +0000",1574786952.432767,-1.060707,-0.179073,1.309842,-0.858746,0.178118,-0.480447,0.000000,0.000000,0.000000,-1,0.389074,0.323494,1.429613,-0.372440,-0.172289,-0.090811
"2019-11-26 16:49:12.453 +0000",1574786952.452855,-1.051873,-0.196986,1.328961,-0.851561,0.195714,-0.486355,0.000000,0.000000,0.000000,-1,0.381278,0.227513,1.205546,-0.386965,-0.117437,-0.130222
"2019-11-26 16:49:12.473 +0000",1574786952.472944,-1.047794,-0.210694,1.349658,-0.847166,0.209138,-0.488438,0.000000,0.000000,0.000000,-1,0.609702,-0.077874,1.042788,-0.353457,-0.104234,-0.090099
"2019-11-26 16:49:12.493 +0000",1574786952.493031,-1.044946,-0.216162,1.373780,-0.844769,0.214482,-0.490267,0.000000,0.000000,0.000000,-1,0.962546,-0.092209,0.746073,-0.359104,-0.147313,-0.015210
"2019-11-26 16:49:12.513 +0000",1574786952.513118,-1.041739,-0.212038,1.396746,-0.843949,0.210452,-0.493416,0.000000,0.000000,0.000000,-1,1.087300,-0.089188,0.242650,-0.411148,-0.168414,-0.055503
"2019-11-26 16:49:12.533 +0000",1574786952.533206,-1.038710,-0.195858,1.413414,-0.845275,0.194608,-0.497633,0.000000,0.000000,0.000000,-1,1.107778,0.021949,-0.451919,-0.418062,-0.159132,-0.021303
"2019-11-26 16:49:12.553 +0000",1574786952.553293,-1.027707,-0.172079,1.423623,-0.843472,0.171231,-0.509151,0.000000,0.000000,0.000000,-1,0.990042,0.618128,-0.839973,-0.307407,-0.140072,0.064312
"2019-11-26 16:49:12.573 +0000",1574786952.573379,-1.006983,-0.149007,1.426051,-0.835857,0.148456,-0.528492,0.000000,0.000000,0.000000,-1,0.619390,1.124057,-0.934518,-0.191487,-0.106006,0.067676
"2019-11-26 16:49:12.593 +0000",1574786952.593467,-0.988852,-0.129130,1.425452,-0.828441,0.128771,-0.545073,0.000000,0.000000,0.000000,-1,0.474734,0.724870,-0.801616,-0.006231,-0.130633,0.016783
"2019-11-26 16:49:12.614 +0000",1574786952.613554,-0.992504,-0.112596,1.427552,-0.832095,0.112358,-0.543133,0.000000,0.000000,0.000000,-1,0.583547,-0.519424,-0.559180,0.181444,-0.135429,0.094617
"2019-11-26 16:49:12.634 +0000",1574786952.633643,-1.017727,-0.101446,1.435031,-0.846542,0.101272,-0.522600,0.000000,0.000000,0.000000,-1,0.611010,-1.492717,-0.181005,0.243132,-0.136261,0.168459
"2019-11-26 16:49:12.654 +0000",1574786952.653730,-1.052041,-0.095152,1.444598,-0.864509,0.095008,-0.493557,0.000000,0.000000,0.000000,-1,0.551018,-1.817836,0.023183,0.174719,-0.136558,0.033703
"2019-11-26 16:49:12.674 +0000",1574786952.673817,-1.083960,-0.092026,1.456438,-0.880077,0.091896,-0.465853,0.000000,0.000000,0.000000,-1,0.609485,-1.555012,0.171871,0.140087,-0.083732,-0.051847
"2019-11-26 16:49:12.694 +0000",1574786952.693905,-1.108061,-0.087542,1.470870,-0.891408,0.087430,-0.444688,0.000000,0.000000,0.000000,-1,0.797898,-1.164862,0.103114,0.116383,-0.092008,-0.149596
"2019-11-26 16:49:12.714 +0000",1574786952.713998,-1.122933,-0.079625,1.489473,-0.898519,0.079541,-0.431668,0.000000,0.000000,0.000000,-1,1.077594,-0.653935,0.032927,0.025181,0.001270,-0.156085
"2019-11-26 16:49:12.734 +0000",1574786952.734081,-1.124280,-0.073874,1.510857,-0.899497,0.073807,-0.430648,0.000000,0.000000,0.000000,-1,1.045042,-0.021816,0.245131,0.074194,0.060837,-0.052323
"2019-11-26 16:49:12.754 +0000",1574786952.754168,-1.123618,-0.070816,1.529688,-0.899411,0.070757,-0.431339,0.000000,0.000000,0.000000,-1,0.881992,-0.079775,0.257874,-0.135823,0.257002,0.110463
"2019-11-26 16:49:12.774 +0000",1574786952.774256,-1.134149,-0.067813,1.544832,-0.904092,0.067761,-0.421932,0.000000,0.000000,0.000000,-1,0.691266,-0.771264,0.189888,-0.107948,0.080020,0.143368
"2019-11-26 16:49:12.794 +0000",1574786952.794344,-1.150630,-0.065074,1.557166,-0.911088,0.065029,-0.407049,0.000000,0.000000,0.000000,-1,0.606493,-0.818637,0.137383,-0.060272,0.191380,-0.118509
"2019-11-26 16:49:12.814 +0000",1574786952.814430,-1.163273,-0.064945,1.567262,-0.916170,0.064900,-0.395501,0.000000,0.000000,0.000000,-1,0.400272,-0.611369,0.208137,0.017380,0.146221,-0.161963
"2019-11-26 16:49:12.835 +0000",1574786952.834518,-1.174400,-0.069922,1.571746,-0.920204,0.069865,-0.385153,0.000000,0.000000,0.000000,-1,0.011953,-0.568890,0.368557,0.125602,0.044271,-0.158349
"2019-11-26 16:49:12.855 +0000",1574786952.854609,-1.185966,-0.082875,1.570820,-0.923681,0.082780,-0.374114,0.000000,0.000000,0.000000,-1,-0.383889,-0.563196,0.645262,0.135899,0.009643,-0.084092
"2019-11-26 16:49:12.875 +0000",1574786952.874694,-1.198682,-0.099733,1.566076,-0.926932,0.099567,-0.361779,0.000000,0.000000,0.000000,-1,-0.564298,-0.646331,0.701499,0.076513,-0.010944,0.027383
"2019-11-26 16:49:12.895 +0000",1574786952.894780,-1.214921,-0.118124,1.560629,-0.930810,0.117849,-0.345983,0.000000,0.000000,0.000000,-1,-0.567371,-0.821657,0.774295,0.045159,-0.001043,0.017584
"2019-11-26 16:49:12.915 +0000",1574786952.914868,-1.237217,-0.140539,1.558153,-0.935561,0.140077,-0.324199,0.000000,0.000000,0.000000,-1,-0.473243,-1.201016,1.086882,-0.047503,0.023070,-0.110035
"2019-11-26 16:49:12.935 +0000",1574786952.934956,-1.261939,-0.166421,1.556565,-0.939519,0.165654,-0.299770,0.000000,0.000000,0.000000,-1,-0.501973,-1.185296,1.222622,-0.157360,-0.008977,0.014554
"2019-11-26 16:49:12.955 +0000",1574786952.955043,-1.280665,-0.193572,1.549631,-0.940310,0.192365,-0.280735,0.000000,0.000000,0.000000,-1,-0.804867,-0.750717,1.196594,-0.193342,-0.083494,0.051412
"2019-11-26 16:49:12.975 +0000",1574786952.975131,-1.292194,-0.225366,1.540651,-0.937128,0.223463,-0.268057,0.000000,0.000000,0.000000,-1,-0.866513,-0.438355,1.496330,0.055231,-0.078977,-0.014978
"2019-11-26 16:49:12.995 +0000",1574786952.995222,-1.301957,-0.266694,1.532551,-0.929997,0.263544,-0.256223,0.000000,0.000000,0.000000,-1,-0.974402,-0.403602,1.979560,0.225712,-0.034204,-0.075014
"2019-11-26 16:49:13.015 +0000",1574786953.015306,-1.315690,-0.318781,1.523242,-0.918885,0.313409,-0.239634,0.000000,0.000000,0.000000,-1,-1.132542,-0.587996,2.533264,0.238083,0.056556,-0.144139
"2019-11-26 16:49:13.035 +0000",1574786953.035393,-1.336840,-0.377633,1.514281,-0.904217,0.368721,-0.215493,0.000000,0.000000,0.000000,-1,-1.067407,-1.043912,2.884282,0.310160,0.110497,-0.247137
"2019-11-26 16:49:13.055 +0000",1574786953.055485,-1.371479,-0.432661,1.507135,-0.889880,0.419288,-0.179755,0.000000,0.000000,0.000000,-1,-0.939356,-1.823411,2.479377,0.144334,0.152505,-0.157280
"2019-11-26 16:49:13.076 +0000",1574786953.075567,-1.417971,-0.476337,1.494140,-0.878323,0.458527,-0.135285,0.000000,0.000000,0.000000,-1,-0.935807,-2.064003,1.863958,-0.203145,0.029999,-0.005019
"2019-11-26 16:49:13.096 +0000",1574786953.095656,-1.458671,-0.501858,1.477308,-0.871185,0.481055,-0.098093,0.000000,0.000000,0.000000,-1,-0.902902,-1.484937,0.984672,-0.266648,0.009592,0.072841
"2019-11-26 16:49:13.116 +0000",1574786953.115748,-1.482952,-0.522889,1.456282,-0.863039,0.499386,-0.076009,0.000000,0.000000,0.000000,-1,-1.063920,-0.464747,0.981902,-0.114531,-0.025249,0.120260
"2019-11-26 16:49:13.136 +0000",1574786953.135853,-1.498239,-0.553032,1.437213,-0.848697,0.525270,-0.061687,0.000000,0.000000,0.000000,-1,-0.873954,-0.295507,1.528373,-0.027006,-0.047044,-0.008960
"2019-11-26 16:49:13.156 +0000",1574786953.155918,-1.513730,-0.587031,1.421843,-0.831234,0.553891,-0.047487,0.000000,0.000000,0.000000,-1,-0.742849,-0.316377,1.692732,-0.159657,-0.099301,-0.008512
"2019-11-26 16:49:13.176 +0000",1574786953.176005,-1.523479,-0.624631,1.400549,-0.810271,0.584798,-0.038369,0.000000,0.000000,0.000000,-1,-1.005119,0.216494,1.866923,-0.216707,-0.175237,-0.066077
"2019-11-26 16:49:13.196 +0000",1574786953.196093,-1.531882,-0.664254,1.377898,-0.786781,0.616472,-0.030632,0.000000,0.000000,0.000000,-1,-0.986752,0.250665,1.959173,-0.032739,-0.138261,-0.043540
"2019-11-26 16:49:13.216 +0000",1574786953.216181,-1.540800,-0.703270,1.355389,-0.762389,0.646715,-0.022876,0.000000,0.000000,0.000000,-1,-0.900312,0.259615,1.887902,-0.018191,-0.083223,0.017399
"2019-11-26 16:49:13.236 +0000",1574786953.236269,-1.548706,-0.742661,1.336433,-0.736492,0.676251,-0.016272,0.000000,0.000000,0.000000,-1,-0.704425,0.166248,1.937850,-0.009633,-0.019588,0.030799
"2019-11-26 16:49:13.256 +0000",1574786953.256356,-1.556889,-0.779854,1.321160,-0.710947,0.703176,-0.009888,0.000000,0.000000,0.000000,-1,-0.569482,0.114919,1.779896,-0.090659,0.011592,0.015199
"2019-11-26 16:49:13.276 +0000",1574786953.276442,-1.561029,-0.815567,1.305145,-0.685423,0.728114,-0.006695,0.000000,0.000000,0.000000,-1,-0.585975,0.494874,1.755540,-0.065096,0.045766,0.008924
"2019-11-26 16:49:13.297 +0000",1574786953.296531,-1.555507,-0.851725,1.287553,-0.658609,0.752418,-0.010070,0.000000,0.000000,0.000000,-1,-0.599957,1.047669,1.780891,-0.016150,0.071634,0.029236
"2019-11-26 16:49:13.317 +0000",1574786953.316618,-1.545902,-0.882836,1.272010,-0.634766,0.772543,-0.015805,0.000000,0.000000,0.000000,-1,-0.500007,1.009446,1.409195,0.025085,0.059733,-0.020098
"2019-11-26 16:49:13.337 +0000",1574786953.336705,-1.537769,-0.904848,1.259641,-0.617468,0.786331,-0.020400,0.000000,0.000000,0.000000,-1,-0.398958,0.896295,0.984537,-0.002650,0.044510,0.007721
"2019-11-26 16:49:13.357 +0000",1574786953.356789,-1.525768,-0.921813,1.244647,-0.603764,0.796699,-0.027205,0.000000,0.000000,0.000000,-1,-0.522480,1.305963,0.776940,0.024388,0.025095,0.009277
"2019-11-26 16:49:13.377 +0000",1574786953.376877,-1.511691,-0.934909,1.226904,-0.592854,0.804545,-0.035082,0.000000,0.000000,0.000000,-1,-0.567695,1.401853,0.573577,-0.010189,0.047644,-0.028867
"2019-11-26 16:49:13.397 +0000",1574786953.396964,-1.488036,-0.948267,1.211113,-0.581096,0.812406,-0.048202,0.000000,0.000000,0.000000,-1,-0.510948,2.073202,0.731734,-0.177740,-0.138425,0.085312
"2019-11-26 16:49:13.417 +0000",1574786953.417053,-1.465071,-0.962779,1.196895,-0.568052,0.820782,-0.060282,0.000000,0.000000,0.000000,-1,-0.322190,1.290287,0.586013,0.016629,-0.030315,-0.344197
"2019-11-26 16:49:13.437 +0000",1574786953.437139,-1.463873,-0.973665,1.183638,-0.559061,0.826952,-0.060006,0.000000,0.000000,0.000000,-1,-0.508114,0.257297,0.551114,0.108850,0.021422,-0.154776
"2019-11-26 16:49:13.457 +0000",1574786953.457227,-1.475881,-0.984766,1.170353,-0.550569,0.833143,-0.052415,0.000000,0.000000,0.000000,-1,-0.441106,-0.115216,0.473660,0.014771,-0.021206,-0.056425
"2019-11-26 16:49:13.477 +0000",1574786953.477314,-1.493025,-0.991429,1.152740,-0.545840,0.836809,-0.042536,0.000000,0.000000,0.000000,-1,-0.538465,-0.120460,0.208314,-0.010237,0.068267,-0.030873
"2019-11-26 16:49:13.497 +0000",1574786953.497401,-1.517777,-0.992737,1.129997,-0.545632,0.837525,-0.028956,0.000000,0.000000,0.000000,-1,-0.651721,-0.333770,-0.017180,0.018730,0.167756,-0.115971
"2019-11-26 16:49:13.517 +0000",1574786953.517489,-1.547755,-0.990828,1.103571,-0.547852,0.836480,-0.012626,0.000000,0.000000,0.000000,-1,-0.733523,-0.422779,-0.130232,0.029388,0.189949,-0.092567
"2019-11-26 16:49:13.538 +0000",1574786953.537578,-1.584227,-0.986484,1.075370,-0.551576,0.834091,0.007408,0.000000,0.000000,0.000000,-1,-0.758247,-0.683398,-0.273309,0.006090,0.013047,-0.278068
"2019-11-26 16:49:13.558 +0000",1574786953.557664,-1.690840,-0.996447,1.006401,-0.539379,0.839546,0.065062,0.000000,0.000000,0.000000,-1,-2.205265,-2.695763,0.878513,-0.179250,-0.304587,-0.287183
"2019-11-26 16:49:13.578 +0000",1574786953.577751,-1.776150,-1.006462,0.948138,-0.523616,0.844945,0.109064,0.000000,0.000000,0.000000,-1,-1.006859,-1.217238,0.643428,0.088312,0.103726,0.792991
"2019-11-26 16:49:13.598 +0000",1574786953.597840,-1.750924,-1.019566,0.978782,-0.515262,0.851881,0.093830,0.000000,0.000000,0.000000,-1,1.498662,0.213339,0.430335,0.135836,-0.036801,0.236265
"2019-11-26 16:49:13.618 +0000",1574786953.617927,-1.703158,-1.028474,1.029993,-0.511612,0.856513,0.068116,0.000000,0.000000,0.000000,-1,1.117836,0.265289,0.144997,-0.014680,0.227930,-0.186065
"2019-11-26 16:49:13.638 +0000",1574786953.638015,-1.719712,-1.019926,1.013989,-0.517636,0.852069,0.077659,0.000000,0.000000,0.000000,-1,-0.943762,-0.402490,-0.427677,0.194210,0.287611,-0.408087
"2019-11-26 16:49:13.658 +0000",1574786953.658100,-1.758506,-1.013907,0.980908,-0.519264,0.848903,0.098632,0.000000,0.000000,0.000000,-1,-0.754582,-0.487963,-0.074980,-0.027963,-0.321162,0.045367
"2019-11-26 16:49:13.678 +0000",1574786953.678189,-1.769298,-1.014574,0.969609,-0.517614,0.849256,0.104118,0.000000,0.000000,0.000000,-1,-0.161582,0.061085,0.157828,-0.086818,0.043812,0.143350
"2019-11-26 16:49:13.698 +0000",1574786953.698277,-1.765310,-1.026804,0.970114,-0.507796,0.855649,0.100038,0.000000,0.000000,0.000000,-1,0.279114,0.250934,0.778677,-0.133074,-0.045467,0.027939
"2019-11-26 16:49:13.718 +0000",1574786953.718368,-1.752438,-1.045038,0.975301,-0.493613,0.864944,0.090660,0.000000,0.000000,0.000000,-1,0.315072,0.347400,0.897187,0.023199,0.048708,-0.097982
"2019-11-26 16:49:13.738 +0000",1574786953.738451,-1.734790,-1.069116,0.999864,-0.474447,0.876776,0.078512,0.000000,0.000000,0.000000,-1,0.972714,-0.331721,1.095542,0.004186,0.066829,-0.041614
"2019-11-26 16:49:13.759 +0000",1574786953.758539,-1.701324,-1.095565,1.053910,-0.453652,0.889187,0.059553,0.000000,0.000000,0.000000,-1,1.577640,-0.787849,1.153244,-0.040551,0.093908,0.086567
"2019-11-26 16:49:13.779 +0000",1574786953.778628,-1.650114,-1.118440,1.115493,-0.435712,0.899420,0.034632,0.000000,0.000000,0.000000,-1,1.389282,0.050792,0.874227,0.148587,0.007946,0.005454
"2019-11-26 16:49:13.799 +0000",1574786953.798714,-1.618772,-1.122086,1.148485,-0.433305,0.901007,0.020804,0.000000,0.000000,0.000000,-1,0.477740,0.000179,-0.142414,0.351487,-0.066335,-0.241444
"2019-11-26 16:49:13.819 +0000",1574786953.818802,-1.618378,-1.116105,1.145918,-0.438688,0.898397,0.020889,0.000000,0.000000,0.000000,-1,-0.126265,0.179026,-0.298799,0.076047,-0.377231,0.035890
"2019-11-26 16:49:13.839 +0000",1574786953.838889,-1.598766,-1.131320,1.161608,-0.425299,0.904975,0.011898,0.000000,0.000000,0.000000,-1,0.440020,0.201239,1.105299,-0.151423,-0.742040,0.073568
"2019-11-26 16:49:13.859 +0000",1574786953.858977,-1.586594,-1.153545,1.179456,-0.405199,0.914206,0.006402,0.000000,0.000000,0.000000,-1,0.416310,-0.334392,1.084727,0.069368,-0.337514,-0.097724
"2019-11-26 16:49:13.879 +0000",1574786953.879065,-1.588777,-1.179181,1.190426,-0.381620,0.924294,0.006862,0.000000,0.000000,0.000000,-1,0.139626,-0.792734,1.342785,-0.127810,-0.192954,-0.187312
"2019-11-26 16:49:13.899 +0000",1574786953.899152,-1.613080,-1.209071,1.192004,-0.353572,0.935288,0.014959,0.000000,0.000000,0.000000,-1,0.094859,-1.455234,1.540236,-0.106649,0.271150,-0.082005
"2019-11-26 16:49:13.919 +0000",1574786953.919240,-1.622475,-1.248175,1.209013,-0.316631,0.948407,0.016378,0.000000,0.000000,0.000000,-1,0.464551,-1.051172,2.109592,-0.285496,0.219883,0.119457
"2019-11-26 16:49:13.939 +0000",1574786953.939327,-1.624683,-1.301866,1.223991,-0.265314,0.964056,0.014311,0.000000,0.000000,0.000000,-1,0.301670,-0.843540,2.813234,-0.072073,-0.070103,-0.086881
"2019-11-26 16:49:13.959 +0000",1574786953.959415,-1.656340,-1.363463,1.207006,-0.205098,0.978583,0.017588,0.000000,0.000000,0.000000,-1,-0.060889,-0.652575,3.142564,0.089238,0.166788,-0.032830
"2019-11-26 16:49:13.980 +0000",1574786953.979501,-1.729061,-1.423550,1.139241,-0.144882,0.989179,0.023123,0.000000,0.000000,0.000000,-1,-0.238429,-0.313848,2.967864,0.001480,0.121571,-0.107457
"2019-11-26 16:49:14.000 +0000",1574786953.999589,-1.854784,-1.472530,1.030597,-0.094179,0.995176,0.027489,0.000000,0.000000,0.000000,-1,-0.087548,-1.014447,2.377175,0.176042,0.168003,-0.099005
"2019-11-26 16:49:14.020 +0000",1574786954.019678,-2.024884,-1.506766,0.876489,-0.057503,0.997951,0.028068,0.000000,0.000000,0.000000,-1,0.088565,-0.665128,1.557613,0.244271,0.223837,0.152964
"2019-11-26 16:49:14.040 +0000",1574786954.039764,-2.148070,-1.525176,0.756704,-0.038217,0.998960,0.024890,0.000000,0.000000,0.000000,-1,0.164526,-0.058159,0.805558,0.120111,0.005726,0.085845
"2019-11-26 16:49:14.060 +0000",1574786954.059852,-2.233204,-1.532071,0.669029,-0.030529,0.999250,0.023812,0.000000,0.000000,0.000000,-1,0.002263,0.121057,0.242407,0.133266,0.058002,-0.029593
"2019-11-26 16:49:14.080 +0000",1574786954.079940,-2.264724,-1.529359,0.638298,-0.031846,0.999142,0.026495,0.000000,0.000000,0.000000,-1,-0.154592,-0.061167,-0.147027,0.062791,0.095174,-0.016178
"2019-11-26 16:49:14.100 +0000",1574786954.100028,-2.242108,-1.522703,0.657692,-0.037643,0.998844,0.029903,0.000000,0.000000,0.000000,-1,-0.177705,0.233973,-0.313493,-0.019578,0.117552,0.012625
"2019-11-26 16:49:14.120 +0000",1574786954.120114,-2.205227,-1.513443,0.688006,-0.046169,0.998356,0.033977,0.000000,0.000000,0.000000,-1,-0.232629,0.377988,-0.438002,0.016307,-0.016985,0.011633
"2019-11-26 16:49:14.140 +0000",1574786954.140202,-2.209281,-1.502466,0.677176,-0.054828,0.997666,0.040693,0.000000,0.000000,0.000000,-1,-0.386936,0.290056,-0.419542,0.009860,0.071579,-0.064662
"2019-11-26 16:49:14.160 +0000",1574786954.160290,-2.209418,-1.493747,0.681615,-0.061803,0.997033,0.045883,0.000000,0.000000,0.000000,-1,-0.189456,-0.572855,-0.308415,0.058797,-0.033348,-0.372999
"2019-11-26 16:49:14.180 +0000",1574786954.180377,-2.144623,-1.490074,0.749595,-0.067720,0.996744,0.043773,0.000000,0.000000,0.000000,-1,0.248698,0.063464,-0.369054,0.002977,0.201836,0.288306
"2019-11-26 16:49:14.200 +0000",1574786954.200464,-2.025736,-1.486620,0.877125,-0.075526,0.996459,0.036945,0.000000,0.000000,0.000000,-1,0.409225,-0.528539,-0.376181,0.040370,0.185183,-0.092134
"2019-11-26 16:49:14.221 +0000",1574786954.220553,-1.939776,-1.480744,0.969569,-0.083879,0.995948,0.032435,0.000000,0.000000,0.000000,-1,0.170699,-0.245400,-0.456434,-0.011855,0.103663,-0.045526
"2019-11-26 16:49:14.241 +0000",1574786954.240640,-1.901744,-1.467762,1.010879,-0.097271,0.994697,0.033421,0.000000,0.000000,0.000000,-1,-0.087673,-0.150392,-0.760375,0.083004,0.119181,-0.085620
"2019-11-26 16:49:14.261 +0000",1574786954.260726,-1.860468,-1.445656,1.057739,-0.119614,0.992180,0.035652,0.000000,0.000000,0.000000,-1,-0.059461,-0.299189,-1.250666,0.141083,0.196939,-0.011785
"2019-11-26 16:49:14.281 +0000",1574786954.280814,-1.811591,-1.416504,1.110956,-0.149247,0.988120,0.036649,0.000000,0.000000,0.000000,-1,-0.020786,-0.129236,-1.570409,0.145478,0.080789,0.062763
"2019-11-26 16:49:14.301 +0000",1574786954.300903,-1.778459,-1.384814,1.144553,-0.180940,0.982755,0.038124,0.000000,0.000000,0.000000,-1,-0.096192,0.019097,-1.591584,0.077744,-0.022762,-0.005591
"2019-11-26 16:49:14.321 +0000",1574786954.320991,-1.759654,-1.355153,1.159958,-0.210172,0.976839,0.040171,0.000000,0.000000,0.000000,-1,-0.158720,0.227744,-1.441286,-0.099429,-0.019272,0.009451
"2019-11-26 16:49:14.341 +0000",1574786954.341077,-1.754932,-1.328555,1.156659,-0.235824,0.970803,0.043921,0.000000,0.000000,0.000000,-1,-0.334991,0.453169,-1.261398,-0.131547,0.038109,-0.017904
"2019-11-26 16:49:14.361 +0000",1574786954.361164,-1.757848,-1.302143,1.143698,-0.260803,0.964129,0.049361,0.000000,0.000000,0.000000,-1,-0.410712,0.479305,-1.252175,-0.059540,-0.008944,-0.042036
"2019-11-26 16:49:14.381 +0000",1574786954.381252,-1.754145,-1.273033,1.137615,-0.288465,0.955995,0.053490,0.000000,0.000000,0.000000,-1,-0.319984,0.501322,-1.466778,0.021512,-0.081757,0.024620
"2019-11-26 16:49:14.401 +0000",1574786954.401340,-1.741902,-1.240810,1.137520,-0.319298,0.946047,0.055173,0.000000,0.000000,0.000000,-1,-0.281670,0.628934,-1.614202,0.145698,-0.192978,-0.005718
"2019-11-26 16:49:14.421 +0000",1574786954.421428,-1.728273,-1.205728,1.136903,-0.352595,0.934100,0.055989,0.000000,0.000000,0.000000,-1,-0.293544,0.744533,-1.731560,0.059763,-0.216370,-0.013980
"2019-11-26 16:49:14.442 +0000",1574786954.441514,-1.724364,-1.170585,1.128449,-0.385028,0.920979,0.059597,0.000000,0.000000,0.000000,-1,-0.474458,0.485520,-1.631477,-0.037382,-0.179736,-0.125422
"2019-11-26 16:49:14.462 +0000",1574786954.461602,-1.724934,-1.146654,1.118687,-0.406660,0.911392,0.063183,0.000000,0.000000,0.000000,-1,-0.320319,0.361660,-1.014382,-0.184359,-0.107893,-0.028315
"2019-11-26 16:49:14.482 +0000",1574786954.481689,-1.722259,-1.134549,1.116058,-0.417703,0.906344,0.063755,0.000000,0.000000,0.000000,-1,-0.093850,0.212357,-0.443956,-0.223288,-0.108949,-0.012651
"2019-11-26 16:49:14.502 +0000",1574786954.501777,-1.719710,-1.128431,1.116631,-0.423341,0.903742,0.063511,0.000000,0.000000,0.000000,-1,-0.017368,0.072781,-0.276278,-0.176437,-0.029366,-0.064151
"2019-11-26 16:49:14.522 +0000",1574786954.521865,-1.716740,-1.116550,1.117922,-0.434120,0.898592,0.063811,0.000000,0.000000,0.000000,-1,-0.086221,0.148295,-0.729284,-0.086403,0.007903,0.021518
"2019-11-26 16:49:14.542 +0000",1574786954.541952,-1.711272,-1.090982,1.116288,-0.457067,0.887081,0.064632,0.000000,0.000000,0.000000,-1,-0.269191,0.420758,-1.378454,0.109243,0.057180,-0.040522
"2019-11-26 16:49:14.562 +0000",1574786954.562040,-1.705937,-1.057931,1.112694,-0.486203,0.871342,0.066109,0.000000,0.000000,0.000000,-1,-0.311922,0.375507,-1.631182,0.155056,0.113294,-0.163855
"2019-11-26 16:49:14.582 +0000",1574786954.582127,-1.702120,-1.025992,1.110221,-0.513788,0.855229,0.067863,0.000000,0.000000,0.000000,-1,-0.253542,0.302336,-1.510287,-0.002418,0.148175,0.000360
"2019-11-26 16:49:14.602 +0000",1574786954.602215,-1.696341,-0.998349,1.109963,-0.537427,0.840578,0.067828,0.000000,0.000000,0.000000,-1,-0.163460,0.309453,-1.320315,-0.037036,0.034652,0.016096
"2019-11-26 16:49:14.622 +0000",1574786954.622303,-1.689966,-0.978872,1.110429,-0.554002,0.829868,0.066335,0.000000,0.000000,0.000000,-1,-0.086571,0.289023,-0.827169,-0.063873,-0.160998,-0.081531
"2019-11-26 16:49:14.642 +0000",1574786954.642390,-1.683496,-0.971338,1.114026,-0.560616,0.825642,0.063450,0.000000,0.000000,0.000000,-1,0.106052,0.152094,-0.219585,-0.149178,-0.261157,-0.044604
"2019-11-26 16:49:14.662 +0000",1574786954.662478,-1.679294,-0.981845,1.124472,-0.552223,0.831523,0.060151,0.000000,0.000000,0.000000,-1,0.428560,-0.333626,0.732120,-0.219155,-0.283778,-0.034042
"2019-11-26 16:49:14.683 +0000",1574786954.682565,-1.675415,-1.005698,1.143827,-0.532572,0.844536,0.055921,0.000000,0.000000,0.000000,-1,0.738000,-0.721125,1.200151,-0.223029,-0.135840,-0.054867
"2019-11-26 16:49:14.703 +0000",1574786954.702652,-1.663902,-1.038537,1.175387,-0.505284,0.861663,0.047181,0.000000,0.000000,0.000000,-1,1.031416,-0.778778,1.629858,-0.103466,-0.202314,0.011719
"2019-11-26 16:49:14.723 +0000",1574786954.722740,-1.647550,-1.077317,1.213009,-0.472299,0.880690,0.036322,0.000000,0.000000,0.000000,-1,1.062937,-0.821998,1.906471,-0.025261,-0.129483,-0.022481
"2019-11-26 16:49:14.743 +0000",1574786954.742831,-1.626466,-1.117381,1.253502,-0.437360,0.898956,0.024373,0.000000,0.000000,0.000000,-1,1.024337,-0.720513,1.955205,-0.015125,-0.274901,0.026990
"2019-11-26 16:49:14.763 +0000",1574786954.762915,-1.605037,-1.157883,1.285836,-0.401044,0.915956,0.013737,0.000000,0.000000,0.000000,-1,0.690800,-0.214102,1.915578,0.069104,-0.620864,-0.003649
"2019-11-26 16:49:14.783 +0000",1574786954.783002,-1.600783,-1.202431,1.297650,-0.359929,0.932917,0.010796,0.000000,0.000000,0.000000,-1,0.323806,-0.582776,2.037198,0.024388,-0.356851,-0.286170
"2019-11-26 16:49:14.803 +0000",1574786954.803089,-1.578434,-1.244922,1.333593,-0.320129,0.947371,0.002445,0.000000,0.000000,0.000000,-1,0.951437,-0.665994,1.939331,-0.166291,0.351978,-0.122225
"2019-11-26 16:49:14.823 +0000",1574786954.823177,-1.526381,-1.278470,1.404676,-0.287896,0.957576,-0.012795,0.000000,0.000000,0.000000,-1,1.040405,-0.812152,1.625569,-0.044746,0.226538,0.013148
"2019-11-26 16:49:14.843 +0000",1574786954.843264,-1.474712,-1.306627,1.477571,-0.259903,0.965310,-0.025050,0.000000,0.000000,0.000000,-1,0.798748,-0.929028,1.403522,-0.066513,-0.062598,0.044476
"2019-11-26 16:49:14.863 +0000",1574786954.863352,-1.424764,-1.329158,1.540030,-0.236747,0.970947,-0.034821,0.000000,0.000000,0.000000,-1,0.581016,-0.472917,1.114254,0.015097,-0.037291,0.020021
"2019-11-26 16:49:14.883 +0000",1574786954.883440,-1.369642,-1.345438,1.604100,-0.218950,0.974714,-0.044647,0.000000,0.000000,0.000000,-1,0.570557,-0.316579,0.886216,0.003312,0.009846,0.123231
"2019-11-26 16:49:14.904 +0000",1574786954.903528,-1.300815,-1.361137,1.678941,-0.200587,0.978102,-0.055510,0.000000,0.000000,0.000000,-1,0.603817,-0.210256,0.983413,-0.079702,0.029285,0.099366
"2019-11-26 16:49:14.924 +0000",1574786954.923616,-1.223862,-1.376300,1.762909,-0.181758,0.981145,-0.065716,0.000000,0.000000,0.000000,-1,0.524498,-0.244161,0.984465,-0.192281,0.037198,0.088316
"2019-11-26 16:49:14.944 +0000",1574786954.943702,-1.152112,-1.389885,1.841123,-0.164385,0.983680,-0.073151,0.000000,0.000000,0.000000,-1,0.376972,-0.294165,0.879115,-0.168013,0.099329,0.043047
"2019-11-26 16:49:14.964 +0000",1574786954.963789,-1.086116,-1.400677,1.915263,-0.149801,0.985565,-0.078881,0.000000,0.000000,0.000000,-1,0.330804,-0.289630,0.715558,-0.184931,0.125308,0.153392
"2019-11-26 16:49:14.984 +0000",1574786954.983877,-1.034119,-1.405771,1.969489,-0.141181,0.986414,-0.083992,0.000000,0.000000,0.000000,-1,0.244879,0.029854,0.342923,-0.238824,0.163871,0.219339
"2019-11-26 16:49:15.004 +0000",1574786955.003964,-1.013101,-1.406883,1.991050,-0.138455,0.986596,-0.086360,0.000000,0.000000,0.000000,-1,0.080061,-0.021860,0.094130,-0.194126,0.132408,0.135846
"2019-11-26 16:49:15.024 +0000",1574786955.024052,-1.011486,-1.406751,1.993812,-0.138426,0.986575,-0.086653,0.000000,0.000000,0.000000,-1,0.009150,-0.078120,-0.014446,-0.234560,0.163604,0.086731
"2019-11-26 16:49:15.044 +0000",1574786955.044140,-1.019211,-1.405075,1.987889,-0.140499,0.986300,-0.086447,0.000000,0.000000,0.000000,-1,-0.000631,-0.077567,-0.109921,-0.286961,0.161392,0.156700
"2019-11-26 16:49:15.064 +0000",1574786955.064226,-1.033159,-1.401456,1.974216,-0.144756,0.985696,-0.086307,0.000000,0.000000,0.000000,-1,0.002383,-0.039909,-0.246359,-0.258565,0.117913,0.153554
"2019-11-26 16:49:15.084 +0000",1574786955.084315,-1.050985,-1.396249,1.956547,-0.150724,0.984805,-0.086261,0.000000,0.000000,0.000000,-1,-0.001108,-0.018334,-0.296530,-0.249850,0.122710,0.135564
"2019-11-26 16:49:15.104 +0000",1574786955.104403,-1.081783,-1.392312,1.928995,-0.156730,0.984114,-0.083400,0.000000,0.000000,0.000000,-1,-0.160712,-0.230531,-0.286670,-0.217172,0.077731,0.086560
"2019-11-26 16:49:15.124 +0000",1574786955.124491,-1.132971,-1.388660,1.881639,-0.164046,0.983459,-0.076794,0.000000,0.000000,0.000000,-1,-0.337830,-0.213331,-0.361686,-0.149538,0.077699,0.111997
"2019-11-26 16:49:15.145 +0000",1574786955.144577,-1.198486,-1.383972,1.820677,-0.173015,0.982599,-0.067566,0.000000,0.000000,0.000000,-1,-0.436407,-0.314686,-0.452656,-0.001790,0.123527,0.033968
"2019-11-26 16:49:15.165 +0000",1574786955.164665,-1.275942,-1.377458,1.751547,-0.183845,0.981368,-0.055835,0.000000,0.000000,0.000000,-1,-0.537122,-0.527956,-0.516039,0.094336,0.088472,-0.059261
"2019-11-26 16:49:15.185 +0000",1574786955.184752,-1.376010,-1.372146,1.658946,-0.193615,0.980334,-0.038198,0.000000,0.000000,0.000000,-1,-0.900172,-0.389505,-0.442384,0.177669,0.008834,-0.055536
"2019-11-26 16:49:15.205 +0000",1574786955.204839,-1.514878,-1.365775,1.523254,-0.203270,0.979057,-0.011378,0.000000,0.000000,0.000000,-1,-1.527442,-0.308925,-0.497400,0.275673,-0.055319,-0.196644
"2019-11-26 16:49:15.225 +0000",1574786955.224927,-1.663217,-1.358301,1.377794,-0.210000,0.977508,0.019464,0.000000,0.000000,0.000000,-1,-1.486170,-0.253275,-0.297442,0.209405,0.161394,0.041756
"2019-11-26 16:49:15.245 +0000",1574786955.245014,-1.789215,-1.347144,1.251766,-0.216523,0.975094,0.048059,0.000000,0.000000,0.000000,-1,-1.421110,-0.152326,-0.324494,0.158173,0.318944,-0.016976
"2019-11-26 16:49:15.265 +0000",1574786955.265101,-1.895940,-1.334129,1.142315,-0.222180,0.972125,0.074898,0.000000,0.000000,0.000000,-1,-1.350647,0.053422,-0.275514,0.053936,0.323424,-0.003151
"2019-11-26 16:49:15.285 +0000",1574786955.285189,-1.981334,-1.320272,1.053984,-0.227312,0.968783,0.098942,0.000000,0.000000,0.000000,-1,-1.183899,-0.033202,-0.257559,-0.013594,0.270598,-0.033893
"2019-11-26 16:49:15.305 +0000",1574786955.305277,-2.059985,-1.306935,0.975518,-0.230221,0.965390,0.122558,0.000000,0.000000,0.000000,-1,-1.179473,-0.191773,-0.122368,-0.022510,0.210682,-0.072798
"2019-11-26 16:49:15.325 +0000",1574786955.325365,-2.137497,-1.295307,0.905254,-0.229496,0.962292,0.146033,0.000000,0.000000,0.000000,-1,-1.058797,-0.591565,-0.010743,-0.031140,0.190754,-0.151816
"2019-11-26 16:49:15.345 +0000",1574786955.345451,-2.209326,-1.284370,0.846258,-0.226861,0.959260,0.168390,0.000000,0.000000,0.000000,-1,-0.945215,-0.791139,-0.001223,-0.040931,0.079453,-0.118401
"2019-11-26 16:49:15.366 +0000",1574786955.365540,-2.268082,-1.272414,0.801248,-0.225358,0.955813,0.188773,0.000000,0.000000,0.000000,-1,-0.857457,-0.772927,-0.082079,-0.002258,-0.070711,-0.086385
"2019-11-26 16:49:15.386 +0000",1574786955.385627,-2.318878,-1.260485,0.762980,-0.223824,0.952238,0.207713,0.000000,0.000000,0.000000,-1,-0.809660,-0.674279,-0.064793,0.055123,-0.216474,-0.043253
"2019-11-26 16:49:15.406 +0000",1574786955.405719,-2.363999,-1.250115,0.729695,-0.221143,0.949021,0.224622,0.000000,0.000000,0.000000,-1,-0.701627,-0.687788,0.014428,0.079724,-0.325348,-0.060299
"2019-11-26 16:49:15.426 +0000",1574786955.425802,-2.409550,-1.244279,0.699842,-0.214384,0.947165,0.238574,0.000000,0.000000,0.000000,-1,-0.474197,-0.925351,0.197653,0.126646,-0.362280,-0.071871
"2019-11-26 16:49:15.446 +0000",1574786955.445890,-2.448525,-1.241821,0.674463,-0.206412,0.946374,0.248537,0.000000,0.000000,0.000000,-1,-0.324395,-0.649816,0.236057,0.126913,-0.345024,-0.039308
"2019-11-26 16:49:15.466 +0000",1574786955.465977,-2.480355,-1.240686,0.653733,-0.199057,0.946007,0.255828,0.000000,0.000000,0.000000,-1,-0.183866,-0.589547,0.268990,0.069449,-0.291648,-0.055967
"2019-11-26 16:49:15.486 +0000",1574786955.486064,-2.499608,-1.243993,0.643649,-0.192221,0.947073,0.257105,0.000000,0.000000,0.000000,-1,0.094171,-0.447069,0.196295,0.056646,-0.185857,0.115317
"2019-11-26 16:49:15.506 +0000",1574786955.506153,-2.507211,-1.249326,0.646527,-0.187264,0.948772,0.254488,0.000000,0.000000,0.000000,-1,0.276109,-0.548044,0.090420,0.010293,-0.232066,0.130019
"2019-11-26 16:49:15.526 +0000",1574786955.526240,-2.510427,-1.254018,0.654380,-0.183816,0.950244,0.251492,0.000000,0.000000,0.000000,-1,0.244511,-0.528807,0.028392,-0.092536,-0.225908,0.166036
"2019-11-26 16:49:15.546 +0000",1574786955.546328,-2.514128,-1.257737,0.665242,-0.180808,0.951396,0.249308,0.000000,0.000000,0.000000,-1,0.267229,-0.809800,-0.039094,-0.111230,-0.166040,0.152686
"2019-11-26 16:49:15.566 +0000",1574786955.566414,-2.513141,-1.259888,0.683140,-0.179851,0.952056,0.247474,0.000000,0.000000,0.000000,-1,0.242315,-0.811268,-0.183160,-0.145329,-0.142240,0.089335
"2019-11-26 16:49:15.587 +0000",1574786955.586502,-2.506246,-1.262222,0.710846,-0.180233,0.952767,0.244438,0.000000,0.000000,0.000000,-1,0.398738,-1.098941,-0.277693,-0.163319,-0.055245,-0.033515
"2019-11-26 16:49:15.607 +0000",1574786955.606589,-2.500646,-1.263145,0.735265,-0.181073,0.953047,0.242720,0.000000,0.000000,0.000000,-1,0.173369,-0.752038,-0.254293,-0.130176,0.222964,0.191088
"2019-11-26 16:49:15.627 +0000",1574786955.626678,-2.498713,-1.261804,0.749846,-0.182308,0.952641,0.243392,0.000000,0.000000,0.000000,-1,0.071654,-0.549661,-0.201611,-0.025807,0.387906,0.233034
"2019-11-26 16:49:15.647 +0000",1574786955.646765,-2.499492,-1.260752,0.760345,-0.182719,0.952320,0.244337,0.000000,0.000000,0.000000,-1,0.039716,-0.557893,-0.148397,0.077570,0.244046,0.302096
"2019-11-26 16:49:15.667 +0000",1574786955.666852,-2.511759,-1.256897,0.762899,-0.181869,0.951137,0.249525,0.000000,0.000000,0.000000,-1,-0.186698,-0.837107,-0.131073,0.085143,0.023839,0.310183
"2019-11-26 16:49:15.687 +0000",1574786955.686939,-2.541771,-1.246788,0.748381,-0.179718,0.947967,0.262793,0.000000,0.000000,0.000000,-1,-0.651111,-0.828734,-0.087792,0.083481,0.087648,0.186884
"2019-11-26 16:49:15.707 +0000",1574786955.707026,-2.585398,-1.233361,0.721744,-0.174790,0.943607,0.281166,0.000000,0.000000,0.000000,-1,-0.799177,-0.917848,0.012823,0.034745,0.398709,-0.088051
"2019-11-26 16:49:15.727 +0000",1574786955.727115,-2.608093,-1.227711,0.707260,-0.171073,0.941721,0.289646,0.000000,0.000000,0.000000,-1,-0.178129,-0.269849,0.081086,0.012305,0.401679,-0.259204
"2019-11-26 16:49:15.747 +0000",1574786955.747206,-2.603925,-1.233445,0.709869,-0.169511,0.943635,0.284288,0.000000,0.000000,0.000000,-1,0.393727,0.165901,0.117526,0.056382,0.057709,-0.371277
"2019-11-26 16:49:15.767 +0000",1574786955.767289,-2.600262,-1.243464,0.708961,-0.165671,0.946904,0.275548,0.000000,0.000000,0.000000,-1,0.383634,0.223523,0.330680,0.094855,-0.221240,-0.307972
"2019-11-26 16:49:15.787 +0000",1574786955.787377,-2.622609,-1.253386,0.689452,-0.154805,0.950047,0.271010,0.000000,0.000000,0.000000,-1,0.240680,-0.346408,0.560918,0.019779,-0.195422,-0.342161
"2019-11-26 16:49:15.807 +0000",1574786955.807464,-2.646699,-1.261991,0.669210,-0.144344,0.952697,0.267456,0.000000,0.000000,0.000000,-1,0.248439,-0.181866,0.461431,-0.027348,-0.032057,-0.309325
"2019-11-26 16:49:15.828 +0000",1574786955.827553,-2.654386,-1.273128,0.660204,-0.137308,0.956023,0.259166,0.000000,0.000000,0.000000,-1,0.486033,0.132634,0.345125,-0.079947,0.041750,-0.319681
"2019-11-26 16:49:15.848 +0000",1574786955.847638,-2.642032,-1.287339,0.662674,-0.133976,0.960094,0.245498,0.000000,0.000000,0.000000,-1,0.682059,0.610693,0.325235,-0.051937,0.062902,-0.283339
"2019-11-26 16:49:15.868 +0000",1574786955.867726,-2.631012,-1.303345,0.660032,-0.129147,0.964448,0.230569,0.000000,0.000000,0.000000,-1,0.675881,0.663642,0.456630,0.018825,-0.038665,-0.192131
"2019-11-26 16:49:15.888 +0000",1574786955.887815,-2.642156,-1.321029,0.637986,-0.118381,0.968970,0.216986,0.000000,0.000000,0.000000,-1,0.586906,0.441978,0.749011,0.055790,-0.048543,-0.022939
"2019-11-26 16:49:15.908 +0000",1574786955.907903,-2.687333,-1.338557,0.587676,-0.100992,0.973154,0.206816,0.000000,0.000000,0.000000,-1,0.493026,0.079964,0.988803,0.024515,-0.106071,-0.101269
"2019-11-26 16:49:15.928 +0000",1574786955.927993,-2.752490,-1.357769,0.523476,-0.080204,0.977395,0.195617,0.000000,0.000000,0.000000,-1,0.603267,-0.199967,1.054595,-0.022884,-0.045341,-0.171659
"2019-11-26 16:49:15.948 +0000",1574786955.948078,-2.815309,-1.381479,0.466205,-0.060319,0.982133,0.178259,0.000000,0.000000,0.000000,-1,0.778792,-0.440699,0.952917,-0.049788,-0.063140,-0.243626
"2019-11-26 16:49:15.968 +0000",1574786955.968165,-2.884438,-1.403436,0.404186,-0.042366,0.986028,0.161102,0.000000,0.000000,0.000000,-1,0.961064,-0.361444,0.838385,-0.055000,-0.113727,-0.111601
"2019-11-26 16:49:15.988 +0000",1574786955.988256,-2.946509,-1.426658,0.351004,-0.027844,0.989630,0.140915,0.000000,0.000000,0.000000,-1,1.052498,-0.520328,0.587009,-0.081149,-0.090992,-0.196027
"2019-11-26 16:49:16.008 +0000",1574786956.008344,-2.990589,-1.450383,0.317774,-0.018070,0.992759,0.118756,0.000000,0.000000,0.000000,-1,1.129275,-0.546140,0.394284,-0.102047,-0.082540,-0.033839
"2019-11-26 16:49:16.028 +0000",1574786956.028427,-3.027807,-1.472452,0.288671,-0.011148,0.995168,0.097553,0.000000,0.000000,0.000000,-1,1.038974,-0.352035,0.265664,-0.136419,0.019894,0.048400
"2019-11-26 16:49:16.049 +0000",1574786956.048514,-3.050055,-1.490701,0.272820,-0.007314,0.996794,0.079676,0.000000,0.000000,0.000000,-1,0.832551,-0.320744,0.188405,-0.111873,0.055912,0.034614
"2019-11-26 16:49:16.069 +0000",1574786956.068602,-3.078817,-1.503327,0.250561,-0.004230,0.997725,0.067288,0.000000,0.000000,0.000000,-1,0.533933,-0.301042,0.167621,-0.062695,0.008075,0.109716
"2019-11-26 16:49:16.089 +0000",1574786956.088689,-3.139734,-1.511709,0.191613,-0.000110,0.998255,0.059054,0.000000,0.000000,0.000000,-1,0.380073,-0.030342,0.232774,-0.011701,0.014595,0.146286
"2019-11-26 16:49:16.109 +0000",1574786956.108776,3.016668,-1.518807,0.060717,0.006475,0.998649,0.051561,0.000000,0.000000,0.000000,-1,0.381575,0.284799,0.346924,-0.006643,-0.009587,0.140733
"2019-11-26 16:49:16.129 +0000",1574786956.128864,2.841062,-1.524785,-0.124881,0.013616,0.998942,0.043935,0.000000,0.000000,0.000000,-1,0.367074,0.547683,0.403057,-0.009161,-0.169762,0.091153
"2019-11-26 16:49:16.149 +0000",1574786956.148955,2.713715,-1.525888,-0.263778,0.018628,0.998992,0.040845,0.000000,0.000000,0.000000,-1,0.403440,0.559081,0.448231,0.067737,-0.065976,0.123631
"2019-11-26 16:49:16.169 +0000",1574786956.169038,2.635430,-1.523561,-0.355746,0.022893,0.998885,0.041298,0.000000,0.000000,0.000000,-1,0.542762,0.689568,0.372511,-0.061452,0.030810,0.093179
"2019-11-26 16:49:16.189 +0000",1574786956.189126,2.616015,-1.523076,-0.392004,0.023932,0.998862,0.041263,0.000000,0.000000,0.000000,-1,0.524646,0.863663,0.165119,-0.195212,0.136485,0.039274
"2019-11-26 16:49:16.209 +0000",1574786956.209213,2.684542,-1.529154,-0.340768,0.018373,0.999133,0.037360,0.000000,0.000000,0.000000,-1,0.347230,0.825072,-0.224226,-0.283388,0.178267,0.002162
"2019-11-26 16:49:16.229 +0000",1574786956.229301,2.836046,-1.536345,-0.206442,0.010361,0.999407,0.032849,0.000000,0.000000,0.000000,-1,0.206377,0.872940,-0.417720,-0.287049,0.245743,0.109181
"2019-11-26 16:49:16.249 +0000",1574786956.249388,-3.115853,-1.540643,0.107362,-0.000776,0.999545,0.030138,0.000000,0.000000,0.000000,-1,0.112832,0.876830,-0.541518,-0.202685,0.221266,0.143188
"2019-11-26 16:49:16.269 +0000",1574786956.269475,-2.749677,-1.539398,0.455886,-0.011990,0.999507,0.029012,0.000000,0.000000,0.000000,-1,0.028660,0.913013,-0.532865,-0.170078,0.157416,0.118741
"2019-11-26 16:49:16.290 +0000",1574786956.289567,-2.488338,-1.533260,0.701419,-0.022809,0.999296,0.029802,0.000000,0.000000,0.000000,-1,-0.072902,0.732130,-0.489835,-0.115512,0.163075,-0.005920
"2019-11-26 16:49:16.310 +0000",1574786956.309650,-2.367620,-1.524325,0.811066,-0.032472,0.998920,0.033222,0.000000,0.000000,0.000000,-1,-0.231576,0.509894,-0.463796,-0.012633,0.191969,-0.082873
"2019-11-26 16:49:16.330 +0000",1574786956.329739,-2.347508,-1.512315,0.825696,-0.041685,0.998290,0.040967,0.000000,0.000000,0.000000,-1,-0.441983,0.185398,-0.406319,0.035567,0.091341,-0.244106
"2019-11-26 16:49:16.350 +0000",1574786956.349825,-2.402691,-1.498603,0.772579,-0.048580,0.997395,0.053321,0.000000,0.000000,0.000000,-1,-0.666845,-0.212488,-0.321190,0.135310,0.009992,-0.286229
"2019-11-26 16:49:16.370 +0000",1574786956.369913,-2.509071,-1.484083,0.673615,-0.051200,0.996243,0.069851,0.000000,0.000000,0.000000,-1,-0.847864,-0.461472,0.021501,0.276587,-0.061549,-0.235331
"2019-11-26 16:49:16.390 +0000",1574786956.390001,-2.653131,-1.470381,0.537606,-0.047043,0.994963,0.088523,0.000000,0.000000,0.000000,-1,-0.936000,-0.426733,0.248323,0.303619,0.035648,-0.209494
"2019-11-26 16:49:16.410 +0000",1574786956.410086,-2.781044,-1.456052,0.419292,-0.040392,0.993424,0.107132,0.000000,0.000000,0.000000,-1,-0.898428,-0.566680,0.308107,0.336687,0.149460,-0.215194
"2019-11-26 16:49:16.430 +0000",1574786956.430175,-2.896190,-1.443438,0.316669,-0.030858,0.991901,0.123209,0.000000,0.000000,0.000000,-1,-0.737528,-0.658181,0.423716,0.279118,0.256163,-0.124519
"2019-11-26 16:49:16.450 +0000",1574786956.450262,-2.976690,-1.431064,0.241931,-0.022863,0.990253,0.137388,0.000000,0.000000,0.000000,-1,-0.723569,-0.184677,0.316167,0.166647,0.307996,-0.001416
"2019-11-26 16:49:16.470 +0000",1574786956.470353,-3.015273,-1.416988,0.198024,-0.019301,0.988195,0.151981,0.000000,0.000000,0.000000,-1,-0.731036,0.360618,0.166093,0.099730,0.280941,-0.036349
"2019-11-26 16:49:16.490 +0000",1574786956.490438,-3.038667,-1.402443,0.162631,-0.017216,0.985862,0.166672,0.000000,0.000000,0.000000,-1,-0.778414,0.637615,0.239014,0.034641,0.100641,-0.089431
"2019-11-26 16:49:16.511 +0000",1574786956.510524,-3.076925,-1.384291,0.112300,-0.011983,0.982658,0.185038,0.000000,0.000000,0.000000,-1,-0.998250,0.485537,0.405932,-0.056087,-0.018195,-0.174614
"2019-11-26 16:49:16.531 +0000",1574786956.530612,-3.132554,-1.363403,0.053260,-0.001861,0.978571,0.205902,0.000000,0.000000,0.000000,-1,-1.075109,-0.023176,0.581128,-0.063340,-0.127388,-0.232298
"2019-11-26 16:49:16.551 +0000",1574786956.550699,3.085721,-1.343590,-0.007920,0.012579,0.974300,0.224905,0.000000,0.000000,0.000000,-1,-0.930627,-0.308142,0.708386,-0.024389,-0.204050,-0.147312
"2019-11-26 16:49:16.571 +0000",1574786956.570786,3.023646,-1.326870,-0.064670,0.028420,0.970397,0.239837,0.000000,0.000000,0.000000,-1,-0.732785,-0.335615,0.735166,0.058876,-0.198362,-0.047376
"2019-11-26 16:49:16.591 +0000",1574786956.590873,2.972648,-1.312180,-0.111780,0.043001,0.966745,0.252102,0.000000,0.000000,0.000000,-1,-0.617297,-0.242169,0.662949,0.130751,-0.183327,0.000875
"2019-11-26 16:49:16.611 +0000",1574786956.610961,2.934011,-1.298753,-0.148315,0.055378,0.963224,0.262932,0.000000,0.000000,0.000000,-1,-0.561266,-0.140557,0.579482,0.157315,-0.172787,-0.002402
"2019-11-26 16:49:16.631 +0000",1574786956.631050,2.905921,-1.288042,-0.175573,0.065146,0.960291,0.271289,0.000000,0.000000,0.000000,-1,-0.383319,-0.094802,0.438938,0.105402,-0.152504,-0.071504
"2019-11-26 16:49:16.651 +0000",1574786956.651136,2.888703,-1.283731,-0.192376,0.070842,0.959079,0.274133,0.000000,0.000000,0.000000,-1,-0.079143,-0.041145,0.228808,0.066899,-0.137834,-0.096382
"2019-11-26 16:49:16.671 +0000",1574786956.671225,2.882860,-1.286287,-0.198271,0.071815,0.959800,0.271344,0.000000,0.000000,0.000000,-1,0.206597,-0.000169,-0.010097,0.014519,-0.122747,-0.056940
"2019-11-26 16:49:16.691 +0000",1574786956.691311,2.889162,-1.292769,-0.193169,0.068548,0.961599,0.265761,0.000000,0.000000,0.000000,-1,0.307927,0.099176,-0.179090,-0.074484,-0.167103,0.087147
"2019-11-26 16:49:16.711 +0000",1574786956.711398,2.904278,-1.300032,-0.179416,0.062880,0.963567,0.259972,0.000000,0.000000,0.000000,-1,0.293546,0.071454,-0.293220,-0.123488,-0.140216,0.200098
"2019-11-26 16:49:16.731 +0000",1574786956.731486,2.927976,-1.304408,-0.155650,0.055808,0.964728,0.257266,0.000000,0.000000,0.000000,-1,0.076918,0.022625,-0.361696,-0.161871,-0.088887,0.161880
"2019-11-26 16:49:16.752 +0000",1574786956.751574,2.954865,-1.305436,-0.126320,0.048687,0.964998,0.257698,0.000000,0.000000,0.000000,-1,-0.051032,-0.097703,-0.388281,-0.156612,-0.053025,0.064508
"2019-11-26 16:49:16.772 +0000",1574786956.771660,2.978063,-1.304889,-0.098549,0.042782,0.964854,0.259280,0.000000,0.000000,0.000000,-1,-0.120129,-0.209071,-0.327187,-0.085278,0.051474,0.003311
"2019-11-26 16:49:16.792 +0000",1574786956.791749,2.984414,-1.302299,-0.080394,0.041525,0.964171,0.262013,0.000000,0.000000,0.000000,-1,-0.163139,-0.663893,-0.168963,0.082330,0.187427,-0.006732
"2019-11-26 16:49:16.812 +0000",1574786956.811837,2.971597,-1.301968,-0.078328,0.044934,0.964083,0.261773,0.000000,0.000000,0.000000,-1,0.018786,-0.763795,0.026055,0.193607,0.219955,0.136178
"2019-11-26 16:49:16.832 +0000",1574786956.831923,2.956107,-1.302206,-0.079048,0.048941,0.964146,0.260820,0.000000,0.000000,0.000000,-1,-0.012364,-0.711909,-0.015529,0.126184,0.105222,0.369003
"2019-11-26 16:49:16.852 +0000",1574786956.852011,2.955921,-1.296870,-0.067649,0.049939,0.962716,0.265864,0.000000,0.000000,0.000000,-1,-0.405078,-0.495882,-0.119457,0.151050,0.103478,0.415748
"2019-11-26 16:49:16.872 +0000",1574786956.872099,2.962178,-1.283575,-0.053033,0.050554,0.959035,0.278742,0.000000,0.000000,0.000000,-1,-0.762129,-0.364302,-0.049951,0.195326,0.314084,0.084068
"2019-11-26 16:49:16.892 +0000",1574786956.892185,2.960613,-1.271082,-0.048151,0.053143,0.955421,0.290425,0.000000,0.000000,0.000000,-1,-0.531943,-0.273960,0.066849,0.111988,0.438547,-0.238055
"2019-11-26 16:49:16.912 +0000",1574786956.912277,2.954477,-1.271756,-0.053651,0.054804,0.955620,0.289461,0.000000,0.000000,0.000000,-1,0.256038,0.036035,0.065528,0.091726,0.260355,-0.417449
"2019-11-26 16:49:16.932 +0000",1574786956.932361,2.944428,-1.284183,-0.065244,0.055379,0.959207,0.277229,0.000000,0.000000,0.000000,-1,0.704932,0.010871,0.044842,0.096248,-0.039970,-0.423909
"2019-11-26 16:49:16.952 +0000",1574786956.952449,2.927184,-1.294390,-0.077340,0.058065,0.962042,0.266652,0.000000,0.000000,0.000000,-1,0.441697,-0.390340,0.060988,0.019007,-0.135304,-0.318820
"2019-11-26 16:49:16.973 +0000",1574786956.972537,2.912933,-1.298802,-0.081066,0.060896,0.963237,0.261660,0.000000,0.000000,0.000000,-1,0.155843,-0.534271,-0.024181,-0.112379,-0.115533,-0.329941
"2019-11-26 16:49:16.993 +0000",1574786956.992629,2.911857,-1.304258,-0.073435,0.059980,0.964688,0.256473,0.000000,0.000000,0.000000,-1,0.301808,-0.394573,-0.212371,-0.175107,-0.027065,-0.377947
"2019-11-26 16:49:17.013 +0000",1574786957.012710,2.924443,-1.317949,-0.055772,0.053897,0.968204,0.244287,0.000000,0.000000,0.000000,-1,0.703107,-0.145227,-0.409863,-0.139575,0.071348,-0.344124
"2019-11-26 16:49:17.033 +0000",1574786957.032798,2.946896,-1.338462,-0.034907,0.044546,0.973132,0.225899,0.000000,0.000000,0.000000,-1,1.011660,0.207638,-0.455895,-0.036169,0.076659,-0.228537
"2019-11-26 16:49:17.053 +0000",1574786957.052885,2.969724,-1.360333,-0.018735,0.035729,0.977934,0.205836,0.000000,0.000000,0.000000,-1,1.007895,0.362623,-0.327157,0.093864,-0.048932,-0.138558
"2019-11-26 16:49:17.073 +0000",1574786957.072972,2.981825,-1.375221,-0.015997,0.030916,0.980936,0.191857,0.000000,0.000000,0.000000,-1,0.618170,0.509069,-0.089418,0.177718,-0.083550,-0.025900
"2019-11-26 16:49:17.093 +0000",1574786957.093060,2.981336,-1.383281,-0.026454,0.029747,0.982470,0.184030,0.000000,0.000000,0.000000,-1,0.346339,0.444047,0.072200,0.117378,-0.046342,-0.149665
"2019-11-26 16:49:17.113 +0000",1574786957.113153,2.969524,-1.390490,-0.044922,0.030705,0.983789,0.176682,0.000000,0.000000,0.000000,-1,0.399122,0.351316,0.107364,0.028957,-0.026420,-0.118880
"2019-11-26 16:49:17.133 +0000",1574786957.133235,2.958394,-1.400921,-0.063214,0.030799,0.985606,0.166231,0.000000,0.000000,0.000000,-1,0.566136,0.328300,0.049846,-0.015601,-0.060891,-0.178665
"2019-11-26 16:49:17.153 +0000",1574786957.153322,2.924227,-1.413826,-0.103302,0.033713,0.987705,0.152649,0.000000,0.000000,0.000000,-1,0.722733,0.286987,-0.025187,-0.058722,-0.135058,-0.165694
"2019-11-26 16:49:17.173 +0000",1574786957.173410,2.893403,-1.430309,-0.139912,0.034397,0.990148,0.135735,0.000000,0.000000,0.000000,-1,0.840808,0.299536,-0.094026,-0.137745,-0.139973,-0.131355
"2019-11-26 16:49:17.193 +0000",1574786957.193497,2.889924,-1.448302,-0.149976,0.030427,0.992507,0.118339,0.000000,0.000000,0.000000,-1,0.896563,0.325094,-0.178980,-0.208909,-0.118574,-0.095113
"2019-11-26 16:49:17.214 +0000",1574786957.213585,2.897115,-1.466557,-0.148880,0.025185,0.994572,0.100956,0.000000,0.000000,0.000000,-1,0.840925,0.300190,-0.237302,-0.222298,-0.054950,-0.036044
"2019-11-26 16:49:17.234 +0000",1574786957.233673,2.922834,-1.483511,-0.127614,0.018918,0.996193,0.085097,0.000000,0.000000,0.000000,-1,0.766950,0.228680,-0.264211,-0.157773,-0.054175,0.020754
"2019-11-26 16:49:17.254 +0000",1574786957.253760,2.934642,-1.496392,-0.116673,0.015275,0.997233,0.072751,0.000000,0.000000,0.000000,-1,0.541528,0.008933,-0.149784,-0.103989,-0.062219,0.035512
"2019-11-26 16:49:17.274 +0000",1574786957.273847,2.922174,-1.504894,-0.129657,0.014334,0.997829,0.064275,0.000000,0.000000,0.000000,-1,0.402392,0.042885,-0.011712,-0.028769,-0.050181,0.069592
"2019-11-26 16:49:17.294 +0000",1574786957.293934,2.864291,-1.512668,-0.190983,0.015905,0.998311,0.055878,0.000000,0.000000,0.000000,-1,0.415481,0.187065,0.132170,-0.002050,-0.003208,0.047884
"2019-11-26 16:49:17.314 +0000",1574786957.314021,2.814518,-1.519292,-0.248002,0.016540,0.998674,0.048752,0.000000,0.000000,0.000000,-1,0.436792,0.433393,0.210930,0.030366,0.059219,0.104173
"2019-11-26 16:49:17.334 +0000",1574786957.334110,2.822039,-1.525050,-0.251529,0.014367,0.998954,0.043419,0.000000,0.000000,0.000000,-1,0.445390,0.545531,0.252445,0.051169,0.037730,0.103921
"2019-11-26 16:49:17.354 +0000",1574786957.354196,2.719412,-1.527951,-0.365091,0.017551,0.999082,0.039074,0.000000,0.000000,0.000000,-1,0.441197,0.543089,0.346621,-0.015873,-0.013211,0.065191
"2019-11-26 16:49:17.374 +0000",1574786957.374285,2.574321,-1.529226,-0.523196,0.022332,0.999136,0.035051,0.000000,0.000000,0.000000,-1,0.441462,0.668697,0.323340,-0.185280,0.048045,-0.039825
"2019-11-26 16:49:17.394 +0000",1574786957.394373,2.399937,-1.531481,-0.707562,0.026553,0.999227,0.028984,0.000000,0.000000,0.000000,-1,0.375819,0.422496,0.198125,-0.326083,0.114193,-0.033651
"2019-11-26 16:49:17.414 +0000",1574786957.414464,2.273356,-1.534666,-0.839445,0.027567,0.999347,0.023341,0.000000,0.000000,0.000000,-1,0.243561,0.228767,0.022953,-0.333720,0.165266,0.074164
"2019-11-26 16:49:17.435 +0000",1574786957.434547,2.245874,-1.538606,-0.871167,0.025127,0.999482,0.020116,0.000000,0.000000,0.000000,-1,0.145876,0.202295,-0.164964,-0.263485,0.191941,0.145153
"2019-11-26 16:49:17.455 +0000",1574786957.454635,2.345297,-1.544657,-0.777156,0.018684,0.999658,0.018281,0.000000,0.000000,0.000000,-1,0.063644,0.295561,-0.354303,-0.194999,0.224983,0.151947
"2019-11-26 16:49:17.475 +0000",1574786957.474722,2.680126,-1.549522,-0.447337,0.009473,0.999774,0.019050,0.000000,0.000000,0.000000,-1,-0.073322,0.232219,-0.479580,-0.142667,0.278609,0.066019
"2019-11-26 16:49:17.495 +0000",1574786957.494809,-3.062508,-1.547575,0.090096,-0.001835,0.999730,0.023151,0.000000,0.000000,0.000000,-1,-0.270503,0.133263,-0.575830,-0.079662,0.272381,-0.108508
"2019-11-26 16:49:17.515 +0000",1574786957.514897,-2.706451,-1.535238,0.449913,-0.014986,0.999368,0.032238,0.000000,0.000000,0.000000,-1,-0.513009,-0.243526,-0.680598,0.014071,0.140541,-0.231487
"2019-11-26 16:49:17.535 +0000",1574786957.534985,-2.564464,-1.516862,0.598939,-0.029415,0.998546,0.045179,0.000000,0.000000,0.000000,-1,-0.675918,-0.417666,-0.743675,0.115856,-0.028162,-0.291409
"2019-11-26 16:49:17.555 +0000",1574786957.555071,-2.545771,-1.494970,0.623046,-0.042514,0.997127,0.062703,0.000000,0.000000,0.000000,-1,-0.942781,-0.177539,-0.624683,0.284014,-0.014902,-0.182086
"2019-11-26 16:49:17.575 +0000",1574786957.575160,-2.587202,-1.472060,0.583504,-0.051893,0.995130,0.083812,0.000000,0.000000,0.000000,-1,-1.082360,-0.125662,-0.421870,0.366743,0.104054,-0.212747
"2019-11-26 16:49:17.595 +0000",1574786957.595246,-2.645705,-1.449502,0.525217,-0.057572,0.992653,0.106423,0.000000,0.000000,0.000000,-1,-1.148508,0.025410,-0.242273,0.349183,0.302041,-0.183448
"2019-11-26 16:49:17.615 +0000",1574786957.615334,-2.694564,-1.427682,0.470831,-0.061656,0.989777,0.128611,0.000000,0.000000,0.000000,-1,-1.132687,0.333368,-0.159370,0.226100,0.347474,-0.216577
"2019-11-26 16:49:17.635 +0000",1574786957.635422,-2.721145,-1.406340,0.429746,-0.066824,0.986507,0.149457,0.000000,0.000000,0.000000,-1,-1.083970,0.830925,-0.161431,0.135107,0.249501,-0.105450
"2019-11-26 16:49:17.656 +0000",1574786957.655508,-2.733874,-1.386889,0.395634,-0.072512,0.983137,0.167882,0.000000,0.000000,0.000000,-1,-0.998652,1.081286,-0.102860,0.102755,0.208439,-0.069141
"2019-11-26 16:49:17.676 +0000",1574786957.675596,-2.749960,-1.369690,0.361642,-0.076246,0.979846,0.184630,0.000000,0.000000,0.000000,-1,-0.879691,0.727279,-0.010638,0.039945,0.145552,-0.181592
"2019-11-26 16:49:17.696 +0000",1574786957.695684,-2.776982,-1.356592,0.331470,-0.075799,0.977146,0.198597,0.000000,0.000000,0.000000,-1,-0.698635,-0.064904,0.058189,-0.038443,-0.008303,-0.213183
"2019-11-26 16:49:17.716 +0000",1574786957.715772,-2.819486,-1.345587,0.298761,-0.070692,0.974747,0.211826,0.000000,0.000000,0.000000,-1,-0.620236,-0.673836,0.180952,-0.066164,-0.191391,-0.217058
"2019-11-26 16:49:17.736 +0000",1574786957.735858,-2.874467,-1.336146,0.262196,-0.061372,0.972596,0.224257,0.000000,0.000000,0.000000,-1,-0.577455,-1.038954,0.271963,-0.020507,-0.251251,-0.187757
"2019-11-26 16:49:17.756 +0000",1574786957.755947,-2.928227,-1.326474,0.227315,-0.051222,0.970302,0.236413,0.000000,0.000000,0.000000,-1,-0.565032,-0.953707,0.289188,0.014281,-0.287638,-0.086693
"2019-11-26 16:49:17.776 +0000",1574786957.776033,-2.972826,-1.316382,0.197566,-0.042274,0.967811,0.248104,0.000000,0.000000,0.000000,-1,-0.588916,-0.729182,0.254420,0.047279,-0.248480,-0.023386
"2019-11-26 16:49:17.796 +0000",1574786957.796120,-3.006092,-1.305322,0.175375,-0.035442,0.964968,0.259962,0.000000,0.000000,0.000000,-1,-0.583348,-0.546175,0.175503,0.099941,-0.161333,-0.025204
"2019-11-26 16:49:17.816 +0000",1574786957.816208,-3.029827,-1.296298,0.162610,-0.030233,0.962561,0.269373,0.000000,0.000000,0.000000,-1,-0.442420,-0.587722,0.088858,0.127187,-0.131109,-0.077919
"2019-11-26 16:49:17.836 +0000",1574786957.836299,-3.050830,-1.291734,0.156635,-0.024967,0.961314,0.274321,0.000000,0.000000,0.000000,-1,-0.159983,-0.821562,0.050205,0.095966,-0.187342,-0.143018
"2019-11-26 16:49:17.856 +0000",1574786957.856383,-3.073274,-1.292999,0.152797,-0.018721,0.961662,0.273599,0.000000,0.000000,0.000000,-1,0.103584,-0.955952,0.062657,0.017683,-0.244055,-0.110695
"2019-11-26 16:49:17.876 +0000",1574786957.876471,-3.098127,-1.297620,0.147199,-0.011723,0.962919,0.269537,0.000000,0.000000,0.000000,-1,0.255146,-0.969424,0.098356,-0.056987,-0.233075,-0.016026
"2019-11-26 16:49:17.897 +0000",1574786957.896557,-3.124367,-1.304214,0.141055,-0.004538,0.964677,0.263397,0.000000,0.000000,0.000000,-1,0.325267,-1.030086,0.085069,-0.119410,-0.170731,0.034273
"2019-11-26 16:49:17.917 +0000",1574786957.916651,3.134613,-1.310829,0.136999,0.001794,0.966398,0.257044,0.000000,0.000000,0.000000,-1,0.323186,-0.985220,0.039712,-0.141153,-0.091504,0.035606
"2019-11-26 16:49:17.937 +0000",1574786957.936734,3.115971,-1.317619,0.135294,0.006417,0.968121,0.250399,0.000000,0.000000,0.000000,-1,0.326261,-0.792213,0.013246,-0.073083,-0.008831,-0.015611
"2019-11-26 16:49:17.957 +0000",1574786957.956821,3.099930,-1.323322,0.130565,0.010203,0.969534,0.244744,0.000000,0.000000,0.000000,-1,0.261855,-0.496580,0.064678,0.073065,0.159343,-0.055107
"2019-11-26 16:49:17.977 +0000",1574786957.976913,3.080419,-1.328519,0.119441,0.014667,0.970794,0.239466,0.000000,0.000000,0.000000,-1,0.254746,-0.432575,0.139205,0.187619,0.315248,-0.035896
"2019-11-26 16:49:17.997 +0000",1574786957.996996,3.055619,-1.334139,0.103821,0.020132,0.972127,0.233588,0.000000,0.000000,0.000000,-1,0.302729,-0.498659,0.162385,0.181711,0.314938,0.102519
"2019-11-26 16:49:18.017 +0000",1574786958.017083,3.039009,-1.337935,0.096887,0.023631,0.973010,0.229549,0.000000,0.000000,0.000000,-1,0.121384,-0.482076,0.018205,0.023397,0.200133,0.285650
"2019-11-26 16:49:18.037 +0000",1574786958.037170,3.043378,-1.335931,0.110192,0.022819,0.972546,0.231590,0.000000,0.000000,0.000000,-1,-0.188059,-0.395685,-0.185253,-0.088035,0.029759,0.375360
"2019-11-26 16:49:18.057 +0000",1574786958.057257,3.063830,-1.328414,0.135844,0.018646,0.970769,0.239291,0.000000,0.000000,0.000000,-1,-0.485617,-0.157906,-0.278188,-0.029861,-0.041538,0.359282
"2019-11-26 16:49:18.077 +0000",1574786958.077345,3.076679,-1.317765,0.154145,0.016239,0.968158,0.249813,0.000000,0.000000,0.000000,-1,-0.541966,-0.256581,-0.143998,-0.002125,0.060133,0.088644
"2019-11-26 16:49:18.097 +0000",1574786958.097432,3.081321,-1.310096,0.160720,0.015526,0.966210,0.257290,0.000000,0.000000,0.000000,-1,-0.333392,-0.063154,-0.033182,0.045463,0.293786,-0.057475
"2019-11-26 16:49:18.118 +0000",1574786958.117519,3.080963,-1.310007,0.154442,0.015623,0.966187,0.257370,0.000000,0.000000,0.000000,-1,0.129253,0.439100,0.113519,0.060686,0.391313,-0.229842
"2019-11-26 16:49:18.138 +0000",1574786958.137608,3.083720,-1.321497,0.144128,0.014271,0.969085,0.246312,0.000000,0.000000,0.000000,-1,0.694102,0.654230,0.075925,0.165768,0.335008,-0.417682
"2019-11-26 16:49:18.158 +0000",1574786958.157695,3.088527,-1.335838,0.141197,0.012348,0.972524,0.232475,0.000000,0.000000,0.000000,-1,0.669856,0.274010,-0.022857,0.191097,0.056789,-0.300986
"2019-11-26 16:49:18.178 +0000",1574786958.177781,3.090455,-1.342286,0.143897,0.011579,0.974005,0.226231,0.000000,0.000000,0.000000,-1,0.170838,-0.122913,-0.053933,0.089099,-0.189611,-0.206866
"2019-11-26 16:49:18.198 +0000",1574786958.197869,3.091114,-1.341783,0.147856,0.011455,0.973891,0.226728,0.000000,0.000000,0.000000,-1,-0.061659,-0.157066,-0.040799,0.034261,-0.254652,-0.269894
"2019-11-26 16:49:18.218 +0000",1574786958.217957,3.089594,-1.343234,0.149196,0.011726,0.974219,0.225299,0.000000,0.000000,0.000000,-1,0.107344,-0.131084,-0.014436,0.005242,-0.182272,-0.321825
"2019-11-26 16:49:18.238 +0000",1574786958.238044,3.085537,-1.351066,0.145431,0.012212,0.975956,0.217625,0.000000,0.000000,0.000000,-1,0.498553,0.020139,0.032885,-0.027349,-0.066028,-0.346454
"2019-11-26 16:49:18.258 +0000",1574786958.258132,3.079447,-1.367661,0.137388,0.012529,0.979439,0.201353,0.000000,0.000000,0.000000,-1,0.903607,0.113425,0.027574,-0.057619,0.058846,-0.294751
"2019-11-26 16:49:18.278 +0000",1574786958.278220,3.075778,-1.387068,0.129365,0.012015,0.983169,0.182301,0.000000,0.000000,0.000000,-1,0.961794,0.243848,0.013630,-0.003272,0.076280,-0.135395
"2019-11-26 16:49:18.298 +0000",1574786958.298308,3.072182,-1.402285,0.118238,0.011632,0.985836,0.167311,0.000000,0.000000,0.000000,-1,0.654737,0.413462,0.052062,0.059016,0.005117,-0.059431
"2019-11-26 16:49:18.318 +0000",1574786958.318395,3.070658,-1.411061,0.106020,0.011273,0.987269,0.158657,0.000000,0.000000,0.000000,-1,0.385360,0.544497,0.069786,0.090686,-0.034907,-0.106181
"2019-11-26 16:49:18.338 +0000",1574786958.338481,3.069375,-1.418270,0.095561,0.010963,0.988390,0.151540,0.000000,0.000000,0.000000,-1,0.337770,0.413109,0.044094,0.089654,-0.059435,-0.178410
"2019-11-26 16:49:18.359 +0000",1574786958.358573,3.069958,-1.427763,0.089878,0.010203,0.989788,0.142180,0.000000,0.000000,0.000000,-1,0.447956,0.284073,-0.017403,0.028936,-0.065059,-0.185728
"2019-11-26 16:49:18.379 +0000",1574786958.378659,3.070573,-1.440770,0.084897,0.009201,0.991558,0.129333,0.000000,0.000000,0.000000,-1,0.628180,0.296725,-0.119357,-0.045547,-0.075115,-0.146224
"2019-11-26 16:49:18.399 +0000",1574786958.398744,3.070351,-1.457610,0.078823,0.008040,0.993601,0.112658,0.000000,0.000000,0.000000,-1,0.756240,0.321514,-0.229104,-0.115446,-0.074183,-0.118548
"2019-11-26 16:49:18.419 +0000",1574786958.418831,3.076883,-1.477089,0.079842,0.006051,0.995613,0.093375,0.000000,0.000000,0.000000,-1,0.770568,0.287830,-0.254161,-0.132790,-0.056678,-0.081397
"2019-11-26 16:49:18.439 +0000",1574786958.438919,3.093928,-1.494665,0.091988,0.003624,0.997103,0.075969,0.000000,0.000000,0.000000,-1,0.676779,0.235277,-0.160894,-0.089973,-0.033938,-0.035976
"2019-11-26 16:49:18.459 +0000",1574786958.459005,3.089581,-1.507177,0.084504,0.003305,0.997977,0.063491,0.000000,0.000000,0.000000,-1,0.508219,0.133990,0.041049,-0.025080,-0.046836,0.019395
"2019-11-26 16:49:18.479 +0000",1574786958.479093,3.019600,-1.514762,0.010601,0.006816,0.998430,0.055591,0.000000,0.000000,0.000000,-1,0.361487,0.220938,0.232366,0.002874,-0.056750,0.066647
"2019-11-26 16:49:18.499 +0000",1574786958.499181,2.881122,-1.520396,-0.135215,0.012975,0.998730,0.048682,0.000000,0.000000,0.000000,-1,0.324066,0.406869,0.348441,0.023005,-0.041592,0.060342
"2019-11-26 16:49:18.519 +0000",1574786958.519267,2.745001,-1.525081,-0.283615,0.017653,0.998955,0.042153,0.000000,0.000000,0.000000,-1,0.343848,0.689112,0.389894,0.022691,0.010322,0.065086
"2019-11-26 16:49:18.539 +0000",1574786958.539356,2.578202,-1.527372,-0.466027,0.023185,0.999057,0.036704,0.000000,0.000000,0.000000,-1,0.345167,0.751221,0.382800,-0.000999,0.037976,0.015969
"2019-11-26 16:49:18.559 +0000",1574786958.559442,2.439309,-1.526570,-0.621785,0.028558,0.999022,0.033749,0.000000,0.000000,0.000000,-1,0.306847,0.855340,0.338969,-0.032052,0.005952,0.012775
"2019-11-26 16:49:18.580 +0000",1574786958.579530,2.324831,-1.524398,-0.753452,0.033809,0.998924,0.031752,0.000000,0.000000,0.000000,-1,0.247257,0.836144,0.290607,-0.103603,-0.049690,-0.010177
"2019-11-26 16:49:18.600 +0000",1574786958.599617,2.262912,-1.522762,-0.833727,0.036967,0.998847,0.030642,0.000000,0.000000,0.000000,-1,0.165290,0.962667,0.147931,-0.239069,-0.008811,-0.002566
"2019-11-26 16:49:18.620 +0000",1574786958.619704,2.250265,-1.524445,-0.863862,0.036043,0.998926,0.029115,0.000000,0.000000,0.000000,-1,0.116010,0.788034,-0.062578,-0.348451,0.016745,-0.075684
"2019-11-26 16:49:18.640 +0000",1574786958.639792,2.293692,-1.529296,-0.831541,0.031112,0.999139,0.027447,0.000000,0.000000,0.000000,-1,0.097666,0.494169,-0.285565,-0.346572,0.108253,0.006351
"2019-11-26 16:49:18.660 +0000",1574786958.659880,2.438962,-1.536903,-0.693974,0.021898,0.999426,0.025860,0.000000,0.000000,0.000000,-1,0.063833,0.348856,-0.489047,-0.221757,0.246348,0.035176
"2019-11-26 16:49:18.680 +0000",1574786958.679967,2.778759,-1.542198,-0.357374,0.010147,0.999591,0.026729,0.000000,0.000000,0.000000,-1,-0.084880,0.094429,-0.606914,-0.085922,0.320187,0.048360
"2019-11-26 16:49:18.700 +0000",1574786958.700054,-3.032035,-1.539355,0.115664,-0.003438,0.999506,0.031251,0.000000,0.000000,0.000000,-1,-0.292894,-0.044179,-0.690531,-0.012844,0.242422,-0.003526
"2019-11-26 16:49:18.720 +0000",1574786958.720142,-2.724886,-1.526854,0.422874,-0.017782,0.999035,0.040173,0.000000,0.000000,0.000000,-1,-0.490932,0.032221,-0.718291,-0.000529,0.153691,-0.132229
"2019-11-26 16:49:18.740 +0000",1574786958.740235,-2.596436,-1.509822,0.549763,-0.031600,0.998142,0.052105,0.000000,0.000000,0.000000,-1,-0.658896,0.101844,-0.661920,0.188094,0.070614,-0.209271
"2019-11-26 16:49:18.760 +0000",1574786958.760316,-2.576330,-1.491307,0.564986,-0.042533,0.996842,0.067055,0.000000,0.000000,0.000000,-1,-0.787312,0.305335,-0.478498,0.429542,0.126220,-0.133263
"2019-11-26 16:49:18.780 +0000",1574786958.780410,-2.609255,-1.474808,0.520271,-0.048644,0.995397,0.082580,0.000000,0.000000,0.000000,-1,-0.833534,0.662813,-0.192902,0.504333,0.203929,-0.134246
"2019-11-26 16:49:18.800 +0000",1574786958.800492,-2.665838,-1.460172,0.447372,-0.050564,0.993887,0.098139,0.000000,0.000000,0.000000,-1,-0.814899,0.828500,0.023836,0.412136,0.226938,-0.195398
"2019-11-26 16:49:18.821 +0000",1574786958.820579,-2.713343,-1.446660,0.381246,-0.051419,0.992305,0.112637,0.000000,0.000000,0.000000,-1,-0.801634,0.920715,0.037137,0.229932,0.187611,-0.198620
"2019-11-26 16:49:18.841 +0000",1574786958.840667,-2.738362,-1.431608,0.335762,-0.054440,0.990329,0.127611,0.000000,0.000000,0.000000,-1,-0.807671,1.031646,-0.054190,0.109539,0.122250,-0.102266
"2019-11-26 16:49:18.861 +0000",1574786958.860754,-2.745443,-1.416869,0.307288,-0.059161,0.988177,0.141446,0.000000,0.000000,0.000000,-1,-0.780143,1.036523,-0.117016,0.035037,0.142561,-0.096402
"2019-11-26 16:49:18.881 +0000",1574786958.880841,-2.749582,-1.402141,0.285055,-0.064129,0.985811,0.155124,0.000000,0.000000,0.000000,-1,-0.737191,0.839714,-0.115343,-0.009037,0.149931,-0.139834
"2019-11-26 16:49:18.901 +0000",1574786958.900929,-2.761338,-1.389636,0.263687,-0.066872,0.983635,0.167301,0.000000,0.000000,0.000000,-1,-0.663237,0.309971,-0.057655,-0.020348,0.047279,-0.203632
"2019-11-26 16:49:18.921 +0000",1574786958.921016,-2.789658,-1.378480,0.237322,-0.065886,0.981564,0.179418,0.000000,0.000000,0.000000,-1,-0.587881,-0.246142,0.060052,0.012267,-0.110486,-0.165853
"2019-11-26 16:49:18.941 +0000",1574786958.941104,-2.833773,-1.370581,0.201810,-0.060257,0.980024,0.189533,0.000000,0.000000,0.000000,-1,-0.494101,-0.520155,0.230017,0.057435,-0.232496,-0.113163
"2019-11-26 16:49:18.961 +0000",1574786958.961192,-2.889652,-1.363989,0.156058,-0.051187,0.978691,0.198854,0.000000,0.000000,0.000000,-1,-0.428084,-0.544852,0.389175,0.073053,-0.254204,-0.054292
"2019-11-26 16:49:18.981 +0000",1574786958.981278,-2.947830,-1.358659,0.105567,-0.040542,0.977583,0.206610,0.000000,0.000000,0.000000,-1,-0.396353,-0.398848,0.456692,0.076614,-0.208098,-0.010397
"2019-11-26 16:49:19.001 +0000",1574786959.001370,-2.999531,-1.352395,0.057981,-0.030677,0.976245,0.214486,0.000000,0.000000,0.000000,-1,-0.392054,-0.212279,0.437940,0.090888,-0.125857,0.028602
"2019-11-26 16:49:19.021 +0000",1574786959.021454,-3.039336,-1.347328,0.019852,-0.022622,0.975135,0.220456,0.000000,0.000000,0.000000,-1,-0.296995,-0.108161,0.348094,0.100457,-0.081580,-0.007596
"2019-11-26 16:49:19.042 +0000",1574786959.041541,-3.064150,-1.344709,-0.003521,-0.017343,0.974551,0.223495,0.000000,0.000000,0.000000,-1,-0.100542,-0.105629,0.209607,0.087915,-0.086764,-0.053284
"2019-11-26 16:49:19.062 +0000",1574786959.061629,-3.077664,-1.346751,-0.013054,-0.014194,0.975007,0.221723,0.000000,0.000000,0.000000,-1,0.128665,-0.253019,0.075140,0.044528,-0.121430,-0.075101
"2019-11-26 16:49:19.082 +0000",1574786959.081717,-3.084872,-1.351640,-0.012661,-0.012325,0.976081,0.217056,0.000000,0.000000,0.000000,-1,0.272888,-0.419491,-0.008361,-0.019902,-0.167854,-0.020585
"2019-11-26 16:49:19.102 +0000",1574786959.101803,-3.092535,-1.357701,-0.009952,-0.010371,0.977381,0.211233,0.000000,0.000000,0.000000,-1,0.274393,-0.537403,-0.021010,-0.089818,-0.195338,0.053659
"2019-11-26 16:49:19.122 +0000",1574786959.121890,-3.100751,-1.361241,-0.006996,-0.008494,0.978124,0.207851,0.000000,0.000000,0.000000,-1,0.139030,-0.547086,-0.026316,-0.152151,-0.178182,0.103168
"2019-11-26 16:49:19.142 +0000",1574786959.141983,-3.106570,-1.362471,-0.001888,-0.007242,0.978379,0.206695,0.000000,0.000000,0.000000,-1,0.020319,-0.535205,-0.064849,-0.165960,-0.128312,0.078933
"2019-11-26 16:49:19.162 +0000",1574786959.162066,-3.107863,-1.362852,0.007515,-0.006962,0.978457,0.206332,0.000000,0.000000,0.000000,-1,0.031725,-0.520693,-0.105753,-0.124767,-0.062931,0.020809
"2019-11-26 16:49:19.182 +0000",1574786959.182157,-3.110164,-1.365368,0.016430,-0.006410,0.978974,0.203886,0.000000,0.000000,0.000000,-1,0.137923,-0.561634,-0.078464,-0.038008,0.044783,-0.010559
"2019-11-26 16:49:19.202 +0000",1574786959.202241,-3.121556,-1.369052,0.018234,-0.004015,0.979719,0.200339,0.000000,0.000000,0.000000,-1,0.191757,-0.688120,0.007800,0.054231,0.192796,0.037529
"2019-11-26 16:49:19.222 +0000",1574786959.222328,-3.141297,-1.373660,0.013384,-0.000058,0.980631,0.195862,0.000000,0.000000,0.000000,-1,0.215809,-0.763722,0.050355,0.062299,0.285450,0.118467
"2019-11-26 16:49:19.242 +0000",1574786959.242415,3.129644,-1.377233,0.015520,0.002298,0.981325,0.192343,0.000000,0.000000,0.000000,-1,0.153830,-0.687418,-0.055344,-0.007044,0.235364,0.254295
"2019-11-26 16:49:19.263 +0000",1574786959.262503,3.136111,-1.377593,0.034173,0.001052,0.981394,0.192001,0.000000,0.000000,0.000000,-1,-0.061985,-0.559666,-0.224606,-0.070968,0.131840,0.341612
"2019-11-26 16:49:19.283 +0000",1574786959.282589,-3.128293,-1.371931,0.064419,-0.002627,0.980291,0.197540,0.000000,0.000000,0.000000,-1,-0.354613,-0.542937,-0.305858,-0.047452,0.039803,0.324171
"2019-11-26 16:49:19.303 +0000",1574786959.302678,-3.114381,-1.362105,0.090235,-0.005637,0.978303,0.207103,0.000000,0.000000,0.000000,-1,-0.548786,-0.595467,-0.279205,-0.000039,0.121016,0.119495
"2019-11-26 16:49:19.323 +0000",1574786959.322765,-3.110083,-1.352622,0.103666,-0.006819,0.976294,0.216340,0.000000,0.000000,0.000000,-1,-0.420416,-0.363984,-0.114530,0.007826,0.305412,-0.040499
"2019-11-26 16:49:19.343 +0000",1574786959.342853,-3.112553,-1.350752,0.103957,-0.006338,0.975888,0.218182,0.000000,0.000000,0.000000,-1,0.005915,-0.057398,0.026129,0.109106,0.450686,-0.292493
"2019-11-26 16:49:19.363 +0000",1574786959.362941,-3.122960,-1.358999,0.091923,-0.003917,0.977655,0.210181,0.000000,0.000000,0.000000,-1,0.537539,0.065276,0.169688,0.244990,0.322561,-0.454735
"2019-11-26 16:49:19.383 +0000",1574786959.383031,3.140039,-1.370617,0.074841,0.000309,0.980031,0.198845,0.000000,0.000000,0.000000,-1,0.507503,-0.249250,0.164983,0.209576,-0.041769,-0.267449
"2019-11-26 16:49:19.403 +0000",1574786959.403115,3.121745,-1.374797,0.063681,0.003865,0.980853,0.194709,0.000000,0.000000,0.000000,-1,0.099157,-0.403103,0.082233,0.090755,-0.261433,-0.145989
"2019-11-26 16:49:19.423 +0000",1574786959.423202,3.110410,-1.372808,0.060591,0.006133,0.980464,0.196601,0.000000,0.000000,0.000000,-1,-0.174015,-0.409925,0.006140,0.030809,-0.309124,-0.209527
"2019-11-26 16:49:19.443 +0000",1574786959.443291,3.101225,-1.370498,0.060110,0.008029,0.980007,0.198800,0.000000,0.000000,0.000000,-1,-0.076030,-0.444595,0.017455,0.059247,-0.246045,-0.313913
"2019-11-26 16:49:19.463 +0000",1574786959.463377,3.084199,-1.374693,0.050748,0.011177,0.980833,0.194529,0.000000,0.000000,0.000000,-1,0.293232,-0.360536,0.097851,0.043083,-0.088042,-0.372431
"2019-11-26 16:49:19.483 +0000",1574786959.483465,3.063190,-1.388653,0.034324,0.014187,0.983458,0.180582,0.000000,0.000000,0.000000,-1,0.847635,-0.201477,0.101262,-0.001843,0.115083,-0.374644
"2019-11-26 16:49:19.504 +0000",1574786959.503556,3.047755,-1.410277,0.018067,0.014976,0.987144,0.159129,0.000000,0.000000,0.000000,-1,1.085106,0.129815,0.010363,0.017571,0.173851,-0.153895
"2019-11-26 16:49:19.524 +0000",1574786959.523640,3.051756,-1.427734,0.013852,0.012791,0.989784,0.142000,0.000000,0.000000,0.000000,-1,0.770920,0.488166,-0.067144,0.083766,0.076530,0.027021
"2019-11-26 16:49:19.544 +0000",1574786959.543730,3.070619,-1.437401,0.019596,0.009432,0.991116,0.132665,0.000000,0.000000,0.000000,-1,0.348671,0.701796,-0.091204,0.158995,-0.038373,0.020304
"2019-11-26 16:49:19.564 +0000",1574786959.563815,3.092488,-1.441187,0.029324,0.006344,0.991612,0.129090,0.000000,0.000000,0.000000,-1,0.142410,0.561329,-0.069724,0.145969,-0.117528,-0.069185
"2019-11-26 16:49:19.584 +0000",1574786959.583906,3.109143,-1.444674,0.037572,0.004081,0.992057,0.125722,0.000000,0.000000,0.000000,-1,0.161954,0.388867,-0.073772,0.042336,-0.145408,-0.126851
"2019-11-26 16:49:19.604 +0000",1574786959.603990,3.136300,-1.452092,0.058213,0.000627,0.992963,0.118424,0.000000,0.000000,0.000000,-1,0.445235,0.323600,-0.158694,-0.086030,-0.138913,-0.142335
"2019-11-26 16:49:19.624 +0000",1574786959.624076,-3.095089,-1.465654,0.103757,-0.004879,0.994478,0.104834,0.000000,0.000000,0.000000,-1,0.715168,0.324576,-0.274600,-0.185932,-0.108415,-0.128287
"2019-11-26 16:49:19.644 +0000",1574786959.644168,-3.016480,-1.480789,0.178228,-0.011216,0.995952,0.089182,0.000000,0.000000,0.000000,-1,0.788544,0.179662,-0.294417,-0.215178,-0.040004,-0.094217
"2019-11-26 16:49:19.664 +0000",1574786959.664252,-2.933176,-1.494872,0.260675,-0.015694,0.997119,0.074209,0.000000,0.000000,0.000000,-1,0.689379,0.019534,-0.197874,-0.155876,0.021634,-0.013555
"2019-11-26 16:49:19.684 +0000",1574786959.684339,-2.869292,-1.505289,0.325206,-0.017606,0.997855,0.063049,0.000000,0.000000,0.000000,-1,0.509842,-0.031778,-0.061559,-0.077426,0.007775,0.055207
"2019-11-26 16:49:19.704 +0000",1574786959.704426,-2.852268,-1.512849,0.342070,-0.016524,0.998322,0.055509,0.000000,0.000000,0.000000,-1,0.299195,0.027071,0.087736,-0.030885,-0.032348,0.099536
"2019-11-26 16:49:19.725 +0000",1574786959.724514,-2.861879,-1.517496,0.330083,-0.014709,0.998580,0.051206,0.000000,0.000000,0.000000,-1,0.173189,0.144094,0.191380,-0.010667,-0.021132,0.104678
"2019-11-26 16:49:19.745 +0000",1574786959.744601,-2.864183,-1.520930,0.322519,-0.013651,0.998757,0.047941,0.000000,0.000000,0.000000,-1,0.175222,0.291893,0.212209,-0.008306,-0.004677,0.088244
"2019-11-26 16:49:19.765 +0000",1574786959.764689,-2.860602,-1.523860,0.318679,-0.013011,0.998899,0.045078,0.000000,0.000000,0.000000,-1,0.241278,0.383154,0.169455,-0.008687,0.013934,0.079159
"2019-11-26 16:49:19.785 +0000",1574786959.784775,-2.863312,-1.526747,0.307892,-0.012096,0.999030,0.042339,0.000000,0.000000,0.000000,-1,0.299915,0.371931,0.133753,-0.014958,-0.000434,0.055241
"2019-11-26 16:49:19.805 +0000",1574786959.804864,-2.898316,-1.528892,0.265290,-0.010092,0.999122,0.040663,0.000000,0.000000,0.000000,-1,0.277042,0.375944,0.180481,-0.045190,-0.021018,0.047639
"2019-11-26 16:49:19.825 +0000",1574786959.824952,-2.972832,-1.531768,0.182905,-0.006553,0.999238,0.038463,0.000000,0.000000,0.000000,-1,0.276163,0.393884,0.245808,-0.131874,-0.017213,-0.025600
"2019-11-26 16:49:19.845 +0000",1574786959.845038,-3.056657,-1.534334,0.090678,-0.003092,0.999335,0.036320,0.000000,0.000000,0.000000,-1,0.226116,0.407400,0.214467,-0.264379,0.051675,-0.050266
"2019-11-26 16:49:19.865 +0000",1574786959.865125,-3.107085,-1.537772,0.035991,-0.001139,0.999455,0.032997,0.000000,0.000000,0.000000,-1,0.184725,0.156372,0.080450,-0.302511,0.106746,0.002251
"2019-11-26 16:49:19.885 +0000",1574786959.885214,-3.057606,-1.541099,0.083155,-0.002491,0.999559,0.029586,0.000000,0.000000,0.000000,-1,0.170252,0.100429,-0.110708,-0.242321,0.119948,0.101655
"2019-11-26 16:49:19.905 +0000",1574786959.905300,-2.879527,-1.543435,0.260461,-0.007088,0.999626,0.026424,0.000000,0.000000,0.000000,-1,0.139113,0.012244,-0.260251,-0.182823,0.174660,0.126713
"2019-11-26 16:49:19.925 +0000",1574786959.925388,-2.637668,-1.541649,0.504225,-0.014072,0.999575,0.025521,0.000000,0.000000,0.000000,-1,0.010627,-0.124545,-0.377717,-0.141644,0.253156,0.088860
"2019-11-26 16:49:19.945 +0000",1574786959.945477,-2.432721,-1.534308,0.712758,-0.023749,0.999334,0.027693,0.000000,0.000000,0.000000,-1,-0.143292,-0.182257,-0.526026,-0.074655,0.268076,0.008089
"2019-11-26 16:49:19.966 +0000",1574786959.965563,-2.330297,-1.522564,0.818722,-0.034964,0.998837,0.033198,0.000000,0.000000,0.000000,-1,-0.314371,-0.166803,-0.567259,0.025260,0.224995,-0.049830
"2019-11-26 16:49:19.986 +0000",1574786959.985650,-2.337115,-1.508395,0.814347,-0.044929,0.998054,0.043246,0.000000,0.000000,0.000000,-1,-0.560736,-0.102485,-0.474524,0.143379,0.159189,-0.160021
"2019-11-26 16:49:20.006 +0000",1574786960.005737,-2.406945,-1.492571,0.744499,-0.052384,0.996942,0.057990,0.000000,0.000000,0.000000,-1,-0.791098,0.040441,-0.332938,0.323258,0.063834,-0.179739
"2019-11-26 16:49:20.026 +0000",1574786960.025824,-2.497874,-1.476858,0.651778,-0.056297,0.995591,0.075028,0.000000,0.000000,0.000000,-1,-0.860807,0.047042,-0.144346,0.406013,0.045852,-0.211685
"2019-11-26 16:49:20.046 +0000",1574786960.045912,-2.585751,-1.461878,0.561718,-0.057358,0.994074,0.092338,0.000000,0.000000,0.000000,-1,-0.880441,0.113571,-0.024499,0.365875,0.132437,-0.202415
"2019-11-26 16:49:20.066 +0000",1574786960.066001,-2.653962,-1.444898,0.487196,-0.058832,0.992085,0.110931,0.000000,0.000000,0.000000,-1,-0.973388,0.354998,-0.060104,0.280848,0.179425,-0.172927
"2019-11-26 16:49:20.086 +0000",1574786960.086087,-2.692896,-1.425329,0.436383,-0.062880,0.989438,0.130607,0.000000,0.000000,0.000000,-1,-1.035522,0.640152,-0.159489,0.216399,0.159748,-0.105764
"2019-11-26 16:49:20.106 +0000",1574786960.106175,-2.710550,-1.405484,0.402659,-0.068756,0.986367,0.149508,0.000000,0.000000,0.000000,-1,-1.022689,0.814418,-0.199652,0.161667,0.140968,-0.090684
"2019-11-26 16:49:20.126 +0000",1574786960.126264,-2.724020,-1.386850,0.373607,-0.074178,0.983130,0.167195,0.000000,0.000000,0.000000,-1,-0.916899,0.712842,-0.129736,0.086645,0.148402,-0.200519
"2019-11-26 16:49:20.146 +0000",1574786960.146349,-2.743516,-1.372687,0.345319,-0.076295,0.980440,0.181427,0.000000,0.000000,0.000000,-1,-0.731300,0.293965,-0.015431,-0.009459,0.061400,-0.267593
"2019-11-26 16:49:20.166 +0000",1574786960.166437,-2.774956,-1.361409,0.314661,-0.074514,0.978158,0.194047,0.000000,0.000000,0.000000,-1,-0.611422,-0.190238,0.111276,-0.038966,-0.096413,-0.216507
"2019-11-26 16:49:20.187 +0000",1574786960.186524,-2.823081,-1.352634,0.274566,-0.067778,0.976297,0.205550,0.000000,0.000000,0.000000,-1,-0.569644,-0.518403,0.287514,-0.007463,-0.230843,-0.147063
"2019-11-26 16:49:20.207 +0000",1574786960.206612,-2.883727,-1.344731,0.224872,-0.057161,0.974556,0.216733,0.000000,0.000000,0.000000,-1,-0.521087,-0.620008,0.446795,0.030153,-0.288398,-0.099728
"2019-11-26 16:49:20.227 +0000",1574786960.226700,-2.944046,-1.337552,0.173628,-0.045364,0.972922,0.226640,0.000000,0.000000,0.000000,-1,-0.499624,-0.469261,0.477731,0.055633,-0.228719,-0.034272
"2019-11-26 16:49:20.247 +0000",1574786960.246785,-2.989611,-1.329110,0.131657,-0.036235,0.970936,0.236581,0.000000,0.000000,0.000000,-1,-0.501440,-0.156183,0.382917,0.101406,-0.139026,0.019874
"2019-11-26 16:49:20.267 +0000",1574786960.266874,-3.017491,-1.322133,0.104446,-0.030464,0.969242,0.244216,0.000000,0.000000,0.000000,-1,-0.373233,-0.054352,0.231720,0.149971,-0.085315,-0.017317
"2019-11-26 16:49:20.287 +0000",1574786960.286962,-3.032222,-1.319189,0.092030,-0.027175,0.968513,0.247474,0.000000,0.000000,0.000000,-1,-0.085279,-0.177928,0.105633,0.164031,-0.101768,-0.094458
"2019-11-26 16:49:20.307 +0000",1574786960.307049,-3.042753,-1.323171,0.088405,-0.024187,0.969497,0.243906,0.000000,0.000000,0.000000,-1,0.252649,-0.402919,0.047038,0.106965,-0.152327,-0.107965
"2019-11-26 16:49:20.327 +0000",1574786960.327141,-3.052267,-1.331441,0.088998,-0.021149,0.971491,0.236131,0.000000,0.000000,0.000000,-1,0.449287,-0.526936,0.029598,0.011872,-0.186121,-0.020921
"2019-11-26 16:49:20.347 +0000",1574786960.347224,-3.062738,-1.340947,0.089394,-0.017947,0.973701,0.227123,0.000000,0.000000,0.000000,-1,0.438354,-0.537247,0.028238,-0.090024,-0.176673,0.095815
"2019-11-26 16:49:20.367 +0000",1574786960.367314,-3.071157,-1.347805,0.091563,-0.015564,0.975240,0.220600,0.000000,0.000000,0.000000,-1,0.307174,-0.526653,-0.009679,-0.159638,-0.139516,0.154614
"2019-11-26 16:49:20.387 +0000",1574786960.387403,-3.078626,-1.352070,0.095885,-0.013654,0.976175,0.216557,0.000000,0.000000,0.000000,-1,0.163705,-0.605059,-0.045987,-0.169238,-0.093255,0.123714
"2019-11-26 16:49:20.407 +0000",1574786960.407490,-3.087482,-1.354386,0.101107,-0.011613,0.976675,0.214410,0.000000,0.000000,0.000000,-1,0.112621,-0.727050,-0.048243,-0.155486,-0.042013,0.024528
"2019-11-26 16:49:20.428 +0000",1574786960.427577,-3.102058,-1.358204,0.102994,-0.008339,0.977487,0.210831,0.000000,0.000000,0.000000,-1,0.199965,-0.844258,0.001169,-0.102394,0.065024,-0.029479
"2019-11-26 16:49:20.448 +0000",1574786960.447665,-3.124973,-1.363386,0.097779,-0.003422,0.978567,0.205899,0.000000,0.000000,0.000000,-1,0.269760,-0.895998,0.082847,-0.031475,0.204233,0.011265
"2019-11-26 16:49:20.468 +0000",1574786960.467752,3.131537,-1.369656,0.089199,0.002009,0.979839,0.199777,0.000000,0.000000,0.000000,-1,0.298575,-0.910767,0.076500,-0.015360,0.268940,0.103568
"2019-11-26 16:49:20.488 +0000",1574786960.487839,3.116766,-1.374725,0.092728,0.004836,0.980839,0.194758,0.000000,0.000000,0.000000,-1,0.226581,-0.899547,-0.086481,-0.057204,0.207058,0.247702
"2019-11-26 16:49:20.508 +0000",1574786960.507927,3.123298,-1.375223,0.116342,0.003555,0.980936,0.194296,0.000000,0.000000,0.000000,-1,-0.089169,-0.802577,-0.277161,-0.032714,0.174780,0.336389
"2019-11-26 16:49:20.528 +0000",1574786960.528015,3.133074,-1.365077,0.141311,0.001740,0.978914,0.204264,0.000000,0.000000,0.000000,-1,-0.655277,-0.716717,-0.210249,0.095519,0.312819,0.215902
"2019-11-26 16:49:20.548 +0000",1574786960.548102,3.130387,-1.347017,0.149183,0.002487,0.975066,0.221902,0.000000,0.000000,0.000000,-1,-0.954086,-0.421618,-0.025624,0.234330,0.585481,-0.020883
"2019-11-26 16:49:20.568 +0000",1574786960.568190,3.128655,-1.337447,0.146481,0.002992,0.972897,0.231218,0.000000,0.000000,0.000000,-1,-0.257959,0.212086,0.043633,0.296187,0.393924,-0.291582
"2019-11-26 16:49:20.588 +0000",1574786960.588277,3.135818,-1.346213,0.143890,0.001286,0.974887,0.222696,0.000000,0.000000,0.000000,-1,0.616836,0.517528,0.004056,0.335628,-0.087054,-0.331964
"2019-11-26 16:49:20.608 +0000",1574786960.608364,-3.141446,-1.361457,0.144233,-0.000031,0.978168,0.207814,0.000000,0.000000,0.000000,-1,0.755074,0.160361,-0.004905,0.284592,-0.305271,-0.240147
"2019-11-26 16:49:20.628 +0000",1574786960.628452,3.138526,-1.370129,0.142495,0.000611,0.979934,0.199323,0.000000,0.000000,0.000000,-1,0.278447,-0.126742,0.011401,0.086516,-0.362044,-0.102002
"2019-11-26 16:49:20.649 +0000",1574786960.648540,3.133095,-1.370294,0.139515,0.001692,0.979967,0.199155,0.000000,0.000000,0.000000,-1,-0.052471,-0.117196,0.039311,-0.036406,-0.245423,-0.214337
"2019-11-26 16:49:20.669 +0000",1574786960.668626,3.121290,-1.369906,0.130699,0.004051,0.979889,0.199501,0.000000,0.000000,0.000000,-1,-0.014497,-0.173757,0.089658,-0.057823,0.013901,-0.355445
"2019-11-26 16:49:20.689 +0000",1574786960.688714,3.109962,-1.374484,0.124365,0.006169,0.980792,0.194957,0.000000,0.000000,0.000000,-1,0.335347,-0.277186,0.036859,-0.101368,0.200009,-0.420084
"2019-11-26 16:49:20.709 +0000",1574786960.708802,3.113553,-1.389638,0.130109,0.005051,0.983636,0.180098,0.000000,0.000000,0.000000,-1,0.859168,-0.023761,-0.129589,-0.093552,0.179710,-0.316893
"2019-11-26 16:49:20.729 +0000",1574786960.728888,-3.141510,-1.409727,0.154103,-0.000013,0.987056,0.160375,0.000000,0.000000,0.000000,-1,1.002792,0.301416,-0.240038,-0.001604,0.082280,-0.113652
"2019-11-26 16:49:20.749 +0000",1574786960.748977,-3.099110,-1.425776,0.188700,-0.006137,0.989503,0.144382,0.000000,0.000000,0.000000,-1,0.687806,0.438486,-0.253260,0.072223,0.002853,-0.004428
"2019-11-26 16:49:20.769 +0000",1574786960.769063,-3.052808,-1.434050,0.225776,-0.012087,0.990665,0.135783,0.000000,0.000000,0.000000,-1,0.349312,0.480072,-0.219641,0.136462,-0.075778,-0.019237
"2019-11-26 16:49:20.789 +0000",1574786960.789151,-3.017172,-1.438345,0.253734,-0.016389,0.991241,0.131043,0.000000,0.000000,0.000000,-1,0.167734,0.376276,-0.160213,0.121827,-0.126693,-0.058091
"2019-11-26 16:49:20.809 +0000",1574786960.809239,-2.987398,-1.440425,0.275304,-0.019966,0.991514,0.128458,0.000000,0.000000,0.000000,-1,0.121636,0.433003,-0.113562,0.067497,-0.174665,-0.112864
"2019-11-26 16:49:20.829 +0000",1574786960.829325,-2.963073,-1.445760,0.291213,-0.022145,0.992193,0.122728,0.000000,0.000000,0.000000,-1,0.315442,0.421697,-0.048539,0.031163,-0.177053,-0.173753
"2019-11-26 16:49:20.849 +0000",1574786960.849414,-2.936820,-1.455687,0.309648,-0.023355,0.993382,0.112455,0.000000,0.000000,0.000000,-1,0.564682,0.387359,-0.001653,-0.017828,-0.121358,-0.156400
"2019-11-26 16:49:20.870 +0000",1574786960.869501,-2.902435,-1.469212,0.336399,-0.024022,0.994845,0.098524,0.000000,0.000000,0.000000,-1,0.687327,0.391955,-0.008421,-0.085078,-0.052263,-0.101499
"2019-11-26 16:49:20.890 +0000",1574786960.889587,-2.846396,-1.482234,0.384546,-0.025732,0.996081,0.084621,0.000000,0.000000,0.000000,-1,0.676557,0.405432,-0.063598,-0.116617,-0.018496,-0.047542
"2019-11-26 16:49:20.910 +0000",1574786960.909675,-2.767909,-1.493494,0.455281,-0.028191,0.997014,0.071897,0.000000,0.000000,0.000000,-1,0.571531,0.392843,-0.110577,-0.105125,-0.046162,0.011584
"2019-11-26 16:49:20.930 +0000",1574786960.929763,-2.686258,-1.501473,0.529995,-0.030461,0.997598,0.062209,0.000000,0.000000,0.000000,-1,0.440725,0.341790,-0.075955,-0.081188,-0.075357,0.059937
"2019-11-26 16:49:20.950 +0000",1574786960.949850,-2.624957,-1.508578,0.584040,-0.030714,0.998065,0.054064,0.000000,0.000000,0.000000,-1,0.358010,0.380986,0.026609,-0.063586,-0.084750,0.087371
"2019-11-26 16:49:20.970 +0000",1574786960.969938,-2.584483,-1.515738,0.615034,-0.029098,0.998485,0.046711,0.000000,0.000000,0.000000,-1,0.357179,0.516061,0.130831,-0.048646,-0.062434,0.101544
"2019-11-26 16:49:20.990 +0000",1574786960.990026,-2.546990,-1.523850,0.641238,-0.026288,0.998898,0.038873,0.000000,0.000000,0.000000,-1,0.401925,0.564237,0.212803,-0.037265,0.002292,0.088462
"2019-11-26 16:49:21.010 +0000",1574786961.010112,-2.503630,-1.532430,0.673695,-0.022845,0.999264,0.030814,0.000000,0.000000,0.000000,-1,0.459795,0.544326,0.279093,-0.012617,0.033756,0.108469
"2019-11-26 16:49:21.030 +0000",1574786961.030204,-2.496093,-1.540693,0.670452,-0.018108,0.999547,0.024043,0.000000,0.000000,0.000000,-1,0.431934,0.535424,0.362881,-0.044957,0.009914,0.091359
"2019-11-26 16:49:21.050 +0000",1574786961.050287,-2.575377,-1.548321,0.580693,-0.012057,0.999747,0.018968,0.000000,0.000000,0.000000,-1,0.354856,0.509451,0.402874,-0.166074,0.047846,-0.007401
"2019-11-26 16:49:21.070 +0000",1574786961.070374,-2.737383,-1.553149,0.409222,-0.006942,0.999844,0.016229,0.000000,0.000000,0.000000,-1,0.213008,0.443388,0.299291,-0.297318,0.163777,-0.063057
"2019-11-26 16:49:21.090 +0000",1574786961.090463,-2.770927,-1.556278,0.370939,-0.005258,0.999895,0.013530,0.000000,0.000000,0.000000,-1,0.165037,0.160324,0.031228,-0.325125,0.210205,-0.025965
"2019-11-26 16:49:21.111 +0000",1574786961.110549,-2.461013,-1.557507,0.678480,-0.008365,0.999912,0.010332,0.000000,0.000000,0.000000,-1,0.150144,0.120815,-0.205388,-0.207425,0.174360,0.127472
"2019-11-26 16:49:21.131 +0000",1574786961.130641,-2.129633,-1.553531,1.007567,-0.014643,0.999851,0.009156,0.000000,0.000000,0.000000,-1,0.023345,0.114858,-0.344620,-0.091421,0.224241,0.192688
"2019-11-26 16:49:21.151 +0000",1574786961.150725,-2.056612,-1.544494,1.079039,-0.023257,0.999654,0.012280,0.000000,0.000000,0.000000,-1,-0.226309,0.075236,-0.455649,0.024508,0.343014,0.132298
"2019-11-26 16:49:21.171 +0000",1574786961.170812,-2.108532,-1.530693,1.025280,-0.034435,0.999196,0.020536,0.000000,0.000000,0.000000,-1,-0.473818,0.086807,-0.588699,0.099498,0.273983,-0.105449
"2019-11-26 16:49:21.191 +0000",1574786961.190899,-2.182941,-1.513413,0.948889,-0.046936,0.998354,0.032955,0.000000,0.000000,0.000000,-1,-0.692280,0.095964,-0.635117,0.114273,0.045653,-0.278712
"2019-11-26 16:49:21.211 +0000",1574786961.210988,-2.256688,-1.493444,0.873293,-0.059801,0.997010,0.048944,0.000000,0.000000,0.000000,-1,-0.829366,0.079482,-0.631750,0.216752,-0.027007,-0.242104
"2019-11-26 16:49:21.231 +0000",1574786961.231074,-2.320741,-1.474670,0.807456,-0.070229,0.995383,0.065418,0.000000,0.000000,0.000000,-1,-0.846065,0.083675,-0.474794,0.307793,0.094446,-0.139545
"2019-11-26 16:49:21.251 +0000",1574786961.251162,-2.390790,-1.457721,0.731320,-0.076979,0.993614,0.082498,0.000000,0.000000,0.000000,-1,-0.889242,0.357697,-0.261309,0.317274,0.282434,-0.130318
"2019-11-26 16:49:21.271 +0000",1574786961.271250,-2.465804,-1.442671,0.645834,-0.079925,0.991803,0.099692,0.000000,0.000000,0.000000,-1,-0.921399,0.525549,-0.064170,0.229095,0.312427,-0.198309
"2019-11-26 16:49:21.291 +0000",1574786961.291336,-2.534728,-1.428505,0.564816,-0.080875,0.989894,0.116491,0.000000,0.000000,0.000000,-1,-0.877066,0.572629,0.034841,0.106647,0.196783,-0.181141
"2019-11-26 16:49:21.311 +0000",1574786961.311424,-2.595449,-1.415930,0.489580,-0.080116,0.988032,0.131811,0.000000,0.000000,0.000000,-1,-0.833303,0.727827,0.147501,0.065574,0.159429,-0.090093
"2019-11-26 16:49:21.332 +0000",1574786961.331511,-2.648740,-1.404794,0.419767,-0.078182,0.986253,0.145575,0.000000,0.000000,0.000000,-1,-0.727104,0.775798,0.221783,0.064312,0.177901,-0.108892
"2019-11-26 16:49:21.352 +0000",1574786961.351598,-2.696792,-1.396307,0.360282,-0.074698,0.984815,0.156713,0.000000,0.000000,0.000000,-1,-0.580855,0.407555,0.259325,0.056891,0.073367,-0.180211
"2019-11-26 16:49:21.372 +0000",1574786961.371684,-2.747586,-1.389138,0.308263,-0.069354,0.983545,0.166818,0.000000,0.000000,0.000000,-1,-0.498080,-0.102447,0.278226,0.031405,-0.110284,-0.170892
"2019-11-26 16:49:21.392 +0000",1574786961.391770,-2.807477,-1.381784,0.254874,-0.061615,0.982190,0.177499,0.000000,0.000000,0.000000,-1,-0.552292,-0.442967,0.338366,0.064438,-0.275952,-0.134057
"2019-11-26 16:49:21.412 +0000",1574786961.411858,-2.873581,-1.372284,0.199091,-0.052225,0.980361,0.190171,0.000000,0.000000,0.000000,-1,-0.624430,-0.597539,0.377673,0.093011,-0.346449,-0.133545
"2019-11-26 16:49:21.432 +0000",1574786961.431945,-2.934233,-1.362179,0.149739,-0.042639,0.978318,0.202671,0.000000,0.000000,0.000000,-1,-0.622948,-0.613142,0.347759,0.101019,-0.311005,-0.101809
"2019-11-26 16:49:21.452 +0000",1574786961.452032,-2.981844,-1.350925,0.111584,-0.034694,0.975926,0.215327,0.000000,0.000000,0.000000,-1,-0.620947,-0.485691,0.272113,0.106807,-0.202167,-0.040079
"2019-11-26 16:49:21.472 +0000",1574786961.472124,-3.014987,-1.341157,0.086535,-0.028742,0.973749,0.225804,0.000000,0.000000,0.000000,-1,-0.507391,-0.413399,0.173111,0.109278,-0.128090,-0.019031
"2019-11-26 16:49:21.492 +0000",1574786961.492207,-3.033679,-1.335062,0.074654,-0.025155,0.972343,0.232199,0.000000,0.000000,0.000000,-1,-0.242576,-0.342738,0.073338,0.064920,-0.093314,-0.060048
"2019-11-26 16:49:21.512 +0000",1574786961.512294,-3.041893,-1.335523,0.074169,-0.023202,0.972451,0.231951,0.000000,0.000000,0.000000,-1,0.086291,-0.399369,-0.018354,0.001901,-0.111808,-0.096192
"2019-11-26 16:49:21.532 +0000",1574786961.532382,-3.043084,-1.340452,0.082532,-0.022454,0.973588,0.227206,0.000000,0.000000,0.000000,-1,0.298294,-0.483551,-0.084261,-0.056846,-0.153930,-0.053315
"2019-11-26 16:49:21.552 +0000",1574786961.552470,-3.042085,-1.347207,0.094065,-0.022028,0.975108,0.220635,0.000000,0.000000,0.000000,-1,0.328820,-0.506677,-0.102666,-0.097647,-0.185113,0.048425
"2019-11-26 16:49:21.573 +0000",1574786961.572557,-3.043166,-1.352105,0.103302,-0.021320,0.976182,0.215903,0.000000,0.000000,0.000000,-1,0.221451,-0.503980,-0.064774,-0.085782,-0.164169,0.096660
"2019-11-26 16:49:21.593 +0000",1574786961.592644,-3.053455,-1.354850,0.103839,-0.018861,0.976774,0.213441,0.000000,0.000000,0.000000,-1,0.090819,-0.559585,0.027934,-0.032500,-0.089032,0.073258
"2019-11-26 16:49:21.613 +0000",1574786961.612731,-3.074749,-1.356406,0.095502,-0.014210,0.977106,0.212277,0.000000,0.000000,0.000000,-1,0.073142,-0.687559,0.113863,0.016560,0.017616,0.017491
"2019-11-26 16:49:21.633 +0000",1574786961.632819,-3.101731,-1.358805,0.082225,-0.008385,0.977614,0.210239,0.000000,0.000000,0.000000,-1,0.102976,-0.690302,0.147100,0.045845,0.147693,0.026746
"2019-11-26 16:49:21.653 +0000",1574786961.652908,-3.127559,-1.361810,0.069775,-0.002911,0.978242,0.207448,0.000000,0.000000,0.000000,-1,0.162463,-0.682086,0.126368,0.057507,0.245377,0.073483
"2019-11-26 16:49:21.673 +0000",1574786961.672993,3.132881,-1.365019,0.060710,0.001780,0.978903,0.204321,0.000000,0.000000,0.000000,-1,0.126211,-0.692745,0.075491,0.034521,0.255047,0.169857
"2019-11-26 16:49:21.693 +0000",1574786961.693082,3.121797,-1.365504,0.062187,0.004035,0.979001,0.203814,0.000000,0.000000,0.000000,-1,-0.011207,-0.593702,-0.050874,-0.066825,0.161229,0.255706
"2019-11-26 16:49:21.713 +0000",1574786961.713168,3.127278,-1.363011,0.078189,0.002953,0.978490,0.206273,0.000000,0.000000,0.000000,-1,-0.186596,-0.478292,-0.202935,-0.120705,0.057614,0.318540
"2019-11-26 16:49:21.733 +0000",1574786961.733255,-3.139391,-1.354892,0.101636,-0.000472,0.976783,0.214231,0.000000,0.000000,0.000000,-1,-0.484989,-0.258857,-0.242572,-0.066850,0.056330,0.291661
"2019-11-26 16:49:21.753 +0000",1574786961.753344,-3.126298,-1.343696,0.118903,-0.003443,0.974323,0.225127,0.000000,0.000000,0.000000,-1,-0.574477,-0.163839,-0.185252,-0.012716,0.203855,0.036700
"2019-11-26 16:49:21.773 +0000",1574786961.773432,-3.119027,-1.334343,0.127350,-0.005286,0.972175,0.234196,0.000000,0.000000,0.000000,-1,-0.408608,0.010226,-0.069858,0.035330,0.419703,-0.198169
"2019-11-26 16:49:21.794 +0000",1574786961.793519,-3.114172,-1.336570,0.125828,-0.006363,0.972694,0.232004,0.000000,0.000000,0.000000,-1,0.313137,0.424450,0.040161,0.191056,0.481028,-0.514061
"2019-11-26 16:49:21.814 +0000",1574786961.813606,-3.109862,-1.353154,0.121758,-0.006850,0.976409,0.215820,0.000000,0.000000,0.000000,-1,0.938777,0.347743,0.073730,0.322128,0.118746,-0.524274
"2019-11-26 16:49:21.834 +0000",1574786961.833694,-3.126371,-1.367465,0.108410,-0.003074,0.979399,0.201910,0.000000,0.000000,0.000000,-1,0.562151,-0.360378,0.176709,0.258780,-0.195508,-0.207631
"2019-11-26 16:49:21.854 +0000",1574786961.853781,3.127944,-1.368939,0.089439,0.002736,0.979696,0.200471,0.000000,0.000000,0.000000,-1,-0.082039,-0.512955,0.191267,0.085200,-0.280827,-0.034866
"2019-11-26 16:49:21.874 +0000",1574786961.873868,3.106937,-1.363649,0.075833,0.007126,0.978622,0.205546,0.000000,0.000000,0.000000,-1,-0.303555,-0.345917,0.112960,-0.065384,-0.199308,-0.165307
"2019-11-26 16:49:21.894 +0000",1574786961.893955,3.100393,-1.361457,0.074645,0.008560,0.978168,0.207638,0.000000,0.000000,0.000000,-1,-0.015752,-0.244123,-0.015062,-0.119308,-0.052187,-0.323526
"2019-11-26 16:49:21.914 +0000",1574786961.914043,3.104180,-1.370620,0.082771,0.007438,0.980032,0.198703,0.000000,0.000000,0.000000,-1,0.606276,-0.198171,-0.135076,-0.120047,0.046230,-0.432999
"2019-11-26 16:49:21.934 +0000",1574786961.934130,3.113902,-1.390607,0.096627,0.004962,0.983810,0.179147,0.000000,0.000000,0.000000,-1,1.085091,-0.185151,-0.168473,-0.004565,0.085940,-0.304405
"2019-11-26 16:49:21.954 +0000",1574786961.954218,3.126465,-1.411551,0.111063,0.002399,0.987347,0.158556,0.000000,0.000000,0.000000,-1,0.963928,-0.034920,-0.141601,0.141186,0.074544,-0.050964
"2019-11-26 16:49:21.974 +0000",1574786961.974306,-3.140717,-1.424465,0.124457,-0.000128,0.989313,0.145809,0.000000,0.000000,0.000000,-1,0.528441,0.196930,-0.097295,0.230200,-0.017540,0.062932
"2019-11-26 16:49:21.994 +0000",1574786961.994393,-3.125326,-1.430225,0.133915,-0.002279,0.990136,0.140090,0.000000,0.000000,0.000000,-1,0.197359,0.315331,-0.064607,0.235494,-0.134697,-0.043561
"2019-11-26 16:49:22.014 +0000",1574786962.014480,-3.112219,-1.433319,0.142053,-0.004025,0.990565,0.136985,0.000000,0.000000,0.000000,-1,0.161805,0.223521,-0.048563,0.172970,-0.197259,-0.180624
"2019-11-26 16:49:22.035 +0000",1574786962.034567,-3.097508,-1.439949,0.152409,-0.005750,0.991452,0.130347,0.000000,0.000000,0.000000,-1,0.373524,0.248056,-0.079311,0.051603,-0.151012,-0.172888
"2019-11-26 16:49:22.055 +0000",1574786962.054656,-3.064829,-1.451051,0.177979,-0.009161,0.992839,0.119108,0.000000,0.000000,0.000000,-1,0.621601,0.399158,-0.141386,-0.050485,-0.086755,-0.149365
"2019-11-26 16:49:22.075 +0000",1574786962.074742,-3.016149,-1.465542,0.219115,-0.013145,0.994466,0.104234,0.000000,0.000000,0.000000,-1,0.743284,0.373967,-0.168272,-0.121697,-0.025318,-0.110535
"2019-11-26 16:49:22.095 +0000",1574786962.094830,-2.957870,-1.479156,0.270439,-0.016718,0.995804,0.089972,0.000000,0.000000,0.000000,-1,0.683446,0.359246,-0.131733,-0.152166,-0.003341,-0.004690
"2019-11-26 16:49:22.115 +0000",1574786962.114917,-2.915281,-1.489573,0.305455,-0.018205,0.996703,0.079065,0.000000,0.000000,0.000000,-1,0.457151,0.388238,-0.020059,-0.129256,-0.034010,0.076057
"2019-11-26 16:49:22.135 +0000",1574786962.135009,-2.909146,-1.496160,0.304288,-0.017178,0.997216,0.072564,0.000000,0.000000,0.000000,-1,0.279211,0.355511,0.112808,-0.101642,-0.071220,0.075845
"2019-11-26 16:49:22.155 +0000",1574786962.155092,-2.934771,-1.502234,0.272119,-0.014068,0.997651,0.067048,0.000000,0.000000,0.000000,-1,0.251123,0.317449,0.186438,-0.079850,-0.080139,0.047210
"2019-11-26 16:49:22.175 +0000",1574786962.175179,-2.973671,-1.508850,0.226588,-0.010347,0.998082,0.061036,0.000000,0.000000,0.000000,-1,0.314672,0.332462,0.210071,-0.048613,-0.076282,0.030960
"2019-11-26 16:49:22.195 +0000",1574786962.195271,-3.007196,-1.516100,0.185884,-0.007325,0.998505,0.054177,0.000000,0.000000,0.000000,-1,0.377006,0.361816,0.199306,-0.008605,-0.074294,0.023034
"2019-11-26 16:49:22.215 +0000",1574786962.215355,-3.038557,-1.523245,0.146909,-0.004889,0.998870,0.047284,0.000000,0.000000,0.000000,-1,0.395661,0.381826,0.205773,0.031516,-0.054044,0.045780
"2019-11-26 16:49:22.235 +0000",1574786962.235441,-3.097320,-1.530525,0.079352,-0.001782,0.999189,0.040220,0.000000,0.000000,0.000000,-1,0.391894,0.456022,0.235524,0.005169,0.007755,0.063724
"2019-11-26 16:49:22.256 +0000",1574786962.255529,3.100723,-1.536661,-0.016534,0.001394,0.999417,0.034098,0.000000,0.000000,0.000000,-1,0.323319,0.542902,0.212095,-0.101217,0.094501,-0.001657
"2019-11-26 16:49:22.276 +0000",1574786962.275616,3.029490,-1.540356,-0.097564,0.003405,0.999537,0.030246,0.000000,0.000000,0.000000,-1,0.208866,0.425507,0.110747,-0.229494,0.179603,-0.027467
"2019-11-26 16:49:22.296 +0000",1574786962.295703,3.030512,-1.543347,-0.102647,0.003043,0.999623,0.027280,0.000000,0.000000,0.000000,-1,0.144456,0.276298,-0.051649,-0.260718,0.201626,0.066258
"2019-11-26 16:49:22.316 +0000",1574786962.315792,-3.122585,-1.546340,0.023421,-0.000465,0.999701,0.024445,0.000000,0.000000,0.000000,-1,0.123467,0.168668,-0.212539,-0.225289,0.192256,0.114090
"2019-11-26 16:49:22.336 +0000",1574786962.335878,-2.876096,-1.546997,0.268684,-0.006245,0.999717,0.022965,0.000000,0.000000,0.000000,-1,0.053694,0.037268,-0.304074,-0.157223,0.254435,0.145752
"2019-11-26 16:49:22.356 +0000",1574786962.355966,-2.621873,-1.542728,0.525948,-0.013937,0.999606,0.024358,0.000000,0.000000,0.000000,-1,-0.132551,-0.194024,-0.420910,-0.106409,0.325163,0.060772
"2019-11-26 16:49:22.376 +0000",1574786962.376054,-2.481475,-1.531749,0.670063,-0.023940,0.999238,0.030838,0.000000,0.000000,0.000000,-1,-0.383278,-0.176471,-0.521936,-0.036211,0.228455,-0.123901
"2019-11-26 16:49:22.396 +0000",1574786962.396145,-2.436571,-1.516226,0.717787,-0.035348,0.998511,0.041542,0.000000,0.000000,0.000000,-1,-0.589057,-0.131375,-0.592803,0.011087,0.085794,-0.259284
"2019-11-26 16:49:22.416 +0000",1574786962.416229,-2.439229,-1.497345,0.714590,-0.047409,0.997304,0.056016,0.000000,0.000000,0.000000,-1,-0.765584,0.051001,-0.588350,0.165146,0.012356,-0.239869
"2019-11-26 16:49:22.436 +0000",1574786962.436316,-2.486758,-1.479021,0.669092,-0.055815,0.995792,0.072690,0.000000,0.000000,0.000000,-1,-0.862139,-0.162817,-0.366668,0.331374,0.080381,-0.166057
"2019-11-26 16:49:22.456 +0000",1574786962.456404,-2.579362,-1.462173,0.579425,-0.057791,0.994106,0.091722,0.000000,0.000000,0.000000,-1,-0.971866,-0.153434,-0.025274,0.375418,0.270375,-0.133729
"2019-11-26 16:49:22.476 +0000",1574786962.476491,-2.685138,-1.446711,0.473011,-0.054553,0.992311,0.111096,0.000000,0.000000,0.000000,-1,-0.969546,0.054475,0.205811,0.249606,0.325347,-0.163082
"2019-11-26 16:49:22.497 +0000",1574786962.496578,-2.763774,-1.431580,0.387585,-0.051190,0.990325,0.128980,0.000000,0.000000,0.000000,-1,-0.901453,0.393019,0.190992,0.063459,0.199388,-0.068478
"2019-11-26 16:49:22.517 +0000",1574786962.516666,-2.808565,-1.415571,0.328965,-0.050540,0.987977,0.146108,0.000000,0.000000,0.000000,-1,-0.909426,0.742522,0.096463,0.004550,0.160111,-0.012715
"2019-11-26 16:49:22.537 +0000",1574786962.536753,-2.826254,-1.400084,0.295541,-0.052688,0.985464,0.161508,0.000000,0.000000,0.000000,-1,-0.778580,0.740581,-0.022425,-0.013261,0.134746,-0.118569
"2019-11-26 16:49:22.557 +0000",1574786962.556840,-2.829694,-1.387412,0.282985,-0.055960,0.983232,0.173560,0.000000,0.000000,0.000000,-1,-0.598714,0.312791,-0.112042,-0.013773,-0.006638,-0.243643
"2019-11-26 16:49:22.577 +0000",1574786962.576928,-2.837804,-1.377297,0.277891,-0.057522,0.981337,0.183488,0.000000,0.000000,0.000000,-1,-0.463959,-0.307136,-0.098397,-0.004825,-0.177625,-0.273666
"2019-11-26 16:49:22.597 +0000",1574786962.597016,-2.859264,-1.368881,0.267620,-0.055871,0.979684,0.192607,0.000000,0.000000,0.000000,-1,-0.446393,-0.626739,-0.003293,0.077599,-0.305901,-0.192636
"2019-11-26 16:49:22.617 +0000",1574786962.617103,-2.891390,-1.359729,0.248187,-0.051873,0.977808,0.202981,0.000000,0.000000,0.000000,-1,-0.508857,-0.648075,0.093610,0.165917,-0.327965,-0.102287
"2019-11-26 16:49:22.637 +0000",1574786962.637190,-2.926486,-1.349458,0.223492,-0.046860,0.975604,0.214476,0.000000,0.000000,0.000000,-1,-0.597372,-0.513208,0.140635,0.204804,-0.248889,-0.035368
"2019-11-26 16:49:22.657 +0000",1574786962.657277,-2.960537,-1.338182,0.199119,-0.041510,0.973067,0.226754,0.000000,0.000000,0.000000,-1,-0.600186,-0.521123,0.160812,0.222799,-0.130690,-0.035851
"2019-11-26 16:49:22.677 +0000",1574786962.677365,-2.991997,-1.329686,0.179015,-0.035588,0.971073,0.236114,0.000000,0.000000,0.000000,-1,-0.415009,-0.618674,0.149339,0.164036,-0.069416,-0.065628
"2019-11-26 16:49:22.697 +0000",1574786962.697453,-3.016067,-1.327118,0.168054,-0.030207,0.970457,0.239376,0.000000,0.000000,0.000000,-1,-0.048160,-0.681022,0.095297,0.022791,-0.086164,-0.082119
"2019-11-26 16:49:22.718 +0000",1574786962.717539,-3.030292,-1.331709,0.167812,-0.026303,0.971554,0.235351,0.000000,0.000000,0.000000,-1,0.290830,-0.700311,0.002027,-0.099048,-0.157086,-0.088912
"2019-11-26 16:49:22.738 +0000",1574786962.737627,-3.039072,-1.339189,0.173183,-0.023492,0.973299,0.228337,0.000000,0.000000,0.000000,-1,0.385154,-0.688538,-0.024341,-0.125739,-0.231523,-0.052556
"2019-11-26 16:49:22.758 +0000",1574786962.757715,-3.047112,-1.345720,0.177067,-0.021055,0.974777,0.222186,0.000000,0.000000,0.000000,-1,0.285994,-0.547169,-0.015520,-0.135134,-0.222854,0.011792
"2019-11-26 16:49:22.778 +0000",1574786962.777802,-3.049462,-1.350562,0.182803,-0.020098,0.975846,0.217532,0.000000,0.000000,0.000000,-1,0.239601,-0.347281,-0.051856,-0.095441,-0.154237,0.026516
"2019-11-26 16:49:22.798 +0000",1574786962.797890,-3.047427,-1.355824,0.190764,-0.020058,0.976982,0.212377,0.000000,0.000000,0.000000,-1,0.259344,-0.276993,-0.067075,-0.004997,-0.064522,0.010386
"2019-11-26 16:49:22.818 +0000",1574786962.817976,-3.052189,-1.359901,0.194718,-0.018690,0.977844,0.208499,0.000000,0.000000,0.000000,-1,0.173957,-0.503845,-0.000292,0.080931,0.045197,0.038281
"2019-11-26 16:49:22.838 +0000",1574786962.838063,-3.073098,-1.361476,0.188205,-0.014222,0.978172,0.207308,0.000000,0.000000,0.000000,-1,0.024052,-0.786866,0.093589,0.077149,0.173637,0.122296
"2019-11-26 16:49:22.858 +0000",1574786962.858152,-3.100411,-1.360401,0.176948,-0.008598,0.977948,0.208670,0.000000,0.000000,0.000000,-1,-0.081300,-0.798251,0.114328,-0.000313,0.285983,0.165048
"2019-11-26 16:49:22.878 +0000",1574786962.878238,-3.121208,-1.358324,0.169849,-0.004298,0.977513,0.210834,0.000000,0.000000,0.000000,-1,-0.129080,-0.650366,0.043901,-0.063924,0.263911,0.161877
"2019-11-26 16:49:22.898 +0000",1574786962.898327,-3.129715,-1.354376,0.173413,-0.002551,0.976672,0.214720,0.000000,0.000000,0.000000,-1,-0.218550,-0.595309,-0.068675,-0.077192,0.146389,0.212266
"2019-11-26 16:49:22.918 +0000",1574786962.918414,-3.131880,-1.347034,0.180692,-0.002155,0.975070,0.221889,0.000000,0.000000,0.000000,-1,-0.430562,-0.410982,-0.086610,-0.037640,0.127027,0.233966
"2019-11-26 16:49:22.939 +0000",1574786962.938501,-3.131190,-1.337990,0.185513,-0.002400,0.973023,0.230696,0.000000,0.000000,0.000000,-1,-0.441784,-0.116031,-0.051319,-0.003124,0.323348,0.059068
"2019-11-26 16:49:22.959 +0000",1574786962.958592,-3.127347,-1.331493,0.187965,-0.003377,0.971503,0.237002,0.000000,0.000000,0.000000,-1,-0.292583,0.142532,-0.024176,0.152638,0.519982,-0.087192
"2019-11-26 16:49:22.979 +0000",1574786962.978676,-3.123126,-1.331521,0.184656,-0.004376,0.971510,0.236958,0.000000,0.000000,0.000000,-1,0.120856,0.458898,0.064322,0.270642,0.366304,-0.275182
"2019-11-26 16:49:22.999 +0000",1574786962.998763,-3.120181,-1.340839,0.178816,-0.004880,0.973676,0.227883,0.000000,0.000000,0.000000,-1,0.538792,0.376170,0.074712,0.342740,-0.008131,-0.383798
"2019-11-26 16:49:23.019 +0000",1574786963.018851,-3.119258,-1.350450,0.176074,-0.004881,0.975822,0.218513,0.000000,0.000000,0.000000,-1,0.432554,0.122488,0.024541,0.262053,-0.189079,-0.227576
"2019-11-26 16:49:23.039 +0000",1574786963.038938,-3.116534,-1.354614,0.178427,-0.005374,0.976723,0.214435,0.000000,0.000000,0.000000,-1,0.109738,-0.002995,-0.038252,0.102161,-0.308190,-0.156711
"2019-11-26 16:49:23.059 +0000",1574786963.059026,-3.118168,-1.352907,0.178225,-0.005063,0.976356,0.216111,0.000000,0.000000,0.000000,-1,-0.136294,-0.094585,0.024796,0.043897,-0.258613,-0.242478
"2019-11-26 16:49:23.079 +0000",1574786963.079114,-3.135061,-1.350126,0.164604,-0.001430,0.975751,0.218880,0.000000,0.000000,0.000000,-1,-0.148600,-0.203463,0.177425,0.032451,-0.037397,-0.326440
"2019-11-26 16:49:23.099 +0000",1574786963.099201,3.124156,-1.351906,0.143875,0.003786,0.976139,0.217114,0.000000,0.000000,0.000000,-1,0.200805,-0.166016,0.229557,-0.031298,0.186230,-0.359937
"2019-11-26 16:49:23.119 +0000",1574786963.119288,3.113034,-1.365726,0.131764,0.005815,0.979047,0.203554,0.000000,0.000000,0.000000,-1,0.831365,0.115098,0.048916,-0.084367,0.161242,-0.271517
"2019-11-26 16:49:23.139 +0000",1574786963.139376,3.126057,-1.385292,0.137119,0.002865,0.982843,0.184421,0.000000,0.000000,0.000000,-1,0.971986,0.477555,-0.107306,0.008564,0.077291,-0.079761
"2019-11-26 16:49:23.159 +0000",1574786963.159464,-3.126465,-1.400294,0.154853,-0.002567,0.985500,0.169659,0.000000,0.000000,0.000000,-1,0.636963,0.704504,-0.176734,0.108447,0.022343,-0.024639
"2019-11-26 16:49:23.180 +0000",1574786963.179551,-3.087429,-1.408433,0.180331,-0.008751,0.986848,0.161414,0.000000,0.000000,0.000000,-1,0.348717,0.673831,-0.199164,0.146782,-0.053392,-0.073738
"2019-11-26 16:49:23.200 +0000",1574786963.199638,-3.049377,-1.413621,0.206876,-0.014414,0.987673,0.155865,0.000000,0.000000,0.000000,-1,0.232578,0.565493,-0.194619,0.123743,-0.145038,-0.109631
"2019-11-26 16:49:23.220 +0000",1574786963.219726,-3.012599,-1.418827,0.233850,-0.019474,0.988475,0.150128,0.000000,0.000000,0.000000,-1,0.310318,0.483718,-0.167427,0.053013,-0.183895,-0.172178
"2019-11-26 16:49:23.240 +0000",1574786963.239813,-2.977757,-1.428116,0.260395,-0.023193,0.989838,0.140294,0.000000,0.000000,0.000000,-1,0.525837,0.408257,-0.121819,-0.015427,-0.158357,-0.182531
"2019-11-26 16:49:23.260 +0000",1574786963.259901,-2.939165,-1.440863,0.292042,-0.026050,0.991571,0.126924,0.000000,0.000000,0.000000,-1,0.701538,0.352303,-0.086978,-0.067304,-0.123361,-0.123720
"2019-11-26 16:49:23.280 +0000",1574786963.279988,-2.894031,-1.455488,0.329875,-0.028193,0.993359,0.111547,0.000000,0.000000,0.000000,-1,0.748338,0.393650,-0.064599,-0.102636,-0.098981,-0.025228
"2019-11-26 16:49:23.300 +0000",1574786963.300079,-2.847717,-1.468361,0.367968,-0.029620,0.994758,0.097873,0.000000,0.000000,0.000000,-1,0.636404,0.424208,-0.014869,-0.107633,-0.035881,0.042659
"2019-11-26 16:49:23.320 +0000",1574786963.320163,-2.815939,-1.478601,0.391950,-0.029455,0.995753,0.087227,0.000000,0.000000,0.000000,-1,0.457321,0.379983,0.051797,-0.107447,0.000828,0.071066
"2019-11-26 16:49:23.340 +0000",1574786963.340255,-2.803874,-1.485628,0.396868,-0.028185,0.996375,0.080261,0.000000,0.000000,0.000000,-1,0.303472,0.352618,0.106162,-0.101133,-0.012032,0.081054
"2019-11-26 16:49:23.360 +0000",1574786963.360338,-2.807139,-1.492012,0.386385,-0.025835,0.996898,0.074342,0.000000,0.000000,0.000000,-1,0.266625,0.362726,0.146982,-0.077223,-0.028699,0.084714
"2019-11-26 16:49:23.380 +0000",1574786963.380424,-2.820029,-1.498540,0.365416,-0.022817,0.997391,0.068494,0.000000,0.000000,0.000000,-1,0.292696,0.414423,0.187505,-0.069269,-0.042817,0.079407
"2019-11-26 16:49:23.401 +0000",1574786963.400512,-2.828634,-1.505025,0.348138,-0.020236,0.997838,0.062535,0.000000,0.000000,0.000000,-1,0.336687,0.426071,0.207773,-0.054746,-0.064581,0.056696
"2019-11-26 16:49:23.421 +0000",1574786963.420599,-2.841157,-1.511968,0.327248,-0.017400,0.998270,0.056162,0.000000,0.000000,0.000000,-1,0.366009,0.399026,0.229403,-0.043406,-0.076503,0.016132
"2019-11-26 16:49:23.441 +0000",1574786963.440687,-2.868464,-1.519752,0.293110,-0.013764,0.998698,0.049134,0.000000,0.000000,0.000000,-1,0.411594,0.332414,0.260309,-0.065551,-0.089183,-0.004152
"2019-11-26 16:49:23.461 +0000",1574786963.460774,-2.897920,-1.528078,0.256294,-0.010305,0.999088,0.041449,0.000000,0.000000,0.000000,-1,0.439486,0.387758,0.221411,-0.144770,-0.035558,-0.052803
"2019-11-26 16:49:23.481 +0000",1574786963.480860,-2.891128,-1.536199,0.257705,-0.008574,0.999402,0.033514,0.000000,0.000000,0.000000,-1,0.444003,0.226501,0.114268,-0.235963,0.100542,-0.040108
"2019-11-26 16:49:23.501 +0000",1574786963.500947,-2.777077,-1.543801,0.369635,-0.009624,0.999636,0.025223,0.000000,0.000000,0.000000,-1,0.452517,0.087817,-0.052166,-0.263783,0.214825,0.021757
"2019-11-26 16:49:23.521 +0000",1574786963.521035,-2.478044,-1.549306,0.666876,-0.013241,0.999769,0.016937,0.000000,0.000000,0.000000,-1,0.391445,0.099745,-0.216868,-0.203296,0.213364,0.122802
"2019-11-26 16:49:23.541 +0000",1574786963.541123,-2.124544,-1.548505,1.018227,-0.018968,0.999752,0.011727,0.000000,0.000000,0.000000,-1,0.208033,0.107801,-0.300758,-0.121520,0.247714,0.127844
"2019-11-26 16:49:23.561 +0000",1574786963.561210,-1.972275,-1.541830,1.169938,-0.026663,0.999581,0.011320,0.000000,0.000000,0.000000,-1,-0.035427,0.005240,-0.409882,-0.089395,0.282797,0.076890
"2019-11-26 16:49:23.581 +0000",1574786963.581298,-1.952927,-1.530866,1.190157,-0.037040,0.999203,0.014886,0.000000,0.000000,0.000000,-1,-0.220950,-0.060056,-0.553270,-0.026726,0.239885,0.006170
"2019-11-26 16:49:23.601 +0000",1574786963.601385,-1.992156,-1.517135,1.152518,-0.048945,0.998561,0.021938,0.000000,0.000000,0.000000,-1,-0.388696,-0.082338,-0.598711,0.029582,0.190357,-0.126676
"2019-11-26 16:49:23.621 +0000",1574786963.621472,-2.057821,-1.501960,1.088860,-0.060786,0.997632,0.032190,0.000000,0.000000,0.000000,-1,-0.546078,-0.117795,-0.592508,0.104258,0.126039,-0.262279
"2019-11-26 16:49:23.642 +0000",1574786963.641559,-2.139943,-1.485478,1.008615,-0.071782,0.996363,0.045923,0.000000,0.000000,0.000000,-1,-0.743070,-0.056512,-0.540126,0.313985,0.077244,-0.209088
"2019-11-26 16:49:23.662 +0000",1574786963.661647,-2.233548,-1.469191,0.915668,-0.079959,0.994843,0.062410,0.000000,0.000000,0.000000,-1,-0.836649,-0.061496,-0.364509,0.457020,0.086332,-0.151600
"2019-11-26 16:49:23.682 +0000",1574786963.681735,-2.329747,-1.454531,0.818100,-0.084168,0.993249,0.079830,0.000000,0.000000,0.000000,-1,-0.906500,0.091756,-0.163073,0.412781,0.199712,-0.111158
"2019-11-26 16:49:23.702 +0000",1574786963.701822,-2.420368,-1.439992,0.719601,-0.086125,0.991457,0.097954,0.000000,0.000000,0.000000,-1,-0.949731,0.447459,-0.039487,0.280827,0.243633,-0.126719
"2019-11-26 16:49:23.722 +0000",1574786963.721910,-2.490255,-1.424969,0.634729,-0.088096,0.989386,0.115563,0.000000,0.000000,0.000000,-1,-0.954966,0.783671,-0.035223,0.128394,0.172661,-0.107539
"2019-11-26 16:49:23.742 +0000",1574786963.741996,-2.542389,-1.409100,0.564658,-0.090797,0.986956,0.132945,0.000000,0.000000,0.000000,-1,-0.949330,0.849349,-0.022164,0.065102,0.123257,-0.082578
"2019-11-26 16:49:23.762 +0000",1574786963.762084,-2.587926,-1.394941,0.505152,-0.091991,0.984577,0.148814,0.000000,0.000000,0.000000,-1,-0.836083,0.567711,0.047321,0.063350,0.098078,-0.142590
"2019-11-26 16:49:23.782 +0000",1574786963.782171,-2.629126,-1.383964,0.458068,-0.091077,0.982598,0.161885,0.000000,0.000000,0.000000,-1,-0.632471,0.141652,0.094503,0.027799,-0.018030,-0.198173
"2019-11-26 16:49:23.802 +0000",1574786963.802258,-2.668765,-1.376704,0.421076,-0.087837,0.981223,0.171715,0.000000,0.000000,0.000000,-1,-0.454155,-0.252943,0.146082,0.012840,-0.169381,-0.156824
"2019-11-26 16:49:23.822 +0000",1574786963.822347,-2.715793,-1.371400,0.381368,-0.081816,0.980186,0.180391,0.000000,0.000000,0.000000,-1,-0.394032,-0.441407,0.267886,0.071318,-0.288523,-0.090656
"2019-11-26 16:49:23.842 +0000",1574786963.842433,-2.772974,-1.366977,0.332700,-0.072934,0.979301,0.188815,0.000000,0.000000,0.000000,-1,-0.412972,-0.469425,0.378708,0.118238,-0.315957,-0.023976
"2019-11-26 16:49:23.863 +0000",1574786963.862521,-2.831525,-1.360288,0.279853,-0.063758,0.977925,0.198994,0.000000,0.000000,0.000000,-1,-0.525510,-0.292485,0.400893,0.127891,-0.195669,0.054942
"2019-11-26 16:49:23.883 +0000",1574786963.882609,-2.880937,-1.351160,0.231740,-0.056149,0.975977,0.210515,0.000000,0.000000,0.000000,-1,-0.601470,-0.081202,0.334816,0.129468,-0.054195,0.060464
"2019-11-26 16:49:23.903 +0000",1574786963.902697,-2.915194,-1.342705,0.197828,-0.050757,0.974100,0.220349,0.000000,0.000000,0.000000,-1,-0.451822,-0.059461,0.235816,0.123282,0.010915,0.007493
"2019-11-26 16:49:23.923 +0000",1574786963.922784,-2.935899,-1.339639,0.179919,-0.046794,0.973402,0.224274,0.000000,0.000000,0.000000,-1,-0.114714,-0.200430,0.137401,0.074214,-0.025116,-0.080874
"2019-11-26 16:49:23.943 +0000",1574786963.942871,-2.948689,-1.343708,0.174238,-0.043162,0.974326,0.220965,0.000000,0.000000,0.000000,-1,0.281882,-0.410675,0.095424,0.014597,-0.148980,-0.131063
"2019-11-26 16:49:23.963 +0000",1574786963.962957,-2.961289,-1.353461,0.171349,-0.038668,0.976476,0.212133,0.000000,0.000000,0.000000,-1,0.500839,-0.498087,0.127423,-0.045911,-0.255622,-0.052513
"2019-11-26 16:49:23.983 +0000",1574786963.983046,-2.981004,-1.363693,0.162267,-0.032880,0.978631,0.202981,0.000000,0.000000,0.000000,-1,0.465478,-0.553777,0.200742,-0.084796,-0.248194,0.080830
"2019-11-26 16:49:24.003 +0000",1574786964.003133,-3.011668,-1.371116,0.143751,-0.025699,0.980130,0.196684,0.000000,0.000000,0.000000,-1,0.272298,-0.648249,0.240262,-0.117215,-0.142943,0.158981
