timestamp,timeIntervalSince1970,attitude.roll,attitude.pitch,attitude.yaw,gravity.x,gravity.y,gravity.z,magneticField.x,magneticField.y,magneticField.z,magneticField.accuracy,rotationRate.x,rotationRate.y,rotationRate.z,userAcceleration.x,userAcceleration.y,userAcceleration.z
"2019-05-05 23:02:07.871 +0000",1557097327.870684,0.015445,0.423318,-0.004142,0.014081,-0.410788,-0.911622,0.000000,0.000000,0.000000,-1,-0.149092,-0.632826,-0.012638,-0.155332,0.054251,0.078050
"2019-05-05 23:02:07.893 +0000",1557097327.892993,0.008003,0.416337,-0.007383,0.007319,-0.404413,-0.914547,0.000000,0.000000,0.000000,-1,-0.379097,-0.319873,-0.178026,-0.210582,0.035272,0.089749
"2019-05-05 23:02:07.915 +0000",1557097327.915287,0.002529,0.405765,-0.011289,0.002323,-0.394722,-0.918798,0.000000,0.000000,0.000000,-1,-0.539400,-0.296343,-0.119998,-0.167652,0.057472,0.015447
"2019-05-05 23:02:07.938 +0000",1557097327.937578,-0.007667,0.386764,-0.007581,-0.007101,-0.377193,-0.926107,0.000000,0.000000,0.000000,-1,-0.869454,0.233149,0.062500,-0.197443,0.063503,0.034521
"2019-05-05 23:02:07.960 +0000",1557097327.959883,0.009577,0.366078,0.000609,0.008942,-0.357956,-0.933695,0.000000,0.000000,0.000000,-1,-0.956132,1.329495,0.462109,-0.269334,-0.024902,0.136149
"2019-05-05 23:02:07.982 +0000",1557097327.982200,0.037849,0.337199,0.009093,0.035709,-0.330846,-0.943009,0.000000,0.000000,0.000000,-1,-1.508544,1.332476,0.339032,-0.423663,0.158086,0.139451
"2019-05-05 23:02:08.005 +0000",1557097328.004502,0.062555,0.297638,0.032003,0.059765,-0.293263,-0.954162,0.000000,0.000000,0.000000,-1,-2.020056,1.441796,1.307946,-0.481411,0.102727,0.160308
"2019-05-05 23:02:08.027 +0000",1557097328.026790,0.078139,0.251912,0.074740,0.075595,-0.249256,-0.965483,0.000000,0.000000,0.000000,-1,-2.148588,1.096923,1.529287,-0.525302,0.076145,0.124205
"2019-05-05 23:02:08.049 +0000",1557097328.049087,0.104662,0.220402,0.065107,0.101944,-0.218622,-0.970470,0.000000,0.000000,0.000000,-1,-0.675241,1.136776,-1.372060,-0.487259,0.204233,0.126949
"2019-05-05 23:02:08.071 +0000",1557097328.071396,0.122677,0.214926,0.040813,0.119554,-0.213275,-0.969650,0.000000,0.000000,0.000000,-1,-0.185362,0.063173,-1.023653,-0.563157,0.074283,0.085968
"2019-05-05 23:02:08.094 +0000",1557097328.093703,0.111071,0.201410,0.019905,0.108602,-0.200051,-0.973748,0.000000,0.000000,0.000000,-1,-0.541731,-0.819784,-0.908041,-0.388937,0.207970,0.209252
"2019-05-05 23:02:08.116 +0000",1557097328.115991,0.092348,0.187662,-0.000327,0.090597,-0.186562,-0.978257,0.000000,0.000000,0.000000,-1,-0.510971,-1.219878,-0.987592,-0.381354,0.156731,0.197373
"2019-05-05 23:02:08.138 +0000",1557097328.138303,0.050218,0.173212,-0.021902,0.049446,-0.172347,-0.983795,0.000000,0.000000,0.000000,-1,-0.653881,-2.622513,-1.038470,-0.309548,0.267287,0.251708
"2019-05-05 23:02:08.161 +0000",1557097328.160597,-0.026854,0.152583,-0.055364,-0.026539,-0.151991,-0.988025,0.000000,0.000000,0.000000,-1,-1.043926,-4.435760,-1.950466,-0.321774,0.323592,0.290760
"2019-05-05 23:02:08.183 +0000",1557097328.182904,-0.157423,0.118508,-0.108388,-0.155674,-0.118231,-0.980707,0.000000,0.000000,0.000000,-1,-1.006552,-5.145349,-2.396815,-0.257213,0.332800,0.207422
"2019-05-05 23:02:08.205 +0000",1557097328.205213,-0.264440,0.102087,-0.148871,-0.260008,-0.101909,-0.960214,0.000000,0.000000,0.000000,-1,-1.174257,-4.826825,-1.126920,0.295455,0.242901,0.135110
"2019-05-05 23:02:08.228 +0000",1557097328.227520,-0.365993,0.079734,-0.169901,-0.356740,-0.079650,-0.930802,0.000000,0.000000,0.000000,-1,-1.272635,-4.737759,-0.351174,0.146123,0.461089,-0.125060
"2019-05-05 23:02:08.250 +0000",1557097328.249828,-0.463975,0.053896,-0.181064,-0.446857,-0.053870,-0.892982,0.000000,0.000000,0.000000,-1,-1.122578,-3.995728,0.333285,0.211612,0.420798,-0.183068
"2019-05-05 23:02:08.272 +0000",1557097328.272135,-0.541640,0.032036,-0.172112,-0.515278,-0.032031,-0.856425,0.000000,0.000000,0.000000,-1,-0.459589,-3.262176,0.995709,0.281238,0.245288,-0.313101
"2019-05-05 23:02:08.294 +0000",1557097328.294413,-0.612949,0.012369,-0.155919,-0.575238,-0.012369,-0.817892,0.000000,0.000000,0.000000,-1,-0.298353,-3.197538,1.151513,0.322232,0.306162,-0.295801
"2019-05-05 23:02:08.317 +0000",1557097328.316722,-0.696496,-0.010733,-0.134533,-0.641497,0.010733,-0.767051,0.000000,0.000000,0.000000,-1,-0.265348,-4.120442,1.710519,0.366213,0.136621,-0.246850
"2019-05-05 23:02:08.339 +0000",1557097328.339031,-0.794810,-0.051438,-0.092136,-0.712786,0.051416,-0.699494,0.000000,0.000000,0.000000,-1,0.277023,-4.544040,3.133690,0.521121,0.298148,-0.197402
"2019-05-05 23:02:08.361 +0000",1557097328.361319,-0.892331,-0.092553,-0.020180,-0.775205,0.092421,-0.624913,0.000000,0.000000,0.000000,-1,1.737632,-4.651126,3.594266,0.102307,0.089891,-0.329937
"2019-05-05 23:02:08.384 +0000",1557097328.383646,-0.989226,-0.120012,0.070975,-0.829591,0.119724,-0.545385,0.000000,0.000000,0.000000,-1,2.981165,-4.957406,3.147202,0.127168,0.075070,-0.347406
"2019-05-05 23:02:08.406 +0000",1557097328.405923,-1.099175,-0.132074,0.166927,-0.883075,0.131690,-0.450374,0.000000,0.000000,0.000000,-1,3.569278,-5.729236,2.310737,0.042468,-0.014564,-0.263676
"2019-05-05 23:02:08.428 +0000",1557097328.428211,-1.215915,-0.140321,0.253706,-0.928471,0.139861,-0.344064,0.000000,0.000000,0.000000,-1,3.102562,-5.607737,1.650732,-0.251216,-0.206252,0.057626
"2019-05-05 23:02:08.451 +0000",1557097328.450551,-1.310505,-0.150943,0.314213,-0.955328,0.150371,-0.254436,0.000000,0.000000,0.000000,-1,1.987393,-3.900642,1.042122,-0.294672,-0.262904,0.058330
"2019-05-05 23:02:08.473 +0000",1557097328.472845,-1.359042,-0.158504,0.348176,-0.965408,0.157841,-0.207541,0.000000,0.000000,0.000000,-1,1.070872,-1.543925,0.437756,-0.345596,-0.245274,0.036719
"2019-05-05 23:02:08.495 +0000",1557097328.495155,-1.371193,-0.152291,0.369208,-0.968801,0.151703,-0.195985,0.000000,0.000000,0.000000,-1,1.039254,-0.425385,-0.429401,-0.502009,-0.210495,0.019243
"2019-05-05 23:02:08.517 +0000",1557097328.517462,-1.384419,-0.124719,0.394621,-0.975049,0.124396,-0.183861,0.000000,0.000000,0.000000,-1,1.545774,-1.087894,-1.299124,-0.594760,-0.255957,-0.092338
"2019-05-05 23:02:08.540 +0000",1557097328.539763,-1.419229,-0.090202,0.428627,-0.984517,0.090080,-0.150374,0.000000,0.000000,0.000000,-1,1.825734,-2.063656,-1.075729,-0.357875,-0.213295,-0.010012
"2019-05-05 23:02:08.562 +0000",1557097328.562047,-1.466610,-0.068080,0.462736,-0.992273,0.068028,-0.103757,0.000000,0.000000,0.000000,-1,1.478430,-2.229666,-0.703483,-0.051046,-0.177021,0.135159
"2019-05-05 23:02:08.584 +0000",1557097328.584356,-1.515711,-0.049475,0.485448,-0.997262,0.049454,-0.054990,0.000000,0.000000,0.000000,-1,0.586263,-2.325013,-0.767527,0.081810,-0.116044,0.695706
"2019-05-05 23:02:08.607 +0000",1557097328.606664,-1.570342,-0.033679,0.463907,-0.999433,0.033672,-0.000454,0.000000,0.000000,0.000000,-1,-1.351860,-2.189523,-0.829106,0.114194,-0.126659,1.007641
"2019-05-05 23:02:08.629 +0000",1557097328.628971,-1.602942,-0.006036,0.448026,-0.999465,0.006036,0.032139,0.000000,0.000000,0.000000,-1,-0.384013,-1.145830,-1.437137,-0.198106,-0.137140,0.435649
"2019-05-05 23:02:08.651 +0000",1557097328.651265,-1.624465,0.033150,0.440420,-0.998012,-0.033144,0.053614,0.000000,0.000000,0.000000,-1,-0.561304,-0.799589,-1.907970,-0.221883,0.026369,0.227667
"2019-05-05 23:02:08.674 +0000",1557097328.673559,-1.628001,0.076384,0.427998,-0.995453,-0.076309,0.057006,0.000000,0.000000,0.000000,-1,-0.587861,0.277070,-1.834423,0.054276,-0.030182,0.207108
"2019-05-05 23:02:08.696 +0000",1557097328.695865,-1.606111,0.117082,0.425878,-0.992535,-0.116815,0.035065,0.000000,0.000000,0.000000,-1,0.074608,0.871295,-1.891516,0.023601,-0.003379,-0.130662
"2019-05-05 23:02:08.718 +0000",1557097328.718173,-1.615940,0.159891,0.442935,-0.986239,-0.159211,0.044553,0.000000,0.000000,0.000000,-1,1.031907,-0.969616,-1.832586,-0.103910,0.099915,-0.264631
"2019-05-05 23:02:08.740 +0000",1557097328.740480,-1.664024,0.189825,0.477913,-0.977773,-0.188687,0.091421,0.000000,0.000000,0.000000,-1,1.739689,-2.470089,-1.191250,0.250234,0.076276,-0.151723
"2019-05-05 23:02:08.763 +0000",1557097328.762789,-1.738933,0.198820,0.521835,-0.966476,-0.197513,0.164049,0.000000,0.000000,0.000000,-1,1.709885,-2.880507,-0.433371,0.414291,-0.008664,0.012495
"2019-05-05 23:02:08.785 +0000",1557097328.785067,-1.785802,0.206111,0.545988,-0.956297,-0.204655,0.208837,0.000000,0.000000,0.000000,-1,0.534855,-1.234617,-0.638287,0.035887,0.080662,0.331935
"2019-05-05 23:02:08.807 +0000",1557097328.807384,-1.801448,0.222876,0.550795,-0.949438,-0.221035,0.222958,0.000000,0.000000,0.000000,-1,-0.199060,-0.432272,-0.803273,0.015280,0.199765,0.217884
"2019-05-05 23:02:08.830 +0000",1557097328.829681,-1.797837,0.239196,0.552973,-0.946596,-0.236922,0.218687,0.000000,0.000000,0.000000,-1,0.063211,0.512050,-0.626702,0.138552,0.275130,0.035113
"2019-05-05 23:02:08.852 +0000",1557097328.851990,-1.792796,0.251809,0.563666,-0.944696,-0.249157,0.213237,0.000000,0.000000,0.000000,-1,0.492687,0.103361,-0.745704,0.031168,0.348629,-0.188350
"2019-05-05 23:02:08.874 +0000",1557097328.874277,-1.802305,0.265259,0.581983,-0.939279,-0.262159,0.221422,0.000000,0.000000,0.000000,-1,0.666742,-0.303766,-0.750699,-0.058188,0.233366,0.159606
"2019-05-05 23:02:08.897 +0000",1557097328.896607,-1.807944,0.276529,0.599812,-0.935084,-0.273018,0.226006,0.000000,0.000000,0.000000,-1,0.632442,0.168212,-0.635287,-0.088979,0.240654,0.210030
"2019-05-05 23:02:08.919 +0000",1557097328.918883,-1.807891,0.284119,0.619013,-0.933055,-0.280312,0.225463,0.000000,0.000000,0.000000,-1,0.799974,0.160344,-0.461470,-0.244115,0.236550,0.145723
"2019-05-05 23:02:08.941 +0000",1557097328.941188,-1.821197,0.292413,0.643488,-0.927688,-0.288264,0.237273,0.000000,0.000000,0.000000,-1,0.966206,-0.492897,-0.805433,-0.219651,0.166087,0.035889
"2019-05-05 23:02:08.964 +0000",1557097328.963500,-1.826418,0.311824,0.677857,-0.920849,-0.306796,0.240653,0.000000,0.000000,0.000000,-1,1.487108,0.866176,-1.564079,-0.577625,0.082415,0.032357
"2019-05-05 23:02:08.986 +0000",1557097328.985807,-1.822038,0.337478,0.725563,-0.913968,-0.331108,0.234584,0.000000,0.000000,0.000000,-1,1.537765,0.333114,-1.355877,-0.444384,-0.128960,-0.139582
"2019-05-05 23:02:09.008 +0000",1557097329.008116,-1.847992,0.349397,0.749483,-0.903712,-0.342331,0.257125,0.000000,0.000000,0.000000,-1,0.548898,-1.106153,-0.606644,0.314601,-0.133240,0.153916
"2019-05-05 23:02:09.030 +0000",1557097329.030393,-1.868674,0.357234,0.759187,-0.895610,-0.349684,0.274963,0.000000,0.000000,0.000000,-1,0.140189,-0.575089,-0.337373,0.249415,0.020582,0.030548
"2019-05-05 23:02:09.053 +0000",1557097329.052703,-1.887771,0.355816,0.760261,-0.890666,-0.348355,0.292170,0.000000,0.000000,0.000000,-1,0.058317,-1.096775,0.282531,0.603510,0.144910,-0.112452
"2019-05-05 23:02:09.075 +0000",1557097329.075007,-1.919380,0.345986,0.758863,-0.884163,-0.339124,0.321327,0.000000,0.000000,0.000000,-1,0.099942,-1.534189,0.412967,0.540672,0.102857,-0.080085
"2019-05-05 23:02:09.097 +0000",1557097329.097295,-1.951474,0.338393,0.756723,-0.875762,-0.331971,0.350479,0.000000,0.000000,0.000000,-1,0.042289,-1.252647,0.376948,0.212432,0.014009,-0.014801
"2019-05-05 23:02:09.120 +0000",1557097329.119618,-1.964579,0.329783,0.751428,-0.873701,-0.323838,0.363009,0.000000,0.000000,0.000000,-1,-0.264219,-0.327535,0.419467,0.262617,-0.100082,0.013029
"2019-05-05 23:02:09.142 +0000",1557097329.141931,-1.961488,0.325349,0.735410,-0.876138,-0.319640,0.360850,0.000000,0.000000,0.000000,-1,-0.595746,0.030896,0.573692,-0.385962,-0.111391,0.131765
"2019-05-05 23:02:09.164 +0000",1557097329.164209,-1.944994,0.313254,0.714302,-0.885505,-0.308156,0.347737,0.000000,0.000000,0.000000,-1,-0.693936,0.636512,1.001223,-0.500115,-0.114390,0.202464
"2019-05-05 23:02:09.187 +0000",1557097329.186518,-1.917645,0.291035,0.680852,-0.900900,-0.286944,0.325641,0.000000,0.000000,0.000000,-1,-1.098715,0.825934,1.676704,-0.087427,-0.024305,0.265149
"2019-05-05 23:02:09.209 +0000",1557097329.208825,-1.886652,0.259771,0.636973,-0.918639,-0.256860,0.300208,0.000000,0.000000,0.000000,-1,-1.491178,0.891023,2.009663,0.064224,0.034753,0.119623
"2019-05-05 23:02:09.231 +0000",1557097329.231133,-1.860518,0.227621,0.598143,-0.933605,-0.225660,0.278316,0.000000,0.000000,0.000000,-1,-0.856544,0.344206,1.777846,-0.007619,0.240171,-0.021313
"2019-05-05 23:02:09.253 +0000",1557097329.253442,-1.862804,0.197603,0.579931,-0.939032,-0.196319,0.282274,0.000000,0.000000,0.000000,-1,-0.148713,-0.460281,1.390798,0.054937,0.310241,0.129531
"2019-05-05 23:02:09.276 +0000",1557097329.275750,-1.875123,0.170266,0.569636,-0.940253,-0.169445,0.295318,0.000000,0.000000,0.000000,-1,-0.125431,-0.700517,1.296178,0.094016,0.085323,0.270692
"2019-05-05 23:02:09.298 +0000",1557097329.298027,-1.888237,0.143129,0.550436,-0.940323,-0.142641,0.308945,0.000000,0.000000,0.000000,-1,-0.711598,-0.679044,1.505388,0.101730,-0.003187,0.216629
"2019-05-05 23:02:09.320 +0000",1557097329.320334,-1.889099,0.118136,0.519450,-0.943148,-0.117862,0.310773,0.000000,0.000000,0.000000,-1,-0.964745,0.073434,1.435333,-0.213315,-0.094327,-0.206785
"2019-05-05 23:02:09.343 +0000",1557097329.342642,-1.875043,0.098033,0.491097,-0.949492,-0.097876,0.298136,0.000000,0.000000,0.000000,-1,-0.909217,0.607359,1.120482,-0.044633,-0.122904,-0.133937
"2019-05-05 23:02:09.365 +0000",1557097329.365428,-1.863082,0.081305,0.466033,-0.954424,-0.081215,0.287190,0.000000,0.000000,0.000000,-1,-0.765497,0.561432,0.998137,0.249316,-0.013191,-0.033742
"2019-05-05 23:02:09.388 +0000",1557097329.387751,-1.835421,0.060473,0.448283,-0.963426,-0.060436,0.261069,0.000000,0.000000,0.000000,-1,-0.520516,1.791215,1.193256,0.333376,-0.088749,0.122720
"2019-05-05 23:02:09.410 +0000",1557097329.410029,-1.768850,0.046765,0.427975,-0.979380,-0.046748,0.196546,0.000000,0.000000,0.000000,-1,-0.787104,3.365319,0.457174,-0.223776,0.200359,0.379687
"2019-05-05 23:02:09.432 +0000",1557097329.432337,-1.721812,0.040814,0.421578,-0.987796,-0.040802,0.150317,0.000000,0.000000,0.000000,-1,0.357856,1.220372,0.446932,0.073992,0.097061,-0.123217
"2019-05-05 23:02:09.455 +0000",1557097329.454645,-1.729741,0.023563,0.443902,-0.987121,-0.023561,0.158232,0.000000,0.000000,0.000000,-1,1.354418,-1.011099,0.664413,0.057662,0.038057,-0.391539
"2019-05-05 23:02:09.477 +0000",1557097329.476953,-1.762437,0.004409,0.470760,-0.981683,-0.004409,0.190468,0.000000,0.000000,0.000000,-1,1.251975,-1.541791,0.547507,-0.157873,0.054565,0.014915
"2019-05-05 23:02:09.499 +0000",1557097329.499259,-1.789856,-0.010550,0.491824,-0.976048,0.010550,0.217299,0.000000,0.000000,0.000000,-1,0.913274,-0.983832,0.446887,-0.092815,0.020623,0.041124
"2019-05-05 23:02:09.522 +0000",1557097329.521568,-1.796069,-0.023281,0.502498,-0.974469,0.023279,0.223312,0.000000,0.000000,0.000000,-1,0.455836,0.066222,0.367900,0.182660,0.554571,0.130906
"2019-05-05 23:02:09.544 +0000",1557097329.543865,-1.794684,-0.027617,0.511914,-0.974670,0.027614,0.221937,0.000000,0.000000,0.000000,-1,0.450260,-0.070726,-0.053911,-0.033326,0.400991,-0.027113
"2019-05-05 23:02:09.566 +0000",1557097329.566151,-1.796238,-0.024054,0.519312,-0.974414,0.024051,0.223472,0.000000,0.000000,0.000000,-1,0.161844,0.090319,-0.368081,-0.048063,0.216153,0.021355
"2019-05-05 23:02:09.588 +0000",1557097329.588461,-1.798175,-0.014044,0.522696,-0.974164,0.014043,0.225403,0.000000,0.000000,0.000000,-1,-0.099992,0.080720,-0.595127,0.042905,0.165507,0.117844
"2019-05-05 23:02:09.611 +0000",1557097329.610772,-1.792618,0.006116,0.521389,-0.975480,-0.006116,0.220003,0.000000,0.000000,0.000000,-1,-0.201977,0.293035,-1.032485,-0.135558,0.143018,-0.015002
"2019-05-05 23:02:09.633 +0000",1557097329.633078,-1.786504,0.037133,0.524979,-0.976152,-0.037125,0.213891,0.000000,0.000000,0.000000,-1,-0.441056,0.106629,-1.493654,-0.219588,0.303330,-0.016031
"2019-05-05 23:02:09.655 +0000",1557097329.655384,-1.815218,0.041247,0.498217,-0.969452,-0.041235,0.241790,0.000000,0.000000,0.000000,-1,-1.156624,-1.677133,1.123287,0.308533,-0.516703,-0.233336
"2019-05-05 23:02:09.678 +0000",1557097329.677663,-1.861830,-0.001742,0.478383,-0.957946,0.001742,0.286942,0.000000,0.000000,0.000000,-1,0.097890,-2.207692,2.484445,0.277099,-0.301928,-0.022873
"2019-05-05 23:02:09.700 +0000",1557097329.699963,-1.904189,-0.069615,0.464182,-0.942649,0.069559,0.326459,0.000000,0.000000,0.000000,-1,0.361741,-1.516391,3.398903,-0.109323,0.094748,0.401523
"2019-05-05 23:02:09.722 +0000",1557097329.722279,-1.928978,-0.145950,0.442070,-0.926579,0.145433,0.346844,0.000000,0.000000,0.000000,-1,0.326725,-0.862329,3.622582,-0.093151,-0.093507,0.161243
"2019-05-05 23:02:09.745 +0000",1557097329.744582,-1.950343,-0.218080,0.432666,-0.906833,0.216356,0.361724,0.000000,0.000000,0.000000,-1,0.887442,-0.944437,3.642162,-0.067975,0.770094,0.075273
"2019-05-05 23:02:09.767 +0000",1557097329.766888,-1.977104,-0.293818,0.421384,-0.879221,0.289608,0.378283,0.000000,0.000000,0.000000,-1,0.719314,-1.171775,2.130648,0.314218,0.195316,0.014493
"2019-05-05 23:02:09.789 +0000",1557097329.789171,-2.004858,-0.300052,0.426085,-0.866729,0.295570,0.401769,0.000000,0.000000,0.000000,-1,0.138348,-1.151022,-0.076708,0.448135,0.078041,-0.122640
"2019-05-05 23:02:09.811 +0000",1557097329.811481,-2.010810,-0.299168,0.419386,-0.864559,0.294725,0.407032,0.000000,0.000000,0.000000,-1,-0.510821,0.455983,0.103514,-0.176945,-0.021288,0.171338
"2019-05-05 23:02:09.834 +0000",1557097329.833785,-1.994913,-0.289878,0.405440,-0.873378,0.285835,0.394347,0.000000,0.000000,0.000000,-1,-0.790132,1.062367,-0.205920,-0.014546,0.009346,0.043168
"2019-05-05 23:02:09.856 +0000",1557097329.856096,-1.975965,-0.280190,0.390925,-0.883196,0.276538,0.378802,0.000000,0.000000,0.000000,-1,-0.690935,0.863351,-0.147046,0.111895,0.074567,0.011243
"2019-05-05 23:02:09.878 +0000",1557097329.878404,-1.981262,-0.279891,0.373818,-0.881253,0.276251,0.383509,0.000000,0.000000,0.000000,-1,-0.404657,-0.626237,0.173953,0.175473,-0.125295,-0.053156
"2019-05-05 23:02:09.901 +0000",1557097329.900711,-2.001929,-0.275088,0.362798,-0.874335,0.271631,0.402188,0.000000,0.000000,0.000000,-1,-0.574798,-0.913596,-0.006125,0.019355,0.145452,0.078113
"2019-05-05 23:02:09.923 +0000",1557097329.922989,-2.028584,-0.265351,0.354068,-0.865637,0.262248,0.426496,0.000000,0.000000,0.000000,-1,-0.451207,-1.175914,-0.414362,-0.053415,-0.127559,-0.001936
"2019-05-05 23:02:09.945 +0000",1557097329.945296,-2.047553,-0.250402,0.350882,-0.860779,0.247794,0.444588,0.000000,0.000000,0.000000,-1,-0.463650,-0.460338,-0.510038,-0.081650,-0.163321,0.144966
"2019-05-05 23:02:09.968 +0000",1557097329.967605,-2.050061,-0.236057,0.343143,-0.862726,0.233870,0.448339,0.000000,0.000000,0.000000,-1,-0.639431,0.155292,-0.348105,0.029856,-0.076552,0.197748
"2019-05-05 23:02:09.990 +0000",1557097329.989925,-2.044359,-0.221493,0.326950,-0.868208,0.219686,0.444919,0.000000,0.000000,0.000000,-1,-1.151815,0.601941,-0.265452,-0.069292,0.421626,0.018079
"2019-05-05 23:02:10.012 +0000",1557097330.012220,-2.033183,-0.203207,0.301045,-0.876575,0.201811,0.436907,0.000000,0.000000,0.000000,-1,-1.443613,0.593652,-0.150133,-0.008526,0.382600,-0.066973
"2019-05-05 23:02:10.035 +0000",1557097330.034528,-2.045396,-0.193468,0.275907,-0.872881,0.192264,0.448457,0.000000,0.000000,0.000000,-1,-0.963291,-0.849539,0.377708,0.081850,0.069272,-0.163468
"2019-05-05 23:02:10.057 +0000",1557097330.056801,-2.074032,-0.192835,0.259116,-0.859790,0.191642,0.473323,0.000000,0.000000,0.000000,-1,-0.730800,-1.120632,-0.084989,0.061053,-0.351081,0.066166
"2019-05-05 23:02:10.079 +0000",1557097330.079114,-2.108613,-0.183136,0.247046,-0.844467,0.182114,0.503696,0.000000,0.000000,0.000000,-1,-0.506503,-1.632168,-0.055541,-0.000336,-0.198318,-0.087650
"2019-05-05 23:02:10.101 +0000",1557097330.101423,-2.141681,-0.175847,0.239551,-0.828447,0.174942,0.532043,0.000000,0.000000,0.000000,-1,-0.459993,-1.199321,-0.104023,-0.147215,0.172012,0.044266
"2019-05-05 23:02:10.124 +0000",1557097330.123731,-2.164047,-0.167790,0.235164,-0.817484,0.167004,0.551208,0.000000,0.000000,0.000000,-1,-0.293465,-0.874984,-0.232125,-0.095388,0.233738,0.072373
"2019-05-05 23:02:10.146 +0000",1557097330.146037,-2.184220,-0.160110,0.230421,-0.807224,0.159427,0.568307,0.000000,0.000000,0.000000,-1,-0.545632,-0.957499,-0.229019,0.046085,0.266018,0.007010
"2019-05-05 23:02:10.168 +0000",1557097330.168346,-2.210526,-0.154014,0.226901,-0.792761,0.153406,0.589913,0.000000,0.000000,0.000000,-1,-0.033210,-1.089439,-0.047750,0.058737,0.089285,0.033027
"2019-05-05 23:02:10.191 +0000",1557097330.190623,-2.229198,-0.154904,0.233514,-0.781500,0.154285,0.604527,0.000000,0.000000,0.000000,-1,0.381529,-0.824147,-0.202514,-0.020639,0.020931,0.079585
"2019-05-05 23:02:10.213 +0000",1557097330.212931,-2.246172,-0.157273,0.243135,-0.770840,0.156626,0.617474,0.000000,0.000000,0.000000,-1,0.342834,-0.937085,-0.137020,0.033123,-0.097757,-0.034680
"2019-05-05 23:02:10.235 +0000",1557097330.235240,-2.274528,-0.162310,0.244728,-0.752412,0.161599,0.638563,0.000000,0.000000,0.000000,-1,0.038617,-1.298128,0.375917,0.079194,-0.209481,-0.002836
"2019-05-05 23:02:10.258 +0000",1557097330.257547,-2.267979,-0.177313,0.241618,-0.754634,0.176386,0.631993,0.000000,0.000000,0.000000,-1,0.763953,1.216396,0.955569,0.441783,-1.068445,0.838603
"2019-05-05 23:02:10.280 +0000",1557097330.279842,-2.230526,-0.225569,0.234891,-0.770141,0.223661,0.597377,0.000000,0.000000,0.000000,-1,1.238480,1.675303,2.511059,0.062637,0.404879,-0.134822
"2019-05-05 23:02:10.302 +0000",1557097330.302132,-2.205005,-0.287621,0.202191,-0.772450,0.283672,0.568200,0.000000,0.000000,0.000000,-1,-0.068822,1.256453,3.130764,-0.096233,0.013554,-0.215020
"2019-05-05 23:02:10.324 +0000",1557097330.324441,-2.207119,-0.330539,0.152846,-0.760749,0.324553,0.562074,0.000000,0.000000,0.000000,-1,-0.718270,0.128040,2.471851,-0.044351,-0.181029,-0.289796
"2019-05-05 23:02:10.347 +0000",1557097330.346749,-2.228277,-0.363790,0.107219,-0.739733,0.355818,0.571130,0.000000,0.000000,0.000000,-1,-0.501629,-0.405751,2.472960,-0.058424,0.070238,-0.074944
"2019-05-05 23:02:10.369 +0000",1557097330.369056,-2.253288,-0.398766,0.065603,-0.715119,0.388282,0.581242,0.000000,0.000000,0.000000,-1,-0.384158,-0.395010,2.056094,-0.020843,0.499536,0.098476
"2019-05-05 23:02:10.391 +0000",1557097330.391364,-2.274219,-0.420018,0.033679,-0.696346,0.407777,0.590610,0.000000,0.000000,0.000000,-1,-0.289756,-0.540830,1.237431,0.212383,0.473373,-0.009830
"2019-05-05 23:02:10.414 +0000",1557097330.413672,-2.287299,-0.428877,0.026854,-0.685810,0.415850,0.597272,0.000000,0.000000,0.000000,-1,0.173330,-0.294377,0.022193,0.212055,0.342939,0.128604
"2019-05-05 23:02:10.436 +0000",1557097330.435950,-2.289373,-0.419493,0.050166,-0.687477,0.407298,0.601235,0.000000,0.000000,0.000000,-1,0.728854,-0.671490,-1.490162,0.153740,-0.040477,0.026115
"2019-05-05 23:02:10.458 +0000",1557097330.458257,-2.278917,-0.403187,0.099078,-0.698678,0.392352,0.598255,0.000000,0.000000,0.000000,-1,1.042791,-0.093185,-1.809018,0.311609,-0.042376,0.139080
"2019-05-05 23:02:10.481 +0000",1557097330.480565,-2.253490,-0.389313,0.134703,-0.717818,0.379553,0.583676,0.000000,0.000000,0.000000,-1,0.495682,0.652517,-1.371758,0.324171,0.203302,0.082981
"2019-05-05 23:02:10.503 +0000",1557097330.502864,-2.230449,-0.361138,0.162883,-0.739233,0.353339,0.573311,0.000000,0.000000,0.000000,-1,-0.029241,0.531286,-1.807577,0.012015,0.114450,0.044639
"2019-05-05 23:02:10.525 +0000",1557097330.525182,-2.203908,-0.335812,0.178934,-0.761159,0.329536,0.558608,0.000000,0.000000,0.000000,-1,-0.243021,1.069017,-1.107815,0.166082,0.227944,0.062074
"2019-05-05 23:02:10.547 +0000",1557097330.547490,-2.182227,-0.322989,0.183077,-0.776487,0.317402,0.544356,0.000000,0.000000,0.000000,-1,-0.140654,0.643114,-0.233131,-0.097582,0.308620,0.068345
"2019-05-05 23:02:10.570 +0000",1557097330.569766,-2.181133,-0.322428,0.179560,-0.777228,0.316871,0.543608,0.000000,0.000000,0.000000,-1,-0.160772,0.016046,0.168159,-0.242944,0.195458,0.097154
"2019-05-05 23:02:10.592 +0000",1557097330.592075,-2.181883,-0.324183,0.170781,-0.776363,0.318534,0.543871,0.000000,0.000000,0.000000,-1,-0.330714,0.129691,0.308499,-0.051106,0.114159,0.066923
"2019-05-05 23:02:10.614 +0000",1557097330.614382,-2.182404,-0.324450,0.158242,-0.776010,0.318788,0.544227,0.000000,0.000000,0.000000,-1,-0.472380,0.175188,0.319200,0.047616,0.116408,0.004128
"2019-05-05 23:02:10.637 +0000",1557097330.636692,-2.182221,-0.322989,0.143666,-0.776490,0.317402,0.544352,0.000000,0.000000,0.000000,-1,-0.585536,0.219146,0.246810,0.113008,0.157543,0.015463
"2019-05-05 23:02:10.659 +0000",1557097330.658998,-2.184974,-0.318167,0.130536,-0.776230,0.312827,0.547363,0.000000,0.000000,0.000000,-1,-0.590084,0.015558,0.088585,0.103333,0.011758,0.026566
"2019-05-05 23:02:10.681 +0000",1557097330.681307,-2.185863,-0.310286,0.121124,-0.777733,0.305331,0.549458,0.000000,0.000000,0.000000,-1,-0.500240,0.086454,-0.038541,0.139824,-0.088076,0.015651
"2019-05-05 23:02:10.704 +0000",1557097330.703584,-2.186515,-0.308175,0.110161,-0.777899,0.303320,0.550336,0.000000,0.000000,0.000000,-1,-0.332506,0.166062,0.170476,0.052344,-0.223303,0.014453
"2019-05-05 23:02:10.726 +0000",1557097330.725881,-2.187954,-0.306860,0.104155,-0.777431,0.302067,0.551686,0.000000,0.000000,0.000000,-1,-0.181326,-0.059411,0.062134,0.057384,0.072170,0.050472
"2019-05-05 23:02:10.748 +0000",1557097330.748200,-2.190015,-0.305950,0.100923,-0.776515,0.301199,0.553446,0.000000,0.000000,0.000000,-1,-0.119883,-0.020064,0.050646,0.030986,0.067361,0.043936
"2019-05-05 23:02:10.771 +0000",1557097330.770507,-2.189423,-0.305747,0.098013,-0.776893,0.301006,0.553022,0.000000,0.000000,0.000000,-1,-0.104609,0.110464,0.082989,0.022269,0.034215,0.027560
"2019-05-05 23:02:10.793 +0000",1557097330.792816,-2.188070,-0.305612,0.095012,-0.777674,0.300877,0.551994,0.000000,0.000000,0.000000,-1,-0.092200,0.083296,0.054703,0.008631,0.046901,0.019387
"2019-05-05 23:02:10.815 +0000",1557097330.815093,-2.186974,-0.305370,0.092342,-0.778338,0.300646,0.551183,0.000000,0.000000,0.000000,-1,-0.099717,0.089449,0.055885,0.016131,0.028501,0.027080
"2019-05-05 23:02:10.837 +0000",1557097330.837402,-2.185273,-0.305701,0.090472,-0.779193,0.300961,0.549801,0.000000,0.000000,0.000000,-1,-0.040698,0.103058,0.069436,0.024188,0.039523,0.026096
"2019-05-05 23:02:10.860 +0000",1557097330.859709,-2.183616,-0.306330,0.088913,-0.779947,0.301562,0.548400,0.000000,0.000000,0.000000,-1,-0.039566,0.078356,0.043604,0.029139,0.015043,0.022645
"2019-05-05 23:02:10.882 +0000",1557097330.882017,-2.182131,-0.306272,0.087546,-0.780775,0.301506,0.547251,0.000000,0.000000,0.000000,-1,-0.074767,0.080724,0.023720,0.014540,0.055839,0.029760
"2019-05-05 23:02:10.904 +0000",1557097330.904326,-2.191247,-0.316881,0.083523,-0.773108,0.311604,0.552455,0.000000,0.000000,0.000000,-1,-0.037249,0.007994,-0.006609,0.028098,0.038814,0.018788
"2019-05-05 23:02:10.927 +0000",1557097330.926633,-2.201765,-0.329157,0.079696,-0.764108,0.323246,0.558257,0.000000,0.000000,0.000000,-1,-0.037236,0.012854,-0.007781,-0.000723,0.039227,0.028703
"2019-05-05 23:02:10.949 +0000",1557097330.948910,-2.212893,-0.334143,0.074601,-0.756548,0.327960,0.565753,0.000000,0.000000,0.000000,-1,-0.079632,0.033889,0.049144,0.031359,0.013989,0.024869
"2019-05-05 23:02:10.971 +0000",1557097330.971219,-2.218922,-0.336610,0.068781,-0.752477,0.330289,0.569814,0.000000,0.000000,0.000000,-1,-0.173359,0.014470,0.137384,0.041478,0.013781,0.019847
"2019-05-05 23:02:10.994 +0000",1557097330.993526,-2.227043,-0.338614,0.060302,-0.747299,0.332180,0.575501,0.000000,0.000000,0.000000,-1,-0.258484,-0.085019,0.195323,0.050826,0.016407,0.017868
"2019-05-05 23:02:11.016 +0000",1557097331.015834,-2.229931,-0.338520,0.053001,-0.745658,0.332091,0.577676,0.000000,0.000000,0.000000,-1,-0.242164,0.051459,0.175510,0.048850,0.022371,0.029792
"2019-05-05 23:02:11.038 +0000",1557097331.038142,-2.229112,-0.338454,0.046476,-0.746148,0.332029,0.577078,0.000000,0.000000,0.000000,-1,-0.208255,0.271568,0.148760,0.059487,-0.021757,0.120447
"2019-05-05 23:02:11.060 +0000",1557097331.060451,-2.228648,-0.337793,0.040853,-0.746590,0.331406,0.576866,0.000000,0.000000,0.000000,-1,-0.214742,0.120151,0.121569,-0.051064,0.049026,-0.005714
"2019-05-05 23:02:11.083 +0000",1557097331.082727,-2.230110,-0.336950,0.034742,-0.745966,0.330610,0.578128,0.000000,0.000000,0.000000,-1,-0.223560,0.007011,0.131253,-0.022146,0.012515,-0.004534
"2019-05-05 23:02:11.105 +0000",1557097331.105036,-2.232379,-0.336451,0.028914,-0.744782,0.330139,0.579920,0.000000,0.000000,0.000000,-1,-0.202266,-0.039725,0.131677,0.021668,-0.024917,-0.004237
"2019-05-05 23:02:11.127 +0000",1557097331.127342,-2.235844,-0.336134,0.023739,-0.742850,0.329840,0.582562,0.000000,0.000000,0.000000,-1,-0.160964,-0.086509,0.117224,0.014060,-0.017432,-0.007168
"2019-05-05 23:02:11.150 +0000",1557097331.149650,-2.237364,-0.336587,0.020222,-0.741847,0.330268,0.583598,0.000000,0.000000,0.000000,-1,-0.058119,0.011872,0.097786,-0.000814,-0.006888,-0.005137
"2019-05-05 23:02:11.172 +0000",1557097331.171953,-2.237402,-0.337566,0.018646,-0.741570,0.331191,0.583426,0.000000,0.000000,0.000000,-1,-0.014330,0.001950,0.071842,-0.060127,0.013261,-0.037863
"2019-05-05 23:02:11.194 +0000",1557097331.194237,-2.238652,-0.338454,0.017603,-0.740609,0.332029,0.584170,0.000000,0.000000,0.000000,-1,-0.010691,-0.073158,0.053902,-0.065085,0.022250,-0.036303
"2019-05-05 23:02:11.217 +0000",1557097331.216545,-2.240777,-0.339240,0.017093,-0.739162,0.332770,0.585580,0.000000,0.000000,0.000000,-1,0.015558,-0.081839,0.032901,-0.052083,0.020242,-0.026773
"2019-05-05 23:02:11.239 +0000",1557097331.238863,-2.242049,-0.339908,0.017378,-0.738242,0.333400,0.586382,0.000000,0.000000,0.000000,-1,0.030527,-0.062241,0.009163,-0.026849,0.014363,-0.002687
"2019-05-05 23:02:11.261 +0000",1557097331.261160,-2.243468,-0.340296,0.018132,-0.737308,0.333766,0.587348,0.000000,0.000000,0.000000,-1,0.034185,-0.091844,-0.011661,-0.023084,0.008321,-0.001105
"2019-05-05 23:02:11.283 +0000",1557097331.283469,-2.244878,-0.341158,0.019306,-0.736254,0.334579,0.588207,0.000000,0.000000,0.000000,-1,0.021602,-0.157032,-0.011086,-0.020766,0.016129,-0.007336
"2019-05-05 23:02:11.306 +0000",1557097331.305776,-2.248672,-0.341202,0.019602,-0.734005,0.334620,0.590987,0.000000,0.000000,0.000000,-1,0.007760,-0.201337,-0.014420,-0.025974,0.040213,-0.019485
"2019-05-05 23:02:11.328 +0000",1557097331.328054,-2.252913,-0.341092,0.020722,-0.731521,0.334517,0.594118,0.000000,0.000000,0.000000,-1,0.059076,-0.187898,-0.044291,0.001784,0.034029,-0.000383
"2019-05-05 23:02:11.350 +0000",1557097331.350362,-2.256625,-0.343977,0.022677,-0.728561,0.337234,0.596215,0.000000,0.000000,0.000000,-1,0.096674,-0.109249,-0.067277,0.014022,0.029160,0.024344
"2019-05-05 23:02:11.373 +0000",1557097331.372670,-2.257475,-0.344136,0.025673,-0.728012,0.337383,0.596801,0.000000,0.000000,0.000000,-1,0.106688,-0.062548,-0.080093,0.013366,0.023090,0.028046
"2019-05-05 23:02:11.395 +0000",1557097331.394969,-2.256645,-0.344451,0.029300,-0.728425,0.337680,0.596129,0.000000,0.000000,0.000000,-1,0.135552,0.005092,-0.088124,0.056809,0.012936,0.047411
"2019-05-05 23:02:11.417 +0000",1557097331.417286,-2.254349,-0.344835,0.033345,-0.729691,0.338041,0.594373,0.000000,0.000000,0.000000,-1,0.143085,0.062881,-0.096077,0.065888,0.012667,0.051135
"2019-05-05 23:02:11.440 +0000",1557097331.439595,-2.251017,-0.345080,0.037206,-0.731603,0.338272,0.591886,0.000000,0.000000,0.000000,-1,0.126822,0.098567,-0.091439,0.069463,0.005707,0.051043
"2019-05-05 23:02:11.462 +0000",1557097331.461865,-2.247684,-0.344965,0.040193,-0.733602,0.338164,0.589469,0.000000,0.000000,0.000000,-1,0.075489,0.104782,-0.069186,0.048879,0.002733,0.034768
"2019-05-05 23:02:11.484 +0000",1557097331.484179,-2.245164,-0.344906,0.041558,-0.735100,0.338109,0.587631,0.000000,0.000000,0.000000,-1,0.022973,0.088936,-0.025649,0.044274,0.003414,0.031251
"2019-05-05 23:02:11.506 +0000",1557097331.506488,-2.243281,-0.344564,0.041217,-0.736297,0.337786,0.586317,0.000000,0.000000,0.000000,-1,-0.048379,0.087815,0.010306,0.030837,0.017835,0.022890
"2019-05-05 23:02:11.529 +0000",1557097331.528795,-2.242280,-0.344043,0.039369,-0.737020,0.337296,0.585690,0.000000,0.000000,0.000000,-1,-0.088404,0.062090,0.042771,0.011694,0.023513,0.014683
"2019-05-05 23:02:11.551 +0000",1557097331.551103,-2.242452,-0.343301,0.036069,-0.737115,0.336597,0.585972,0.000000,0.000000,0.000000,-1,-0.141012,0.027716,0.066624,0.000818,0.020489,0.003033
"2019-05-05 23:02:11.573 +0000",1557097331.573411,-2.243317,-0.344524,0.032133,-0.736286,0.337749,0.586352,0.000000,0.000000,0.000000,-1,-0.147200,0.022871,0.086528,0.000049,0.018330,0.000684
"2019-05-05 23:02:11.596 +0000",1557097331.595688,-2.244411,-0.343875,0.028070,-0.735815,0.337138,0.587294,0.000000,0.000000,0.000000,-1,-0.152226,0.009338,0.086646,-0.002238,0.016256,-0.004973
"2019-05-05 23:02:11.618 +0000",1557097331.617996,-2.243746,-0.344576,0.024754,-0.736021,0.337798,0.586657,0.000000,0.000000,0.000000,-1,-0.156071,-0.060798,0.076108,-0.022387,0.020539,-0.012072
"2019-05-05 23:02:11.640 +0000",1557097331.640305,-2.246767,-0.343586,0.021144,-0.734505,0.336866,0.589087,0.000000,0.000000,0.000000,-1,-0.133616,-0.079346,0.048990,-0.024223,0.029071,-0.019934
"2019-05-05 23:02:11.663 +0000",1557097331.662611,-2.249265,-0.342597,0.020379,-0.733290,0.335934,0.591129,0.000000,0.000000,0.000000,-1,-0.002288,-0.093171,-0.041390,-0.049607,0.032932,-0.021366
"2019-05-05 23:02:11.685 +0000",1557097331.684906,-2.248087,-0.342625,0.020959,-0.733979,0.335961,0.590258,0.000000,0.000000,0.000000,-1,0.014382,0.107565,0.013900,0.060151,-0.062538,0.025708
"2019-05-05 23:02:11.707 +0000",1557097331.707197,-2.245011,-0.343145,0.019636,-0.735654,0.336451,0.587889,0.000000,0.000000,0.000000,-1,-0.048074,0.144667,0.071849,0.031553,-0.044916,0.001497
"2019-05-05 23:02:11.730 +0000",1557097331.729506,-2.243326,-0.343970,0.018400,-0.736426,0.337227,0.586476,0.000000,0.000000,0.000000,-1,0.011980,0.085537,0.043867,-0.053429,0.008491,-0.043461
"2019-05-05 23:02:11.752 +0000",1557097331.751813,-2.241262,-0.344498,0.018852,-0.737496,0.337724,0.584843,0.000000,0.000000,0.000000,-1,0.028061,0.071807,-0.009347,-0.071769,0.036986,-0.010747
"2019-05-05 23:02:11.774 +0000",1557097331.774111,-2.241484,-0.344335,0.019550,-0.737409,0.337571,0.585041,0.000000,0.000000,0.000000,-1,0.015331,-0.090650,-0.027759,0.011686,0.017654,-0.023365
"2019-05-05 23:02:11.796 +0000",1557097331.796429,-2.243803,-0.344078,0.020174,-0.736118,0.337329,0.586804,0.000000,0.000000,0.000000,-1,0.016596,-0.105392,-0.022665,0.002506,0.015607,-0.026852
"2019-05-05 23:02:11.819 +0000",1557097331.818737,-2.245245,-0.344001,0.020895,-0.735292,0.337257,0.587881,0.000000,0.000000,0.000000,-1,0.029177,-0.054947,-0.021867,-0.015563,0.017617,-0.008199
"2019-05-05 23:02:11.841 +0000",1557097331.841014,-2.245618,-0.344040,0.021796,-0.735062,0.337293,0.588147,0.000000,0.000000,0.000000,-1,0.030451,-0.016817,-0.023446,-0.005065,0.015261,0.017795
"2019-05-05 23:02:11.863 +0000",1557097331.863324,-2.245763,-0.344044,0.022536,-0.734976,0.337296,0.588253,0.000000,0.000000,0.000000,-1,0.020421,-0.025423,-0.020892,0.004034,0.010039,0.007877
"2019-05-05 23:02:11.886 +0000",1557097331.885631,-2.246849,-0.343908,0.023033,-0.734372,0.337169,0.589079,0.000000,0.000000,0.000000,-1,0.006622,-0.073374,-0.013029,0.009733,0.006413,0.004976
"2019-05-05 23:02:11.908 +0000",1557097331.907935,-2.248614,-0.343807,0.023112,-0.733358,0.337073,0.590396,0.000000,0.000000,0.000000,-1,-0.003353,-0.081884,0.000558,0.010335,0.004479,0.004651
"2019-05-05 23:02:11.930 +0000",1557097331.930247,-2.250288,-0.343844,0.022770,-0.732359,0.337108,0.591615,0.000000,0.000000,0.000000,-1,-0.014576,-0.065844,0.014057,0.009871,0.006672,0.006713
"2019-05-05 23:02:11.953 +0000",1557097331.952554,-2.254054,-0.345399,0.021521,-0.729718,0.338572,0.594037,0.000000,0.000000,0.000000,-1,-0.015846,-0.056044,0.007783,0.003980,0.009374,0.009814
"2019-05-05 23:02:11.975 +0000",1557097331.974846,-2.256654,-0.346339,0.020663,-0.727925,0.339457,0.595731,0.000000,0.000000,0.000000,-1,-0.012086,-0.040075,0.003932,0.006077,0.012701,0.014102
"2019-05-05 23:02:11.997 +0000",1557097331.997140,-2.258337,-0.347052,0.020058,-0.726734,0.340127,0.596801,0.000000,0.000000,0.000000,-1,-0.008310,-0.006879,0.001166,0.006000,0.012122,0.012955
"2019-05-05 23:02:12.019 +0000",1557097332.019448,-2.259971,-0.348341,0.019385,-0.725419,0.341339,0.597708,0.000000,0.000000,0.000000,-1,-0.000772,0.014020,-0.000244,0.003068,0.010132,0.010782
"2019-05-05 23:02:12.042 +0000",1557097332.041757,-2.260250,-0.348910,0.019236,-0.725102,0.341874,0.597787,0.000000,0.000000,0.000000,-1,0.000464,0.015227,-0.005211,0.004093,0.009017,0.005637
"2019-05-05 23:02:12.064 +0000",1557097332.064064,-2.260237,-0.349771,0.019180,-0.724882,0.342683,0.597591,0.000000,0.000000,0.000000,-1,-0.003301,0.015218,-0.006445,0.000349,0.007979,0.003209
"2019-05-05 23:02:12.086 +0000",1557097332.086341,-2.260069,-0.350082,0.019199,-0.724901,0.342975,0.597400,0.000000,0.000000,0.000000,-1,-0.003302,0.017673,-0.007704,0.000093,0.004697,0.002789
"2019-05-05 23:02:12.109 +0000",1557097332.108649,-2.259647,-0.350082,0.019245,-0.725152,0.342975,0.597095,0.000000,0.000000,0.000000,-1,-0.000781,0.021373,-0.005253,-0.003043,0.004162,0.001386
"2019-05-05 23:02:12.131 +0000",1557097332.130943,-2.258751,-0.350048,0.019359,-0.725697,0.342943,0.596452,0.000000,0.000000,0.000000,-1,-0.004535,0.025070,-0.004047,-0.006969,0.003188,0.000685
"2019-05-05 23:02:12.153 +0000",1557097332.153265,-2.257732,-0.350074,0.019459,-0.726297,0.342967,0.595706,0.000000,0.000000,0.000000,-1,-0.000758,0.030005,-0.001608,-0.007986,0.004033,-0.002140
"2019-05-05 23:02:12.176 +0000",1557097332.175557,-2.256273,-0.350351,0.019678,-0.727091,0.343228,0.594586,0.000000,0.000000,0.000000,-1,-0.008264,0.025108,0.003394,-0.010427,0.007343,-0.003201
"2019-05-05 23:02:12.198 +0000",1557097332.197881,-2.255894,-0.350216,0.019513,-0.727353,0.343101,0.594340,0.000000,0.000000,0.000000,-1,-0.008276,0.014032,0.002252,-0.011142,0.004845,-0.006785
"2019-05-05 23:02:12.220 +0000",1557097332.220183,-2.254424,-0.350131,0.019859,-0.728248,0.343021,0.593288,0.000000,0.000000,0.000000,-1,-0.005780,0.015258,-0.001482,-0.012825,0.002118,-0.004055
"2019-05-05 23:02:12.242 +0000",1557097332.242460,-2.253170,-0.350196,0.020123,-0.728974,0.343082,0.592361,0.000000,0.000000,0.000000,-1,-0.005784,0.011572,-0.002690,-0.011871,0.004589,-0.005187
"2019-05-05 23:02:12.265 +0000",1557097332.264773,-2.252621,-0.350163,0.020372,-0.729308,0.343051,0.591968,0.000000,0.000000,0.000000,-1,0.002977,0.002954,-0.006332,-0.012407,0.004147,-0.002231
"2019-05-05 23:02:12.287 +0000",1557097332.287082,-2.251956,-0.350326,0.020727,-0.729658,0.343204,0.591447,0.000000,0.000000,0.000000,-1,0.000468,-0.000732,-0.006300,-0.009844,0.006039,-0.001802
"2019-05-05 23:02:12.309 +0000",1557097332.309390,-2.251514,-0.350461,0.020968,-0.729884,0.343331,0.591095,0.000000,0.000000,0.000000,-1,0.004227,-0.001960,-0.007528,-0.008992,0.006217,-0.000107
"2019-05-05 23:02:12.332 +0000",1557097332.331697,-2.251412,-0.350532,0.021228,-0.729925,0.343397,0.591006,0.000000,0.000000,0.000000,-1,0.004217,-0.010574,-0.008692,-0.005671,0.004641,0.003217
"2019-05-05 23:02:12.354 +0000",1557097332.353977,-2.251617,-0.350659,0.021372,-0.729770,0.343517,0.591128,0.000000,0.000000,0.000000,-1,0.002981,-0.015475,-0.003685,-0.003873,0.005772,0.004255
"2019-05-05 23:02:12.376 +0000",1557097332.376284,-2.251945,-0.350636,0.021427,-0.729582,0.343495,0.591372,0.000000,0.000000,0.000000,-1,-0.005804,-0.015483,-0.004929,-0.002870,0.003948,0.002439
"2019-05-05 23:02:12.399 +0000",1557097332.398591,-2.252626,-0.350797,0.021285,-0.729136,0.343647,0.591834,0.000000,0.000000,0.000000,-1,-0.003269,-0.022836,0.002584,-0.000768,0.005535,0.004449
"2019-05-05 23:02:12.421 +0000",1557097332.420900,-2.253053,-0.350674,0.021206,-0.728916,0.343531,0.592172,0.000000,0.000000,0.000000,-1,-0.003229,-0.012972,-0.002618,-0.001674,0.004263,0.006705
"2019-05-05 23:02:12.443 +0000",1557097332.443208,-2.253516,-0.350749,0.021124,-0.728622,0.343601,0.592493,0.000000,0.000000,0.000000,-1,-0.004497,-0.003153,-0.007666,-0.000779,0.005199,0.005056
"2019-05-05 23:02:12.465 +0000",1557097332.465486,-2.253944,-0.350714,0.021051,-0.728378,0.343568,0.592813,0.000000,0.000000,0.000000,-1,-0.003246,-0.008075,-0.007620,-0.002015,0.003279,0.007392
"2019-05-05 23:02:12.488 +0000",1557097332.487793,-2.254143,-0.350656,0.020932,-0.728275,0.343514,0.592970,0.000000,0.000000,0.000000,-1,-0.004464,0.000563,-0.000253,-0.000897,0.004661,0.006502
"2019-05-05 23:02:12.510 +0000",1557097332.510097,-2.254411,-0.350785,0.020865,-0.728082,0.343635,0.593137,0.000000,0.000000,0.000000,-1,0.000542,0.005469,-0.004015,0.000192,0.004571,0.006594
"2019-05-05 23:02:12.532 +0000",1557097332.532408,-2.254383,-0.350793,0.020880,-0.728096,0.343643,0.593115,0.000000,0.000000,0.000000,-1,0.001797,0.006699,-0.004024,-0.000908,0.004075,0.005960
"2019-05-05 23:02:12.555 +0000",1557097332.554717,-2.254292,-0.350762,0.020906,-0.728158,0.343613,0.593056,0.000000,0.000000,0.000000,-1,-0.000711,0.007927,-0.004036,-0.001196,0.003890,0.005012
"2019-05-05 23:02:12.577 +0000",1557097332.577000,-2.254049,-0.350902,0.020949,-0.728265,0.343745,0.592848,0.000000,0.000000,0.000000,-1,-0.003201,0.011631,-0.000347,-0.004218,0.005086,0.004533
"2019-05-05 23:02:12.599 +0000",1557097332.599302,-2.253763,-0.350909,0.021029,-0.728433,0.343752,0.592639,0.000000,0.000000,0.000000,-1,-0.000485,0.006804,-0.001816,-0.004279,0.003737,0.001264
"2019-05-05 23:02:12.622 +0000",1557097332.621610,-2.253452,-0.350886,0.021166,-0.728624,0.343730,0.592417,0.000000,0.000000,0.000000,-1,-0.000489,0.008030,-0.003067,-0.007140,0.004247,0.002386
"2019-05-05 23:02:12.644 +0000",1557097332.643919,-2.253255,-0.350765,0.021216,-0.728772,0.343616,0.592300,0.000000,0.000000,0.000000,-1,-0.004268,0.006784,-0.006779,-0.005160,0.001751,0.000870
"2019-05-05 23:02:12.666 +0000",1557097332.666225,-2.252986,-0.350723,0.021290,-0.728943,0.343577,0.592112,0.000000,0.000000,0.000000,-1,-0.005510,0.001879,-0.003015,-0.006165,0.002477,-0.000026
"2019-05-05 23:02:12.689 +0000",1557097332.688533,-2.252672,-0.350697,0.021337,-0.729136,0.343552,0.591889,0.000000,0.000000,0.000000,-1,-0.002991,0.000661,-0.000521,-0.007498,0.003707,0.000167
"2019-05-05 23:02:12.711 +0000",1557097332.710841,-2.252726,-0.350600,0.021357,-0.729129,0.343462,0.591950,0.000000,0.000000,0.000000,-1,0.003256,-0.005506,-0.005426,-0.005688,0.006163,-0.000229
"2019-05-05 23:02:12.733 +0000",1557097332.733119,-2.252601,-0.350627,0.021479,-0.729196,0.343487,0.591852,0.000000,0.000000,0.000000,-1,-0.004263,-0.004272,-0.004200,-0.006872,0.004261,0.002905
"2019-05-05 23:02:12.755 +0000",1557097332.755427,-2.252577,-0.350695,0.021594,-0.729193,0.343551,0.591820,0.000000,0.000000,0.000000,-1,-0.000499,-0.004270,-0.004197,-0.003245,0.004319,0.001090
"2019-05-05 23:02:12.778 +0000",1557097332.777735,-2.252631,-0.350679,0.021772,-0.729165,0.343535,0.591863,0.000000,0.000000,0.000000,-1,0.003546,-0.005342,-0.003268,-0.004676,0.003129,0.003886
"2019-05-05 23:02:12.800 +0000",1557097332.800035,-2.252742,-0.350854,0.021867,-0.729052,0.343700,0.591906,0.000000,0.000000,0.000000,-1,0.004791,-0.005351,-0.005748,-0.003492,0.005376,0.002759
"2019-05-05 23:02:12.822 +0000",1557097332.822351,-2.252820,-0.350883,0.021965,-0.728998,0.343727,0.591957,0.000000,0.000000,0.000000,-1,-0.000225,-0.002893,-0.005771,-0.003393,0.004860,0.003288
"2019-05-05 23:02:12.845 +0000",1557097332.844629,-2.252953,-0.350972,0.022071,-0.728896,0.343811,0.592034,0.000000,0.000000,0.000000,-1,0.004782,-0.005361,-0.008227,-0.004365,0.004395,0.003623
"2019-05-05 23:02:12.867 +0000",1557097332.866953,-2.253218,-0.350957,0.022014,-0.728743,0.343796,0.592231,0.000000,0.000000,0.000000,-1,-0.003984,-0.006581,-0.004498,-0.002855,0.002822,0.005822
"2019-05-05 23:02:12.889 +0000",1557097332.889245,-2.253498,-0.350955,0.021938,-0.728578,0.343795,0.592435,0.000000,0.000000,0.000000,-1,-0.006487,-0.005348,-0.003269,-0.001525,0.002656,0.003756
"2019-05-05 23:02:12.912 +0000",1557097332.911552,-2.253800,-0.351006,0.021896,-0.728385,0.343843,0.592644,0.000000,0.000000,0.000000,-1,-0.001470,-0.005347,-0.003266,-0.000787,0.003844,0.004203
"2019-05-05 23:02:12.934 +0000",1557097332.933860,-2.253817,-0.350946,0.021894,-0.728391,0.343786,0.592669,0.000000,0.000000,0.000000,-1,-0.000206,0.000809,-0.002079,-0.001116,0.005457,0.005902
"2019-05-05 23:02:12.956 +0000",1557097332.956168,-2.253865,-0.350951,0.021960,-0.728361,0.343791,0.592703,0.000000,0.000000,0.000000,-1,-0.002409,0.004647,-0.007434,-0.003191,0.004948,0.004923
"2019-05-05 23:02:12.978 +0000",1557097332.978446,-2.253912,-0.351004,0.021980,-0.728319,0.343841,0.592727,0.000000,0.000000,0.000000,-1,-0.001145,0.003427,-0.004940,-0.003401,0.003816,0.005647
"2019-05-05 23:02:13.001 +0000",1557097333.000754,-2.253729,-0.351034,0.022110,-0.728420,0.343869,0.592587,0.000000,0.000000,0.000000,-1,0.005129,0.007120,-0.004970,-0.002385,0.004627,0.005253
"2019-05-05 23:02:13.023 +0000",1557097333.023046,-2.253487,-0.351024,0.022271,-0.728566,0.343860,0.592413,0.000000,0.000000,0.000000,-1,0.000109,0.009573,-0.006234,-0.003414,0.003980,0.002390
"2019-05-05 23:02:13.045 +0000",1557097333.045368,-2.253213,-0.351004,0.022392,-0.728733,0.343841,0.592217,0.000000,0.000000,0.000000,-1,-0.002405,0.009567,-0.007475,-0.002758,0.001588,0.000785
"2019-05-05 23:02:13.068 +0000",1557097333.067677,-2.252912,-0.350978,0.022483,-0.728919,0.343816,0.592004,0.000000,0.000000,0.000000,-1,-0.001124,0.010822,-0.001283,-0.003747,0.003566,0.001548
"2019-05-05 23:02:13.090 +0000",1557097333.089975,-2.252653,-0.350982,0.022570,-0.729071,0.343821,0.591814,0.000000,0.000000,0.000000,-1,-0.001134,0.010813,-0.003764,-0.004770,0.004950,0.002364
"2019-05-05 23:02:13.112 +0000",1557097333.112283,-2.252431,-0.350998,0.022637,-0.729198,0.343835,0.591648,0.000000,0.000000,0.000000,-1,-0.004907,0.002197,-0.004929,-0.004963,0.003592,0.002132
"2019-05-05 23:02:13.135 +0000",1557097333.134570,-2.252280,-0.350968,0.022682,-0.729295,0.343807,0.591545,0.000000,0.000000,0.000000,-1,-0.004620,0.002378,-0.001395,-0.007368,0.004063,0.003197
"2019-05-05 23:02:13.157 +0000",1557097333.156879,-2.252276,-0.350885,0.022660,-0.729320,0.343729,0.591559,0.000000,0.000000,0.000000,-1,-0.000854,-0.000076,-0.000131,-0.005528,0.004583,0.002389
"2019-05-05 23:02:13.179 +0000",1557097333.179187,-2.252115,-0.350977,0.022776,-0.729390,0.343816,0.591422,0.000000,0.000000,0.000000,-1,0.002887,-0.005013,-0.005047,-0.006114,0.004710,0.000344
"2019-05-05 23:02:13.201 +0000",1557097333.201494,-2.252033,-0.351002,0.022935,-0.729432,0.343839,0.591357,0.000000,0.000000,0.000000,-1,0.002882,-0.006246,-0.006276,-0.006026,0.003711,0.001966
"2019-05-05 23:02:13.224 +0000",1557097333.223782,-2.251980,-0.350988,0.023145,-0.729467,0.343826,0.591322,0.000000,0.000000,0.000000,-1,0.004123,-0.011175,-0.008713,-0.006113,0.003662,0.001757
"2019-05-05 23:02:13.246 +0000",1557097333.246074,-2.252143,-0.350940,0.023256,-0.729384,0.343781,0.591451,0.000000,0.000000,0.000000,-1,-0.000888,-0.009942,-0.007485,-0.005296,0.002471,0.004115
"2019-05-05 23:02:13.268 +0000",1557097333.268388,-2.252335,-0.350978,0.023400,-0.729260,0.343816,0.591582,0.000000,0.000000,0.000000,-1,0.006634,-0.008714,-0.008733,-0.003467,0.003688,0.004731
"2019-05-05 23:02:13.291 +0000",1557097333.290696,-2.252537,-0.350967,0.023509,-0.729144,0.343806,0.591733,0.000000,0.000000,0.000000,-1,0.005398,-0.003780,-0.005055,-0.004087,0.002263,0.007221
"2019-05-05 23:02:13.313 +0000",1557097333.312979,-2.252736,-0.351123,0.023630,-0.728984,0.343953,0.591843,0.000000,0.000000,0.000000,-1,0.004454,-0.001166,-0.005411,-0.001362,0.006938,0.005538
"2019-05-05 23:02:13.335 +0000",1557097333.335311,-2.252882,-0.351159,0.023639,-0.728888,0.343986,0.591943,0.000000,0.000000,0.000000,-1,-0.000561,-0.006084,-0.004128,-0.002512,0.006371,0.005546
"2019-05-05 23:02:13.358 +0000",1557097333.357589,-2.253141,-0.351250,0.023565,-0.728711,0.344072,0.592111,0.000000,0.000000,0.000000,-1,-0.009340,-0.004858,-0.004142,-0.003375,0.005492,0.005927
"2019-05-05 23:02:13.380 +0000",1557097333.379897,-2.253248,-0.351102,0.023388,-0.728687,0.343933,0.592221,0.000000,0.000000,0.000000,-1,-0.008080,0.003753,-0.004217,-0.000836,0.004257,0.003879
"2019-05-05 23:02:13.402 +0000",1557097333.402204,-2.253365,-0.351149,0.023164,-0.728605,0.343977,0.592296,0.000000,0.000000,0.000000,-1,-0.009302,0.007471,0.003193,-0.002764,0.005113,0.006901
"2019-05-05 23:02:13.425 +0000",1557097333.424513,-2.253053,-0.351375,0.023237,-0.728729,0.344190,0.592020,0.000000,0.000000,0.000000,-1,0.009499,0.023446,-0.003142,-0.005371,0.008121,0.008703
"2019-05-05 23:02:13.447 +0000",1557097333.446820,-2.252378,-0.351660,0.023548,-0.729053,0.344457,0.591466,0.000000,0.000000,0.000000,-1,0.035843,0.059108,-0.008408,0.004703,0.001094,0.012004
"2019-05-05 23:02:13.469 +0000",1557097333.469129,-2.250561,-0.352226,0.024228,-0.729974,0.344988,0.590018,0.000000,0.000000,0.000000,-1,0.034615,0.084948,-0.006156,0.002206,0.002515,0.001184
"2019-05-05 23:02:13.491 +0000",1557097333.491407,-2.248606,-0.352613,0.024975,-0.731022,0.345351,0.588505,0.000000,0.000000,0.000000,-1,0.031118,0.074000,-0.012553,0.000599,0.003846,0.000652
"2019-05-05 23:02:13.514 +0000",1557097333.513713,-2.247067,-0.352959,0.025574,-0.731834,0.345675,0.587305,0.000000,0.000000,0.000000,-1,0.023589,0.053095,-0.009889,-0.001366,0.002469,-0.001078
"2019-05-05 23:02:13.536 +0000",1557097333.536008,-2.245732,-0.353173,0.026141,-0.732559,0.345877,0.586282,0.000000,0.000000,0.000000,-1,0.022336,0.039573,-0.007288,-0.010056,0.004053,0.005744
"2019-05-05 23:02:13.558 +0000",1557097333.558329,-2.244889,-0.353379,0.026412,-0.732997,0.346070,0.585620,0.000000,0.000000,0.000000,-1,0.007306,0.034670,-0.001048,-0.004841,0.005325,0.003858
"2019-05-05 23:02:13.581 +0000",1557097333.580640,-2.243930,-0.353707,0.026728,-0.733470,0.346377,0.584845,0.000000,0.000000,0.000000,-1,0.008535,0.023582,-0.005910,-0.002888,0.008924,-0.003928
"2019-05-05 23:02:13.603 +0000",1557097333.602917,-2.243378,-0.353630,0.026862,-0.733814,0.346305,0.584457,0.000000,0.000000,0.000000,-1,-0.000235,0.023588,-0.003433,0.001728,0.003518,0.004334
"2019-05-05 23:02:13.625 +0000",1557097333.625225,-2.242847,-0.353479,0.026754,-0.734165,0.346164,0.584099,0.000000,0.000000,0.000000,-1,-0.008990,0.024839,0.002755,-0.008755,0.001752,0.003120
"2019-05-05 23:02:13.648 +0000",1557097333.647537,-2.242002,-0.353235,0.026698,-0.734725,0.345934,0.583531,0.000000,0.000000,0.000000,-1,-0.005217,0.016247,0.006552,-0.011476,-0.001971,0.000636
"2019-05-05 23:02:13.670 +0000",1557097333.669841,-2.241843,-0.353296,0.026520,-0.734800,0.345992,0.583402,0.000000,0.000000,0.000000,-1,-0.003742,0.004053,0.001451,-0.010454,-0.003371,-0.000532
"2019-05-05 23:02:13.692 +0000",1557097333.692148,-2.241514,-0.353162,0.026623,-0.735029,0.345867,0.583189,0.000000,0.000000,0.000000,-1,0.005045,-0.000853,0.003978,-0.007983,-0.001079,0.000673
"2019-05-05 23:02:13.714 +0000",1557097333.714455,-2.241379,-0.353168,0.026823,-0.735106,0.345872,0.583088,0.000000,0.000000,0.000000,-1,0.007509,0.000336,-0.007196,-0.004198,0.000609,0.001385
"2019-05-05 23:02:13.737 +0000",1557097333.736734,-2.241265,-0.353191,0.027055,-0.735166,0.345894,0.582999,0.000000,0.000000,0.000000,-1,0.006263,0.004031,-0.005989,-0.001559,0.004097,0.002999
"2019-05-05 23:02:13.759 +0000",1557097333.759056,-2.241076,-0.353469,0.027357,-0.735201,0.346154,0.582801,0.000000,0.000000,0.000000,-1,0.007510,-0.000893,-0.007184,-0.007063,0.008781,0.003290
"2019-05-05 23:02:13.781 +0000",1557097333.781350,-2.241040,-0.353557,0.027662,-0.735198,0.346237,0.582756,0.000000,0.000000,0.000000,-1,0.007492,-0.005828,-0.010861,-0.006959,0.009003,0.004616
"2019-05-05 23:02:13.804 +0000",1557097333.803656,-2.241193,-0.353721,0.027974,-0.735065,0.346391,0.582832,0.000000,0.000000,0.000000,-1,0.008750,-0.009514,-0.009586,0.000476,0.003890,0.004036
"2019-05-05 23:02:13.826 +0000",1557097333.825966,-2.241271,-0.353718,0.028242,-0.735020,0.346388,0.582890,0.000000,0.000000,0.000000,-1,0.005014,-0.005801,-0.003418,0.000920,0.001955,0.010799
"2019-05-05 23:02:13.848 +0000",1557097333.848243,-2.241732,-0.353782,0.028243,-0.734734,0.346448,0.583215,0.000000,0.000000,0.000000,-1,0.002724,0.002867,-0.002450,-0.002174,0.004672,0.010611
"2019-05-05 23:02:13.871 +0000",1557097333.870551,-2.241757,-0.353868,0.028268,-0.734696,0.346529,0.583215,0.000000,0.000000,0.000000,-1,0.001463,0.000401,-0.003669,0.000397,0.004118,0.004141
"2019-05-05 23:02:13.893 +0000",1557097333.892859,-2.241817,-0.353869,0.028270,-0.734660,0.346530,0.583259,0.000000,0.000000,0.000000,-1,-0.002311,-0.000841,-0.006140,0.000346,0.005033,0.004189
"2019-05-05 23:02:13.915 +0000",1557097333.915166,-2.241942,-0.353906,0.028265,-0.734577,0.346565,0.583343,0.000000,0.000000,0.000000,-1,0.002718,0.000400,-0.003667,-0.000011,0.003426,0.004548
"2019-05-05 23:02:13.937 +0000",1557097333.937475,-2.242020,-0.353940,0.028250,-0.734522,0.346597,0.583393,0.000000,0.000000,0.000000,-1,-0.002304,0.001623,-0.004920,-0.000524,0.002952,0.002163
"2019-05-05 23:02:13.960 +0000",1557097333.959782,-2.241989,-0.353915,0.028320,-0.734547,0.346573,0.583376,0.000000,0.000000,0.000000,-1,0.001452,0.005305,-0.007432,-0.003627,0.000290,0.003615
"2019-05-05 23:02:13.982 +0000",1557097333.982079,-2.241852,-0.353852,0.028355,-0.734644,0.346514,0.583289,0.000000,0.000000,0.000000,-1,-0.003553,0.000398,-0.003669,-0.006383,0.003782,0.000985
"2019-05-05 23:02:14.004 +0000",1557097334.004367,-2.241713,-0.353777,0.028441,-0.734746,0.346443,0.583203,0.000000,0.000000,0.000000,-1,-0.004805,-0.003288,-0.002396,-0.007563,0.002968,0.000690
"2019-05-05 23:02:14.027 +0000",1557097334.026676,-2.241379,-0.353946,0.028643,-0.734895,0.346601,0.582921,0.000000,0.000000,0.000000,-1,0.005423,-0.001953,-0.003817,-0.007644,0.005693,-0.001119
"2019-05-05 23:02:14.049 +0000",1557097334.048984,-2.241499,-0.353824,0.028719,-0.734858,0.346488,0.583036,0.000000,0.000000,0.000000,-1,-0.000876,-0.005670,-0.009989,-0.004492,0.007608,-0.000531
"2019-05-05 23:02:14.071 +0000",1557097334.071270,-2.241627,-0.354084,0.028871,-0.734713,0.346731,0.583074,0.000000,0.000000,0.000000,-1,0.000380,-0.013045,-0.008681,-0.004484,0.007028,0.003169
"2019-05-05 23:02:14.094 +0000",1557097334.093600,-2.241922,-0.354064,0.028939,-0.734546,0.346713,0.583294,0.000000,0.000000,0.000000,-1,-0.004619,-0.016718,-0.003688,-0.006741,0.006589,0.004123
"2019-05-05 23:02:14.116 +0000",1557097334.115879,-2.242245,-0.353958,0.029000,-0.734387,0.346613,0.583554,0.000000,0.000000,0.000000,-1,-0.002118,-0.013036,-0.006201,-0.006031,0.004583,0.005374
"2019-05-05 23:02:14.138 +0000",1557097334.138185,-2.242784,-0.353765,0.028929,-0.734124,0.346432,0.583992,0.000000,0.000000,0.000000,-1,-0.004630,-0.025334,-0.004852,-0.001258,0.001880,0.002877
"2019-05-05 23:02:14.160 +0000",1557097334.160493,-2.243616,-0.353630,0.028837,-0.733675,0.346305,0.584631,0.000000,0.000000,0.000000,-1,-0.005888,-0.030256,-0.004808,-0.000670,0.001946,0.005319
"2019-05-05 23:02:14.183 +0000",1557097334.182801,-2.244142,-0.353710,0.028835,-0.733345,0.346381,0.585000,0.000000,0.000000,0.000000,-1,0.000379,-0.014277,-0.008668,-0.001487,0.005533,0.004462
"2019-05-05 23:02:14.205 +0000",1557097334.205104,-2.244535,-0.353413,0.028829,-0.733196,0.346101,0.585353,0.000000,0.000000,0.000000,-1,-0.003217,-0.004393,-0.010138,0.000987,-0.003664,0.003759
"2019-05-05 23:02:14.227 +0000",1557097334.227386,-2.244822,-0.353141,0.028726,-0.733102,0.345846,0.585621,0.000000,0.000000,0.000000,-1,-0.004439,-0.008051,-0.001423,-0.000480,-0.004553,0.004238
"2019-05-05 23:02:14.250 +0000",1557097334.249694,-2.245122,-0.352706,0.028510,-0.733043,0.345438,0.585936,0.000000,0.000000,0.000000,-1,-0.003164,-0.005571,0.003516,-0.004231,-0.007197,0.004671
"2019-05-05 23:02:14.272 +0000",1557097334.272002,-2.245200,-0.352711,0.028467,-0.732996,0.345443,0.585991,0.000000,0.000000,0.000000,-1,0.005615,-0.000652,0.002236,-0.002951,-0.002319,0.004600
"2019-05-05 23:02:14.294 +0000",1557097334.294301,-2.245488,-0.352821,0.028528,-0.732798,0.345546,0.586179,0.000000,0.000000,0.000000,-1,0.010607,0.000555,-0.003975,0.000437,0.005116,0.006213
"2019-05-05 23:02:14.317 +0000",1557097334.316617,-2.245410,-0.353058,0.028804,-0.732779,0.345769,0.586070,0.000000,0.000000,0.000000,-1,0.014355,0.006687,-0.008989,0.001792,0.007777,0.005498
"2019-05-05 23:02:14.339 +0000",1557097334.338926,-2.245016,-0.353053,0.029235,-0.733011,0.345765,0.585783,0.000000,0.000000,0.000000,-1,0.011846,0.015292,-0.010307,0.002009,0.011489,0.004199
"2019-05-05 23:02:14.361 +0000",1557097334.361186,-2.244751,-0.353585,0.029564,-0.733023,0.346263,0.585473,0.000000,0.000000,0.000000,-1,0.010586,0.011596,-0.011513,0.000937,0.010960,0.002890
"2019-05-05 23:02:14.383 +0000",1557097334.383494,-2.244779,-0.353863,0.029700,-0.732931,0.346524,0.585434,0.000000,0.000000,0.000000,-1,0.000698,0.005493,-0.007852,-0.001093,0.009647,0.006790
"2019-05-05 23:02:14.406 +0000",1557097334.405799,-2.244655,-0.353834,0.029734,-0.733012,0.346496,0.585350,0.000000,0.000000,0.000000,-1,-0.000549,0.009187,-0.006644,-0.000036,0.006943,0.008217
"2019-05-05 23:02:14.428 +0000",1557097334.428096,-2.244700,-0.353899,0.029567,-0.732968,0.346558,0.585368,0.000000,0.000000,0.000000,-1,-0.008053,0.011663,-0.001706,0.000409,0.003174,0.004369
"2019-05-05 23:02:14.450 +0000",1557097334.450416,-2.244516,-0.353804,0.029360,-0.733101,0.346468,0.585254,0.000000,0.000000,0.000000,-1,-0.011813,0.016581,-0.001751,0.000511,0.001310,0.003293
"2019-05-05 23:02:14.473 +0000",1557097334.472694,-2.244413,-0.353795,0.029008,-0.733164,0.346460,0.585180,0.000000,0.000000,0.000000,-1,-0.011771,0.010473,0.009468,-0.000387,-0.000635,0.001932
"2019-05-05 23:02:14.495 +0000",1557097334.495002,-2.244139,-0.353893,0.028599,-0.733298,0.346553,0.584958,0.000000,0.000000,0.000000,-1,-0.013005,0.010493,0.014430,-0.009241,0.007238,0.000903
"2019-05-05 23:02:14.517 +0000",1557097334.517311,-2.243694,-0.354061,0.028391,-0.733512,0.346710,0.584596,0.000000,0.000000,0.000000,-1,-0.009296,0.011673,0.000776,-0.006326,0.006577,0.000182
"2019-05-05 23:02:14.540 +0000",1557097334.539617,-2.243393,-0.354054,0.028408,-0.733690,0.346703,0.584376,0.000000,0.000000,0.000000,-1,-0.005553,0.003051,-0.002868,-0.006254,0.006874,-0.000743
"2019-05-05 23:02:14.562 +0000",1557097334.561926,-2.243220,-0.353891,0.028552,-0.733835,0.346550,0.584285,0.000000,0.000000,0.000000,-1,-0.002967,0.004256,-0.010409,-0.003286,0.004952,0.002446
"2019-05-05 23:02:14.584 +0000",1557097334.584234,-2.243121,-0.353848,0.028622,-0.733905,0.346510,0.584221,0.000000,0.000000,0.000000,-1,0.003319,0.010418,-0.007979,-0.001706,0.003970,0.004112
"2019-05-05 23:02:14.607 +0000",1557097334.606512,-2.243082,-0.353814,0.028641,-0.733937,0.346478,0.584200,0.000000,0.000000,0.000000,-1,-0.002954,0.009185,-0.007970,0.000859,0.003573,0.003950
"2019-05-05 23:02:14.629 +0000",1557097334.628820,-2.242849,-0.353779,0.028725,-0.734082,0.346446,0.584036,0.000000,0.000000,0.000000,-1,0.000831,0.011665,-0.003029,0.000730,0.001119,0.007287
"2019-05-05 23:02:14.651 +0000",1557097334.651139,-2.242651,-0.353567,0.028612,-0.734255,0.346246,0.583937,0.000000,0.000000,0.000000,-1,-0.005424,0.014137,0.000668,-0.002958,0.000846,0.003862
"2019-05-05 23:02:14.673 +0000",1557097334.673435,-2.242397,-0.353520,0.028445,-0.734417,0.346202,0.583760,0.000000,0.000000,0.000000,-1,-0.006670,0.011686,0.003170,-0.004170,0.000248,0.000712
"2019-05-05 23:02:14.696 +0000",1557097334.695744,-2.242151,-0.353451,0.028233,-0.734579,0.346138,0.583594,0.000000,0.000000,0.000000,-1,-0.004160,0.012918,0.003160,-0.003748,0.000175,0.002236
"2019-05-05 23:02:14.718 +0000",1557097334.718045,-2.241820,-0.353448,0.028106,-0.734773,0.346134,0.583352,0.000000,0.000000,0.000000,-1,-0.004152,0.017844,0.004357,-0.004195,0.002743,0.000739
"2019-05-05 23:02:14.740 +0000",1557097334.740329,-2.241289,-0.353484,0.028155,-0.735072,0.346169,0.582954,0.000000,0.000000,0.000000,-1,0.002190,0.009219,0.001888,-0.007786,0.002601,-0.000755
"2019-05-05 23:02:14.763 +0000",1557097334.762636,-2.240798,-0.353485,0.028251,-0.735359,0.346169,0.582593,0.000000,0.000000,0.000000,-1,-0.005360,0.003048,-0.003023,-0.008049,0.003623,-0.002621
"2019-05-05 23:02:14.785 +0000",1557097334.784962,-2.240816,-0.353413,0.028339,-0.735368,0.346101,0.582622,0.000000,0.000000,0.000000,-1,-0.000362,-0.003115,-0.006687,-0.007796,0.006041,-0.002116
"2019-05-05 23:02:14.807 +0000",1557097334.807253,-2.240813,-0.353499,0.028558,-0.735346,0.346182,0.582601,0.000000,0.000000,0.000000,-1,0.002141,-0.005578,-0.007904,-0.003469,0.004938,0.001933
"2019-05-05 23:02:14.830 +0000",1557097334.829561,-2.240807,-0.353613,0.028838,-0.735319,0.346290,0.582572,0.000000,0.000000,0.000000,-1,0.007146,-0.009275,-0.010350,-0.004839,0.003945,0.001916
"2019-05-05 23:02:14.852 +0000",1557097334.851837,-2.240847,-0.353509,0.029179,-0.735323,0.346192,0.582624,0.000000,0.000000,0.000000,-1,0.008380,-0.010524,-0.015300,-0.001234,0.005478,0.001345
"2019-05-05 23:02:14.874 +0000",1557097334.874145,-2.241297,-0.353495,0.029467,-0.735065,0.346179,0.582958,0.000000,0.000000,0.000000,-1,0.012145,-0.006834,-0.015331,0.002261,0.003140,0.006505
"2019-05-05 23:02:14.896 +0000",1557097334.896454,-2.241531,-0.353407,0.029894,-0.734952,0.346096,0.583149,0.000000,0.000000,0.000000,-1,0.009623,-0.003159,-0.019085,0.002820,0.004200,0.007443
"2019-05-05 23:02:14.919 +0000",1557097334.918761,-2.241816,-0.353388,0.030135,-0.734791,0.346079,0.583362,0.000000,0.000000,0.000000,-1,0.008466,0.000542,-0.012963,-0.000057,0.003485,0.008785
"2019-05-05 23:02:14.941 +0000",1557097334.941052,-2.241897,-0.353365,0.030274,-0.734750,0.346057,0.583427,0.000000,0.000000,0.000000,-1,0.002234,0.006723,-0.004337,-0.000083,0.000455,0.005502
"2019-05-05 23:02:14.963 +0000",1557097334.963377,-2.241891,-0.353354,0.030226,-0.734757,0.346046,0.583424,0.000000,0.000000,0.000000,-1,-0.004020,0.003048,0.000655,-0.000823,0.002693,0.003932
"2019-05-05 23:02:14.986 +0000",1557097334.985656,-2.241957,-0.353493,0.030067,-0.734681,0.346177,0.583443,0.000000,0.000000,0.000000,-1,-0.004000,0.003068,0.005618,-0.003036,0.003769,0.002723
"2019-05-05 23:02:15.008 +0000",1557097335.007963,-2.241917,-0.353457,0.029947,-0.734714,0.346143,0.583421,0.000000,0.000000,0.000000,-1,-0.005274,0.003048,0.000655,-0.004193,0.004061,0.000014
"2019-05-05 23:02:15.030 +0000",1557097335.030270,-2.241711,-0.353654,0.029944,-0.734780,0.346328,0.583228,0.000000,0.000000,0.000000,-1,0.000990,0.005502,-0.001844,-0.005027,0.006043,0.001901
"2019-05-05 23:02:15.053 +0000",1557097335.052578,-2.241494,-0.353722,0.030118,-0.734889,0.346391,0.583054,0.000000,0.000000,0.000000,-1,0.005981,0.004250,-0.008033,-0.004674,0.004179,0.001266
"2019-05-05 23:02:15.075 +0000",1557097335.074887,-2.241305,-0.353710,0.030325,-0.735002,0.346380,0.582918,0.000000,0.000000,0.000000,-1,0.005971,0.004241,-0.010514,-0.003142,0.004892,0.002364
"2019-05-05 23:02:15.097 +0000",1557097335.097171,-2.241067,-0.353755,0.030650,-0.735129,0.346422,0.582733,0.000000,0.000000,0.000000,-1,0.011058,0.009161,-0.008106,-0.001016,0.001692,0.003190
"2019-05-05 23:02:15.119 +0000",1557097335.119479,-2.240979,-0.353882,0.030892,-0.735145,0.346542,0.582641,0.000000,0.000000,0.000000,-1,0.007287,0.005464,-0.009315,-0.000069,0.003601,0.004197
"2019-05-05 23:02:15.142 +0000",1557097335.141779,-2.240752,-0.353831,0.031156,-0.735291,0.346494,0.582485,0.000000,0.000000,0.000000,-1,0.004785,0.006698,-0.008086,-0.002578,0.004717,0.004628
"2019-05-05 23:02:15.164 +0000",1557097335.164077,-2.240757,-0.353891,0.031250,-0.735272,0.346550,0.582476,0.000000,0.000000,0.000000,-1,0.003533,0.003012,-0.006813,-0.002261,0.004173,0.002607
"2019-05-05 23:02:15.186 +0000",1557097335.186395,-2.240835,-0.353935,0.031306,-0.735215,0.346592,0.582523,0.000000,0.000000,0.000000,-1,0.001036,-0.003126,-0.003037,-0.000610,0.005291,0.003826
"2019-05-05 23:02:15.209 +0000",1557097335.208703,-2.240947,-0.354060,0.031304,-0.735115,0.346709,0.582579,0.000000,0.000000,0.000000,-1,-0.001469,0.001793,-0.003081,-0.002723,0.005235,0.003420
"2019-05-05 23:02:15.231 +0000",1557097335.230980,-2.240927,-0.353964,0.031303,-0.735153,0.346618,0.582585,0.000000,0.000000,0.000000,-1,-0.003984,-0.000673,-0.004301,-0.002533,0.002564,0.001308
"2019-05-05 23:02:15.253 +0000",1557097335.253290,-2.241041,-0.353955,0.031289,-0.735089,0.346610,0.582670,0.000000,0.000000,0.000000,-1,-0.001474,0.001788,-0.004321,-0.002917,0.004525,0.003939
"2019-05-05 23:02:15.276 +0000",1557097335.275597,-2.241017,-0.354031,0.031372,-0.735083,0.346681,0.582636,0.000000,0.000000,0.000000,-1,0.004848,0.005472,-0.004370,-0.002847,0.004561,0.005102
"2019-05-05 23:02:15.298 +0000",1557097335.297905,-2.240921,-0.354038,0.031384,-0.735137,0.346688,0.582565,0.000000,0.000000,0.000000,-1,-0.003907,0.005492,0.001829,-0.003145,0.003730,0.001191
"2019-05-05 23:02:15.320 +0000",1557097335.320214,-2.240949,-0.353970,0.031382,-0.735139,0.346625,0.582599,0.000000,0.000000,0.000000,-1,-0.003952,-0.001927,-0.008029,-0.001403,0.002847,0.001522
"2019-05-05 23:02:15.342 +0000",1557097335.342492,-2.241094,-0.353859,0.031378,-0.735084,0.346521,0.582730,0.000000,0.000000,0.000000,-1,0.002339,-0.001905,-0.003064,-0.003532,0.000327,0.004169
"2019-05-05 23:02:15.365 +0000",1557097335.364799,-2.241172,-0.353839,0.031394,-0.735045,0.346501,0.582792,0.000000,0.000000,0.000000,-1,0.001092,0.001789,-0.001857,-0.003099,0.000545,0.006167
"2019-05-05 23:02:15.387 +0000",1557097335.387098,-2.241134,-0.353974,0.031499,-0.735030,0.346628,0.582734,0.000000,0.000000,0.000000,-1,0.004856,0.001790,-0.001855,-0.001161,0.004309,0.003173
"2019-05-05 23:02:15.409 +0000",1557097335.409415,-2.240957,-0.353956,0.031691,-0.735138,0.346612,0.582609,0.000000,0.000000,0.000000,-1,0.006098,0.006697,-0.005620,-0.003510,0.003013,0.004199
"2019-05-05 23:02:15.432 +0000",1557097335.431722,-2.240791,-0.354119,0.031887,-0.735190,0.346764,0.582452,0.000000,0.000000,0.000000,-1,0.004848,0.004241,-0.004357,-0.002938,0.004127,0.002265
"2019-05-05 23:02:15.454 +0000",1557097335.454030,-2.240650,-0.354097,0.032082,-0.735279,0.346744,0.582352,0.000000,0.000000,0.000000,-1,0.001104,-0.000728,-0.009287,-0.004696,0.003034,0.002029
"2019-05-05 23:02:15.476 +0000",1557097335.476307,-2.240560,-0.354079,0.032229,-0.735336,0.346727,0.582290,0.000000,0.000000,0.000000,-1,-0.001380,-0.001935,-0.003075,-0.003876,0.003249,0.001664
"2019-05-05 23:02:15.499 +0000",1557097335.498616,-2.240492,-0.354078,0.032370,-0.735376,0.346725,0.582241,0.000000,0.000000,0.000000,-1,0.006121,-0.001955,-0.009274,-0.002570,0.003937,0.001133
"2019-05-05 23:02:15.521 +0000",1557097335.520924,-2.240397,-0.354068,0.032668,-0.735434,0.346717,0.582172,0.000000,0.000000,0.000000,-1,0.008633,0.004196,-0.009327,-0.001169,0.000405,0.006466
"2019-05-05 23:02:15.543 +0000",1557097335.543229,-2.240387,-0.354065,0.032867,-0.735440,0.346714,0.582165,0.000000,0.000000,0.000000,-1,0.008634,0.005426,-0.009338,-0.001864,0.003429,0.006122
"2019-05-05 23:02:15.566 +0000",1557097335.565540,-2.240246,-0.354114,0.033091,-0.735509,0.346759,0.582052,0.000000,0.000000,0.000000,-1,0.004861,0.005414,-0.011820,-0.003581,0.005398,0.005305
"2019-05-05 23:02:15.588 +0000",1557097335.587847,-2.240035,-0.354174,0.033312,-0.735616,0.346816,0.581883,0.000000,0.000000,0.000000,-1,0.006137,0.006664,-0.006868,-0.002559,0.007417,0.003612
"2019-05-05 23:02:15.610 +0000",1557097335.610142,-2.240088,-0.354298,0.033432,-0.735551,0.346932,0.581896,0.000000,0.000000,0.000000,-1,0.007406,0.005448,-0.003134,0.001481,0.003913,0.003263
"2019-05-05 23:02:15.632 +0000",1557097335.632427,-2.240114,-0.354231,0.033426,-0.735554,0.346869,0.581930,0.000000,0.000000,0.000000,-1,-0.001330,0.000502,-0.000613,-0.001644,0.002572,0.005946
"2019-05-05 23:02:15.655 +0000",1557097335.654739,-2.240230,-0.354246,0.033258,-0.735483,0.346884,0.582011,0.000000,0.000000,0.000000,-1,-0.003828,0.001740,0.001856,-0.001425,0.003214,0.006307
"2019-05-05 23:02:15.677 +0000",1557097335.677049,-2.240219,-0.354230,0.033118,-0.735493,0.346868,0.582007,0.000000,0.000000,0.000000,-1,-0.001317,0.004202,0.001836,-0.003002,0.000147,0.004678
"2019-05-05 23:02:15.699 +0000",1557097335.699356,-2.240233,-0.354277,0.033188,-0.735472,0.346912,0.582007,0.000000,0.000000,0.000000,-1,0.007442,0.010331,-0.004417,-0.002366,0.002499,0.006616
"2019-05-05 23:02:15.722 +0000",1557097335.721634,-2.240124,-0.354399,0.033449,-0.735503,0.347026,0.581901,0.000000,0.000000,0.000000,-1,0.009919,0.009073,-0.011848,0.000731,0.002888,0.004495
"2019-05-05 23:02:15.744 +0000",1557097335.743935,-2.239811,-0.354377,0.033825,-0.735691,0.347006,0.581675,0.000000,0.000000,0.000000,-1,0.009928,0.006622,-0.009345,0.000293,0.001703,0.005925
"2019-05-05 23:02:15.766 +0000",1557097335.766250,-2.239650,-0.354442,0.034043,-0.735767,0.347067,0.581542,0.000000,0.000000,0.000000,-1,0.004919,0.011545,-0.008150,-0.003689,0.003870,0.002945
"2019-05-05 23:02:15.789 +0000",1557097335.788558,-2.239429,-0.354417,0.034318,-0.735902,0.347044,0.581386,0.000000,0.000000,0.000000,-1,0.011193,0.007862,-0.006874,-0.004119,0.003054,0.005162
"2019-05-05 23:02:15.811 +0000",1557097335.810866,-2.239216,-0.354388,0.034576,-0.736033,0.347017,0.581235,0.000000,0.000000,0.000000,-1,0.004936,0.002898,-0.009305,-0.003667,0.003829,0.004214
"2019-05-05 23:02:15.833 +0000",1557097335.833154,-2.239123,-0.354536,0.034782,-0.736048,0.347155,0.581134,0.000000,0.000000,0.000000,-1,0.004927,0.004119,-0.011796,-0.002218,0.004346,0.002987
"2019-05-05 23:02:15.855 +0000",1557097335.855452,-2.239065,-0.354484,0.034969,-0.736095,0.347106,0.581103,0.000000,0.000000,0.000000,-1,0.007444,0.000439,-0.009281,-0.000156,0.002579,0.001981
"2019-05-05 23:02:15.878 +0000",1557097335.877758,-2.238997,-0.354461,0.035156,-0.736141,0.347085,0.581058,0.000000,0.000000,0.000000,-1,0.004946,0.001677,-0.006812,-0.003620,0.001625,0.002789
"2019-05-05 23:02:15.900 +0000",1557097335.900053,-2.238837,-0.354419,0.035351,-0.736246,0.347045,0.580949,0.000000,0.000000,0.000000,-1,0.002454,0.004151,-0.003113,-0.005148,0.003083,0.003798
"2019-05-05 23:02:15.922 +0000",1557097335.922375,-2.238577,-0.354457,0.035639,-0.736386,0.347081,0.580750,0.000000,0.000000,0.000000,-1,0.004945,-0.000782,-0.006790,-0.007098,0.004466,0.002899
"2019-05-05 23:02:15.945 +0000",1557097335.944664,-2.238407,-0.354610,0.035919,-0.736443,0.347225,0.580591,0.000000,0.000000,0.000000,-1,0.007453,-0.002011,-0.006778,-0.004463,0.003178,0.003622
"2019-05-05 23:02:15.967 +0000",1557097335.966960,-2.238473,-0.354577,0.036134,-0.736414,0.347194,0.580647,0.000000,0.000000,0.000000,-1,-0.001314,-0.004460,-0.003038,-0.003012,0.003590,0.003246
"2019-05-05 23:02:15.989 +0000",1557097335.989267,-2.238523,-0.354598,0.036318,-0.736379,0.347213,0.580679,0.000000,0.000000,0.000000,-1,0.004960,-0.005746,-0.007968,-0.004603,0.002701,0.003137
"2019-05-05 23:02:16.012 +0000",1557097336.011577,-2.238620,-0.354650,0.036430,-0.736309,0.347262,0.580739,0.000000,0.000000,0.000000,-1,0.003726,-0.005727,-0.003007,-0.002598,0.003217,0.002696
"2019-05-05 23:02:16.034 +0000",1557097336.033884,-2.238807,-0.354629,0.036605,-0.736205,0.347243,0.580882,0.000000,0.000000,0.000000,-1,0.003708,-0.009432,-0.006695,-0.002320,0.002107,0.005727
"2019-05-05 23:02:16.056 +0000",1557097336.056196,-2.239155,-0.354691,0.036719,-0.735987,0.347301,0.581125,0.000000,0.000000,0.000000,-1,0.006210,-0.004521,-0.009218,0.001215,0.003651,0.007071
"2019-05-05 23:02:16.079 +0000",1557097336.078501,-2.239272,-0.354753,0.036954,-0.735902,0.347359,0.581198,0.000000,0.000000,0.000000,-1,0.009974,-0.003290,-0.009227,0.001328,0.003944,0.006342
"2019-05-05 23:02:16.101 +0000",1557097336.100778,-2.239519,-0.354830,0.037086,-0.735737,0.347431,0.581362,0.000000,0.000000,0.000000,-1,0.008722,0.000399,-0.009260,0.002614,0.003842,0.006238
"2019-05-05 23:02:16.123 +0000",1557097336.123098,-2.239533,-0.354846,0.037318,-0.735725,0.347446,0.581369,0.000000,0.000000,0.000000,-1,0.004961,0.002857,-0.009283,-0.002221,0.005017,0.008398
"2019-05-05 23:02:16.145 +0000",1557097336.145393,-2.239633,-0.354920,0.037475,-0.735646,0.347516,0.581427,0.000000,0.000000,0.000000,-1,0.006212,0.005312,-0.010544,0.000249,0.005283,0.005960
"2019-05-05 23:02:16.168 +0000",1557097336.167681,-2.239716,-0.354976,0.037595,-0.735583,0.347567,0.581476,0.000000,0.000000,0.000000,-1,0.006255,0.005295,-0.004316,-0.001325,0.003751,0.006552
"2019-05-05 23:02:16.190 +0000",1557097336.190010,-2.239590,-0.354892,0.037636,-0.735679,0.347489,0.581402,0.000000,0.000000,0.000000,-1,-0.001256,0.005306,-0.000598,-0.000558,0.002242,0.006794
"2019-05-05 23:02:16.212 +0000",1557097336.212287,-2.239428,-0.355035,0.037709,-0.735734,0.347623,0.581252,0.000000,0.000000,0.000000,-1,0.003749,0.010214,-0.004360,-0.002776,0.005206,0.002916
"2019-05-05 23:02:16.235 +0000",1557097336.234595,-2.239260,-0.354967,0.037765,-0.735850,0.347559,0.581143,0.000000,0.000000,0.000000,-1,-0.003785,0.005286,-0.005560,-0.002385,0.002065,0.003452
"2019-05-05 23:02:16.257 +0000",1557097336.256903,-2.239241,-0.354887,0.037867,-0.735883,0.347484,0.581146,0.000000,0.000000,0.000000,-1,0.004987,0.000364,-0.006753,-0.001406,0.002979,0.003846
"2019-05-05 23:02:16.279 +0000",1557097336.279212,-2.239055,-0.354941,0.038028,-0.735977,0.347535,0.580997,0.000000,0.000000,0.000000,-1,0.006243,0.010201,-0.008080,-0.003449,0.004409,0.003247
"2019-05-05 23:02:16.302 +0000",1557097336.301518,-2.238825,-0.354927,0.038300,-0.736114,0.347522,0.580831,0.000000,0.000000,0.000000,-1,0.008750,0.006512,-0.008046,-0.003510,0.003034,0.002421
"2019-05-05 23:02:16.324 +0000",1557097336.323827,-2.238659,-0.354902,0.038474,-0.736217,0.347498,0.580714,0.000000,0.000000,0.000000,-1,-0.003798,-0.000874,-0.007985,-0.002842,0.002477,0.000890
"2019-05-05 23:02:16.346 +0000",1557097336.346109,-2.238678,-0.354870,0.038590,-0.736215,0.347469,0.580735,0.000000,0.000000,0.000000,-1,-0.000022,0.001547,-0.007974,-0.005439,0.004490,0.003326
"2019-05-05 23:02:16.368 +0000",1557097336.368412,-2.238656,-0.354789,0.038732,-0.736250,0.347393,0.580736,0.000000,0.000000,0.000000,-1,0.002485,-0.000912,-0.007951,-0.005297,0.003468,0.003462
"2019-05-05 23:02:16.391 +0000",1557097336.390721,-2.238734,-0.354683,0.038829,-0.736233,0.347293,0.580817,0.000000,0.000000,0.000000,-1,0.006257,-0.002131,-0.005457,-0.004093,0.003338,0.005029
"2019-05-05 23:02:16.413 +0000",1557097336.413027,-2.238736,-0.354624,0.038983,-0.736248,0.347238,0.580831,0.000000,0.000000,0.000000,-1,0.005003,-0.002131,-0.005458,-0.004047,0.008017,0.004237
"2019-05-05 23:02:16.435 +0000",1557097336.435336,-2.238983,-0.354637,0.039081,-0.736101,0.347250,0.581010,0.000000,0.000000,0.000000,-1,0.006240,-0.004606,-0.009156,0.001543,0.002009,0.004043
"2019-05-05 23:02:16.458 +0000",1557097336.457643,-2.239253,-0.354610,0.039120,-0.735952,0.347224,0.581215,0.000000,0.000000,0.000000,-1,-0.002534,-0.003376,-0.007930,-0.000727,0.003026,0.006172
"2019-05-05 23:02:16.480 +0000",1557097336.479921,-2.239306,-0.354554,0.039228,-0.735936,0.347172,0.581265,0.000000,0.000000,0.000000,-1,-0.001281,0.002770,-0.009224,-0.001902,0.004940,0.008060
"2019-05-05 23:02:16.502 +0000",1557097336.502228,-2.239413,-0.354610,0.039265,-0.735859,0.347225,0.581332,0.000000,0.000000,0.000000,-1,0.002477,0.002767,-0.010463,-0.002102,0.003361,0.005383
"2019-05-05 23:02:16.525 +0000",1557097336.524538,-2.239470,-0.354538,0.039316,-0.735845,0.347157,0.581389,0.000000,0.000000,0.000000,-1,0.001257,0.001518,-0.002969,0.000036,0.003872,0.007142
"2019-05-05 23:02:16.547 +0000",1557097336.546844,-2.239588,-0.354538,0.039345,-0.735776,0.347157,0.581476,0.000000,0.000000,0.000000,-1,-0.001266,0.002732,-0.006702,-0.001925,0.004665,0.004171
"2019-05-05 23:02:16.569 +0000",1557097336.569135,-2.239494,-0.354597,0.039478,-0.735815,0.347213,0.581395,0.000000,0.000000,0.000000,-1,0.006265,0.002740,-0.005457,-0.002802,0.005616,0.003856
"2019-05-05 23:02:16.591 +0000",1557097336.591430,-2.239520,-0.354548,0.039559,-0.735813,0.347167,0.581424,0.000000,0.000000,0.000000,-1,0.002497,0.002733,-0.006699,-0.001781,0.003266,0.004315
"2019-05-05 23:02:16.614 +0000",1557097336.613738,-2.239463,-0.354486,0.039674,-0.735864,0.347108,0.581396,0.000000,0.000000,0.000000,-1,0.001238,0.003958,-0.007951,-0.004356,0.003524,0.005457
"2019-05-05 23:02:16.636 +0000",1557097336.636046,-2.239343,-0.354377,0.039784,-0.735963,0.347006,0.581331,0.000000,0.000000,0.000000,-1,0.001243,0.003963,-0.006710,-0.003585,0.004572,0.004256
"2019-05-05 23:02:16.658 +0000",1557097336.658354,-2.239371,-0.354404,0.039920,-0.735939,0.347032,0.581346,0.000000,0.000000,0.000000,-1,0.002506,0.000283,-0.004196,-0.000923,0.004439,0.005034
"2019-05-05 23:02:16.681 +0000",1557097336.680662,-2.239390,-0.354346,0.040079,-0.735944,0.346977,0.581372,0.000000,0.000000,0.000000,-1,-0.000019,-0.000963,-0.007907,-0.003253,0.000435,0.003452
"2019-05-05 23:02:16.703 +0000",1557097336.702970,-2.239286,-0.354445,0.040281,-0.735978,0.347070,0.581274,0.000000,0.000000,0.000000,-1,0.004990,0.003908,-0.010388,-0.005096,0.005607,0.001841
"2019-05-05 23:02:16.725 +0000",1557097336.725247,-2.239297,-0.354555,0.040453,-0.735941,0.347173,0.581259,0.000000,0.000000,0.000000,-1,0.006243,0.001448,-0.010365,-0.001684,0.005961,0.005427
"2019-05-05 23:02:16.748 +0000",1557097336.747555,-2.239314,-0.354552,0.040670,-0.735932,0.347170,0.581271,0.000000,0.000000,0.000000,-1,0.002493,-0.000999,-0.006623,-0.001113,0.004041,0.006238
"2019-05-05 23:02:16.770 +0000",1557097336.769863,-2.239316,-0.354486,0.040774,-0.735949,0.347108,0.581287,0.000000,0.000000,0.000000,-1,-0.002522,0.002689,-0.006657,-0.002195,0.004393,0.005764
"2019-05-05 23:02:16.792 +0000",1557097336.792150,-2.239469,-0.354535,0.040806,-0.735846,0.347155,0.581390,0.000000,0.000000,0.000000,-1,0.002507,-0.003446,-0.002879,-0.003122,0.003645,0.006882
"2019-05-05 23:02:16.814 +0000",1557097336.814480,-2.239513,-0.354544,0.040899,-0.735819,0.347163,0.581420,0.000000,0.000000,0.000000,-1,0.006260,-0.003454,-0.005358,-0.002997,0.002614,0.003999
"2019-05-05 23:02:16.837 +0000",1557097336.836757,-2.239564,-0.354565,0.040981,-0.735783,0.347183,0.581452,0.000000,0.000000,0.000000,-1,0.005005,0.003921,-0.006664,-0.001354,0.003434,0.003936
"2019-05-05 23:02:16.859 +0000",1557097336.859065,-2.239425,-0.354549,0.041167,-0.735868,0.347167,0.581354,0.000000,0.000000,0.000000,-1,0.006273,0.001476,-0.002920,-0.000979,0.003358,0.005270
"2019-05-05 23:02:16.881 +0000",1557097336.881373,-2.239439,-0.354722,0.041250,-0.735813,0.347330,0.581327,0.000000,0.000000,0.000000,-1,0.005016,0.005123,-0.002902,-0.002132,0.006491,0.003542
"2019-05-05 23:02:16.904 +0000",1557097336.903681,-2.239402,-0.354904,0.041363,-0.735785,0.347501,0.581261,0.000000,0.000000,0.000000,-1,0.003751,0.003883,-0.005372,-0.002909,0.005298,0.004249
"2019-05-05 23:02:16.926 +0000",1557097336.925988,-2.239438,-0.354930,0.041471,-0.735757,0.347525,0.581282,0.000000,0.000000,0.000000,-1,-0.001276,-0.003505,-0.006549,-0.003135,0.005044,0.005297
"2019-05-05 23:02:16.948 +0000",1557097336.948298,-2.239660,-0.354869,0.041506,-0.735645,0.347467,0.581458,0.000000,0.000000,0.000000,-1,0.002490,0.001416,-0.006591,-0.000409,0.002508,0.005547
"2019-05-05 23:02:16.971 +0000",1557097336.970573,-2.239746,-0.354758,0.041551,-0.735625,0.347364,0.581545,0.000000,0.000000,0.000000,-1,-0.001267,0.003879,-0.005373,-0.001909,0.001239,0.004103
"2019-05-05 23:02:16.993 +0000",1557097336.992885,-2.239697,-0.354728,0.041675,-0.735661,0.347335,0.581516,0.000000,0.000000,0.000000,-1,0.003753,-0.001034,-0.004087,-0.005000,0.002305,0.003643
"2019-05-05 23:02:17.015 +0000",1557097337.015195,-2.239678,-0.354785,0.041826,-0.735657,0.347388,0.581490,0.000000,0.000000,0.000000,-1,0.003742,-0.001044,-0.006568,-0.003601,0.003014,0.002892
"2019-05-05 23:02:17.037 +0000",1557097337.037497,-2.239683,-0.354753,0.041954,-0.735663,0.347358,0.581500,0.000000,0.000000,0.000000,-1,0.007502,-0.005963,-0.006522,-0.003031,0.003075,0.001645
"2019-05-05 23:02:17.060 +0000",1557097337.059805,-2.239758,-0.354725,0.042108,-0.735627,0.347333,0.581561,0.000000,0.000000,0.000000,-1,0.004986,-0.003546,-0.006488,-0.004211,0.002673,0.004956
"2019-05-05 23:02:17.082 +0000",1557097337.082085,-2.239742,-0.354662,0.042284,-0.735653,0.347273,0.581563,0.000000,0.000000,0.000000,-1,0.001235,-0.001078,-0.004031,-0.003025,0.005327,0.003886
"2019-05-05 23:02:17.104 +0000",1557097337.104391,-2.239886,-0.354589,0.042442,-0.735589,0.347205,0.581685,0.000000,0.000000,0.000000,-1,0.006220,-0.003565,-0.011450,-0.001563,0.003076,0.007320
"2019-05-05 23:02:17.127 +0000",1557097337.126698,-2.240000,-0.354703,0.042603,-0.735492,0.347311,0.581744,0.000000,0.000000,0.000000,-1,0.006252,-0.002306,-0.004017,-0.002133,0.003763,0.005246
"2019-05-05 23:02:17.149 +0000",1557097337.149007,-2.240155,-0.354673,0.042589,-0.735410,0.347284,0.581864,0.000000,0.000000,0.000000,-1,-0.001264,-0.002301,-0.001539,-0.001986,0.004477,0.006759
"2019-05-05 23:02:17.171 +0000",1557097337.171315,-2.240339,-0.354704,0.042561,-0.735294,0.347312,0.581993,0.000000,0.000000,0.000000,-1,-0.001276,0.003835,-0.005315,-0.001583,0.003686,0.006080
"2019-05-05 23:02:17.194 +0000",1557097337.193618,-2.240465,-0.354689,0.042579,-0.735225,0.347299,0.582089,0.000000,0.000000,0.000000,-1,-0.001266,0.003844,-0.002833,0.000438,0.003485,0.003513
"2019-05-05 23:02:17.216 +0000",1557097337.215902,-2.240529,-0.354772,0.042621,-0.735165,0.347377,0.582118,0.000000,0.000000,0.000000,-1,0.001259,0.005089,0.000879,-0.001560,0.003987,0.005818
"2019-05-05 23:02:17.238 +0000",1557097337.238201,-2.240364,-0.354845,0.042709,-0.735242,0.347445,0.581981,0.000000,0.000000,0.000000,-1,0.002458,0.002558,-0.006475,-0.004611,0.004148,0.002263
"2019-05-05 23:02:17.261 +0000",1557097337.260516,-2.240247,-0.354756,0.042759,-0.735334,0.347362,0.581914,0.000000,0.000000,0.000000,-1,-0.001301,0.001331,-0.005225,-0.003344,0.002598,0.002254
"2019-05-05 23:02:17.283 +0000",1557097337.282824,-2.240209,-0.354763,0.042852,-0.735354,0.347368,0.581885,0.000000,0.000000,0.000000,-1,0.001216,0.006257,-0.004027,-0.004682,0.003492,0.004144
"2019-05-05 23:02:17.305 +0000",1557097337.305133,-2.240081,-0.354725,0.042978,-0.735439,0.347332,0.581799,0.000000,0.000000,0.000000,-1,0.004972,0.002563,-0.005233,-0.005497,0.004093,0.004993
"2019-05-05 23:02:17.327 +0000",1557097337.327408,-2.239945,-0.354822,0.043139,-0.735492,0.347424,0.581677,0.000000,0.000000,0.000000,-1,0.003718,0.002563,-0.005233,-0.004071,0.002445,0.002597
"2019-05-05 23:02:17.350 +0000",1557097337.349717,-2.239870,-0.354836,0.043299,-0.735532,0.347437,0.581619,0.000000,0.000000,0.000000,-1,0.006216,0.001324,-0.007702,-0.003329,0.003622,0.004684
"2019-05-05 23:02:17.372 +0000",1557097337.372026,-2.239777,-0.354798,0.043519,-0.735596,0.347401,0.581560,0.000000,0.000000,0.000000,-1,0.007479,0.000104,-0.005210,-0.002106,0.005596,0.002455
"2019-05-05 23:02:17.394 +0000",1557097337.394333,-2.239787,-0.354885,0.043670,-0.735566,0.347482,0.581548,0.000000,0.000000,0.000000,-1,0.001202,-0.001133,-0.006442,-0.003386,0.003973,0.004084
"2019-05-05 23:02:17.417 +0000",1557097337.416644,-2.239820,-0.354915,0.043774,-0.735539,0.347511,0.581566,0.000000,0.000000,0.000000,-1,0.003683,0.000056,-0.007628,-0.004482,0.004128,0.004845
"2019-05-05 23:02:17.439 +0000",1557097337.438949,-2.239869,-0.354831,0.043883,-0.735533,0.347432,0.581620,0.000000,0.000000,0.000000,-1,0.001176,-0.003631,-0.006356,-0.001589,0.003520,0.004577
"2019-05-05 23:02:17.461 +0000",1557097337.461239,-2.240017,-0.354809,0.043930,-0.735453,0.347411,0.581734,0.000000,0.000000,0.000000,-1,0.002425,0.002510,-0.008891,-0.001790,0.005418,0.006172
"2019-05-05 23:02:17.484 +0000",1557097337.483534,-2.240108,-0.354800,0.043960,-0.735403,0.347402,0.581803,0.000000,0.000000,0.000000,-1,0.002434,0.001289,-0.006399,-0.000391,0.002924,0.005981
"2019-05-05 23:02:17.506 +0000",1557097337.505843,-2.240212,-0.354802,0.044063,-0.735342,0.347405,0.581878,0.000000,0.000000,0.000000,-1,0.001182,-0.002397,-0.005126,-0.004374,0.003852,0.005890
"2019-05-05 23:02:17.528 +0000",1557097337.528142,-2.240155,-0.354843,0.044221,-0.735364,0.347443,0.581828,0.000000,0.000000,0.000000,-1,-0.001329,0.001287,-0.006400,-0.001865,0.004989,0.002858
"2019-05-05 23:02:17.550 +0000",1557097337.550458,-2.240183,-0.354841,0.044309,-0.735348,0.347441,0.581849,0.000000,0.000000,0.000000,-1,0.002444,0.000068,-0.003906,-0.002430,0.003587,0.004257
"2019-05-05 23:02:17.573 +0000",1557097337.572736,-2.240207,-0.354822,0.044406,-0.735339,0.347424,0.581870,0.000000,0.000000,0.000000,-1,0.001185,0.001293,-0.005157,-0.003080,0.001255,0.003716
"2019-05-05 23:02:17.595 +0000",1557097337.595045,-2.240120,-0.354772,0.044617,-0.735403,0.347377,0.581817,0.000000,0.000000,0.000000,-1,0.007427,0.000027,-0.005072,-0.004205,0.005269,0.005875
"2019-05-05 23:02:17.617 +0000",1557097337.617352,-2.240132,-0.354850,0.044672,-0.735376,0.347449,0.581809,0.000000,0.000000,0.000000,-1,-0.000103,0.001249,-0.006326,-0.003257,0.004296,0.003472
"2019-05-05 23:02:17.640 +0000",1557097337.639660,-2.240236,-0.354849,0.044671,-0.735315,0.347449,0.581886,0.000000,0.000000,0.000000,-1,-0.003857,0.000027,-0.003835,-0.002432,0.001733,0.005547
"2019-05-05 23:02:17.662 +0000",1557097337.661968,-2.240197,-0.354772,0.044761,-0.735359,0.347376,0.581874,0.000000,0.000000,0.000000,-1,0.007424,0.002482,-0.006333,-0.005944,0.002767,0.003835
"2019-05-05 23:02:17.684 +0000",1557097337.684272,-2.240172,-0.354806,0.044889,-0.735364,0.347408,0.581848,0.000000,0.000000,0.000000,-1,0.003666,0.002485,-0.005094,-0.004168,0.003468,0.004471
"2019-05-05 23:02:17.707 +0000",1557097337.706554,-2.240154,-0.354858,0.044995,-0.735360,0.347458,0.581824,0.000000,0.000000,0.000000,-1,0.006164,0.001247,-0.007563,-0.002997,0.005173,0.004343
"2019-05-05 23:02:17.729 +0000",1557097337.728861,-2.240092,-0.354967,0.045181,-0.735367,0.347559,0.581755,0.000000,0.000000,0.000000,-1,0.002400,0.000015,-0.007553,-0.003632,0.005224,0.004625
"2019-05-05 23:02:17.751 +0000",1557097337.751174,-2.240067,-0.355022,0.045312,-0.735366,0.347611,0.581725,0.000000,0.000000,0.000000,-1,0.002411,0.000025,-0.005072,-0.002564,0.004104,0.006135
"2019-05-05 23:02:17.773 +0000",1557097337.773477,-2.240134,-0.355035,0.045418,-0.735324,0.347623,0.581770,0.000000,0.000000,0.000000,-1,-0.000134,0.001212,-0.006248,-0.004346,0.003085,0.005998
"2019-05-05 23:02:17.796 +0000",1557097337.795785,-2.240149,-0.355017,0.045512,-0.735320,0.347606,0.581786,0.000000,0.000000,0.000000,-1,0.003628,-0.000016,-0.006236,-0.002138,0.003087,0.004029
"2019-05-05 23:02:17.818 +0000",1557097337.818063,-2.240075,-0.354973,0.045668,-0.735375,0.347565,0.581741,0.000000,0.000000,0.000000,-1,0.004888,-0.000011,-0.004995,0.000344,0.001495,0.004548
"2019-05-05 23:02:17.840 +0000",1557097337.840382,-2.240232,-0.354912,0.045733,-0.735300,0.347508,0.581869,0.000000,0.000000,0.000000,-1,0.004894,0.002454,-0.003776,-0.008398,0.005763,0.005350
"2019-05-05 23:02:17.863 +0000",1557097337.862679,-2.240145,-0.354989,0.045787,-0.735330,0.347580,0.581789,0.000000,0.000000,0.000000,-1,-0.000126,0.006137,-0.005051,-0.004386,0.005707,0.005263
"2019-05-05 23:02:17.885 +0000",1557097337.884986,-2.240147,-0.355019,0.045896,-0.735320,0.347608,0.581784,0.000000,0.000000,0.000000,-1,-0.000120,-0.001234,-0.002504,-0.001664,0.005389,0.002216
"2019-05-05 23:02:17.907 +0000",1557097337.907277,-2.240209,-0.355063,0.045960,-0.735273,0.347650,0.581820,0.000000,0.000000,0.000000,-1,-0.005152,-0.001251,-0.006227,-0.002749,0.004477,0.003736
"2019-05-05 23:02:17.930 +0000",1557097337.929588,-2.240287,-0.355011,0.046073,-0.735241,0.347601,0.581888,0.000000,0.000000,0.000000,-1,0.004889,0.001218,-0.005004,-0.002521,0.002756,0.006979
"2019-05-05 23:02:17.952 +0000",1557097337.951880,-2.240283,-0.355051,0.046201,-0.735233,0.347638,0.581877,0.000000,0.000000,0.000000,-1,0.006100,0.002405,-0.007417,-0.000592,0.004565,0.003588
"2019-05-05 23:02:17.974 +0000",1557097337.974187,-2.240359,-0.355008,0.046318,-0.735200,0.347598,0.581942,0.000000,0.000000,0.000000,-1,0.003598,-0.003737,-0.004882,-0.004073,0.002714,0.005536
"2019-05-05 23:02:17.996 +0000",1557097337.996495,-2.240233,-0.354967,0.046479,-0.735285,0.347559,0.581858,0.000000,0.000000,0.000000,-1,0.003598,0.004869,-0.006199,-0.004050,0.004644,0.003484
"2019-05-05 23:02:18.019 +0000",1557097338.018803,-2.240177,-0.354985,0.046691,-0.735312,0.347577,0.581813,0.000000,0.000000,0.000000,-1,0.004851,0.001179,-0.006165,-0.003915,0.003375,0.003651
"2019-05-05 23:02:18.041 +0000",1557097338.041110,-2.240202,-0.354888,0.046798,-0.735324,0.347485,0.581852,0.000000,0.000000,0.000000,-1,-0.002682,-0.001289,-0.007387,-0.001858,0.004108,0.003475
"2019-05-05 23:02:18.063 +0000",1557097338.063406,-2.240239,-0.354900,0.046954,-0.735300,0.347496,0.581877,0.000000,0.000000,0.000000,-1,0.006084,-0.000070,-0.011115,-0.001502,0.005073,0.003618
"2019-05-05 23:02:18.086 +0000",1557097338.085696,-2.240209,-0.354893,0.047071,-0.735319,0.347490,0.581856,0.000000,0.000000,0.000000,-1,0.004871,0.001198,-0.001203,-0.003237,0.004393,0.003425
"2019-05-05 23:02:18.108 +0000",1557097338.108006,-2.240085,-0.354913,0.047215,-0.735385,0.347509,0.581761,0.000000,0.000000,0.000000,-1,0.002346,-0.001277,-0.004903,-0.002957,0.002482,0.003231
"2019-05-05 23:02:18.130 +0000",1557097338.130313,-2.240171,-0.354917,0.047283,-0.735334,0.347512,0.581824,0.000000,0.000000,0.000000,-1,0.003572,0.001156,-0.003604,-0.003924,0.002662,0.005121
"2019-05-05 23:02:18.153 +0000",1557097338.152620,-2.240169,-0.354942,0.047391,-0.735328,0.347536,0.581817,0.000000,0.000000,0.000000,-1,-0.000182,-0.000066,-0.001113,-0.002449,0.003661,0.004609
"2019-05-05 23:02:18.175 +0000",1557097338.174928,-2.240197,-0.354906,0.047441,-0.735322,0.347502,0.581845,0.000000,0.000000,0.000000,-1,-0.002717,-0.001322,-0.007306,-0.002196,0.003389,0.005908
"2019-05-05 23:02:18.197 +0000",1557097338.197206,-2.240329,-0.354980,0.047522,-0.735225,0.347572,0.581926,0.000000,0.000000,0.000000,-1,0.002302,0.001140,-0.007325,-0.002324,0.004586,0.005476
"2019-05-05 23:02:18.220 +0000",1557097338.219515,-2.240253,-0.355005,0.047700,-0.735262,0.347595,0.581865,0.000000,0.000000,0.000000,-1,0.006074,0.007297,-0.006137,-0.002439,0.005005,0.005202
"2019-05-05 23:02:18.242 +0000",1557097338.241822,-2.240219,-0.355081,0.047843,-0.735262,0.347666,0.581823,0.000000,0.000000,0.000000,-1,0.004817,0.002376,-0.006094,-0.002577,0.004171,0.004572
"2019-05-05 23:02:18.264 +0000",1557097338.264130,-2.240151,-0.354965,0.047944,-0.735333,0.347558,0.581798,0.000000,0.000000,0.000000,-1,-0.000203,-0.001317,-0.006063,-0.005161,0.005241,0.004887
"2019-05-05 23:02:18.286 +0000",1557097338.286437,-2.240167,-0.354933,0.047981,-0.735332,0.347528,0.581817,0.000000,0.000000,0.000000,-1,0.001062,-0.000076,-0.003592,-0.004185,0.002600,0.004517
"2019-05-05 23:02:18.309 +0000",1557097338.308746,-2.240142,-0.354914,0.048045,-0.735352,0.347510,0.581803,0.000000,0.000000,0.000000,-1,-0.001488,-0.001343,-0.004741,-0.003006,0.003488,0.002426
"2019-05-05 23:02:18.331 +0000",1557097338.331023,-2.240055,-0.354891,0.048198,-0.735409,0.347488,0.581744,0.000000,0.000000,0.000000,-1,0.003515,0.001105,-0.008482,-0.002857,0.003480,0.004682
"2019-05-05 23:02:18.353 +0000",1557097338.353331,-2.240050,-0.354905,0.048357,-0.735408,0.347501,0.581737,0.000000,0.000000,0.000000,-1,0.004780,0.001115,-0.006000,-0.001988,0.003832,0.002888
"2019-05-05 23:02:18.376 +0000",1557097338.375639,-2.240069,-0.354963,0.048597,-0.735381,0.347556,0.581739,0.000000,0.000000,0.000000,-1,0.007283,-0.000119,-0.007228,-0.004731,0.004251,0.005099
"2019-05-05 23:02:18.398 +0000",1557097338.397947,-2.240081,-0.354894,0.048745,-0.735393,0.347491,0.581762,0.000000,0.000000,0.000000,-1,-0.000244,-0.001352,-0.007221,-0.003926,0.003751,0.004694
"2019-05-05 23:02:18.420 +0000",1557097338.420244,-2.240287,-0.354916,0.048805,-0.735267,0.347512,0.581909,0.000000,0.000000,0.000000,-1,0.004778,-0.002575,-0.005967,-0.001626,0.003791,0.005493
"2019-05-05 23:02:18.443 +0000",1557097338.442532,-2.240279,-0.354968,0.048995,-0.735258,0.347560,0.581892,0.000000,0.000000,0.000000,-1,0.006044,-0.000105,-0.003507,-0.003207,0.003911,0.004930
"2019-05-05 23:02:18.465 +0000",1557097338.464835,-2.240547,-0.355038,0.049007,-0.735082,0.347626,0.582074,0.000000,0.000000,0.000000,-1,0.002270,-0.001347,-0.005978,-0.001688,0.003341,0.004871
"2019-05-05 23:02:18.487 +0000",1557097338.487148,-2.240491,-0.354963,0.049158,-0.735136,0.347556,0.582049,0.000000,0.000000,0.000000,-1,-0.000281,0.002307,-0.007163,-0.003237,0.002694,0.004331
"2019-05-05 23:02:18.509 +0000",1557097338.509456,-2.240499,-0.355029,0.049253,-0.735113,0.347617,0.582041,0.000000,0.000000,0.000000,-1,0.002228,0.002308,-0.007162,-0.003947,0.004616,0.003866
"2019-05-05 23:02:18.532 +0000",1557097338.531765,-2.240498,-0.355053,0.049271,-0.735107,0.347640,0.582035,0.000000,0.000000,0.000000,-1,0.000984,0.002317,-0.004681,-0.004914,0.004716,0.005474
"2019-05-05 23:02:18.554 +0000",1557097338.554072,-2.240418,-0.355025,0.049397,-0.735161,0.347613,0.581982,0.000000,0.000000,0.000000,-1,-0.000268,-0.001369,-0.003408,-0.003563,0.003537,0.004383
"2019-05-05 23:02:18.576 +0000",1557097338.576369,-2.240514,-0.355031,0.049444,-0.735104,0.347619,0.582051,0.000000,0.000000,0.000000,-1,0.004727,0.002299,-0.009641,-0.002308,0.003608,0.004680
"2019-05-05 23:02:18.599 +0000",1557097338.598657,-2.240420,-0.354989,0.049600,-0.735170,0.347580,0.581991,0.000000,0.000000,0.000000,-1,0.000979,0.002312,-0.005921,-0.003752,0.003311,0.004358
"2019-05-05 23:02:18.621 +0000",1557097338.620966,-2.240334,-0.354901,0.049687,-0.735244,0.347498,0.581946,0.000000,0.000000,0.000000,-1,0.000980,0.004772,-0.005943,-0.005982,0.004568,0.004372
"2019-05-05 23:02:18.643 +0000",1557097338.643253,-2.240301,-0.354852,0.049758,-0.735276,0.347452,0.581933,0.000000,0.000000,0.000000,-1,-0.001532,-0.001379,-0.005889,-0.006637,0.004935,0.004416
"2019-05-05 23:02:18.666 +0000",1557097338.665581,-2.240255,-0.354855,0.049802,-0.735303,0.347454,0.581898,0.000000,0.000000,0.000000,-1,0.000960,-0.000156,-0.000852,-0.006534,0.004581,0.002864
"2019-05-05 23:02:18.688 +0000",1557097338.687860,-2.240148,-0.354919,0.049956,-0.735347,0.347514,0.581807,0.000000,0.000000,0.000000,-1,0.009734,-0.001387,-0.002078,-0.003835,0.003011,0.002758
"2019-05-05 23:02:18.710 +0000",1557097338.710166,-2.240152,-0.354854,0.050114,-0.735362,0.347454,0.581823,0.000000,0.000000,0.000000,-1,0.005949,-0.005098,-0.007009,-0.002415,0.004704,0.004069
"2019-05-05 23:02:18.732 +0000",1557097338.732468,-2.240186,-0.354801,0.050228,-0.735357,0.347404,0.581859,0.000000,0.000000,0.000000,-1,0.000944,-0.001400,-0.004563,-0.003641,0.003380,0.004658
"2019-05-05 23:02:18.755 +0000",1557097338.754782,-2.240230,-0.354914,0.050344,-0.735301,0.347510,0.581868,0.000000,0.000000,0.000000,-1,0.003448,-0.000174,-0.005813,-0.003118,0.004755,0.004024
"2019-05-05 23:02:18.777 +0000",1557097338.777090,-2.240154,-0.354924,0.050526,-0.735342,0.347519,0.581810,0.000000,0.000000,0.000000,-1,0.005957,-0.000173,-0.005811,-0.005411,0.005203,0.003884
"2019-05-05 23:02:18.799 +0000",1557097338.799372,-2.240624,-0.354460,0.050627,-0.735195,0.347084,0.582255,0.000000,0.000000,0.000000,-1,0.005836,-0.053150,-0.026430,-0.000172,-0.007362,0.015065
"2019-05-05 23:02:18.822 +0000",1557097338.821676,-2.240117,-0.354194,0.051038,-0.735563,0.346835,0.581939,0.000000,0.000000,0.000000,-1,0.010885,-0.050658,-0.019008,0.020063,-0.020571,-0.021194
"2019-05-05 23:02:18.844 +0000",1557097338.843984,-2.240112,-0.354357,0.051254,-0.735521,0.346987,0.581900,0.000000,0.000000,0.000000,-1,-0.007917,-0.014992,-0.013049,-0.005568,0.007139,0.009316
"2019-05-05 23:02:18.866 +0000",1557097338.866269,-2.240078,-0.354323,0.051509,-0.735550,0.346956,0.581883,0.000000,0.000000,0.000000,-1,0.008393,-0.010064,-0.013086,-0.015244,0.006087,0.010783
"2019-05-05 23:02:18.889 +0000",1557097338.888599,-2.240256,-0.354122,0.051667,-0.735501,0.346767,0.582057,0.000000,0.000000,0.000000,-1,0.005908,-0.003896,-0.008179,0.003705,-0.004848,0.005726
"2019-05-05 23:02:18.911 +0000",1557097338.910908,-2.241176,-0.353955,0.051547,-0.735011,0.346610,0.582770,0.000000,0.000000,0.000000,-1,0.000900,-0.019872,-0.003077,0.004893,-0.001151,0.007929
"2019-05-05 23:02:18.933 +0000",1557097338.933186,-2.241288,-0.353954,0.051632,-0.734946,0.346609,0.582852,0.000000,0.000000,0.000000,-1,0.005931,0.001042,-0.003261,-0.003396,0.001825,0.005206
"2019-05-05 23:02:18.955 +0000",1557097338.955493,-2.241432,-0.354102,0.051738,-0.734821,0.346749,0.582926,0.000000,0.000000,0.000000,-1,0.003414,-0.003884,-0.004458,-0.003414,0.005546,0.007848
"2019-05-05 23:02:18.978 +0000",1557097338.977802,-2.241670,-0.354140,0.051691,-0.734673,0.346783,0.583093,0.000000,0.000000,0.000000,-1,0.000906,0.004720,-0.005776,-0.004066,0.002734,0.007651
"2019-05-05 23:02:19.000 +0000",1557097339.000109,-2.241633,-0.354158,0.051813,-0.734690,0.346800,0.583061,0.000000,0.000000,0.000000,-1,0.000910,0.002265,-0.004513,-0.001715,0.003938,0.003410
"2019-05-05 23:02:19.022 +0000",1557097339.022416,-2.241819,-0.354110,0.051922,-0.734593,0.346756,0.583209,0.000000,0.000000,0.000000,-1,0.007121,0.002222,-0.009385,0.001393,0.002594,0.006543
"2019-05-05 23:02:19.045 +0000",1557097339.044725,-2.241946,-0.354064,0.051991,-0.734532,0.346712,0.583312,0.000000,0.000000,0.000000,-1,0.005891,0.008391,-0.004478,-0.002711,0.001692,0.007890
"2019-05-05 23:02:19.067 +0000",1557097339.067002,-2.241718,-0.354117,0.052090,-0.734651,0.346762,0.583133,0.000000,0.000000,0.000000,-1,0.005904,0.013321,-0.002041,-0.002425,0.004297,0.005658
"2019-05-05 23:02:19.089 +0000",1557097339.089304,-2.241482,-0.354123,0.052144,-0.734786,0.346768,0.582958,0.000000,0.000000,0.000000,-1,-0.000372,0.005938,-0.001978,-0.002030,0.003207,0.002277
"2019-05-05 23:02:19.112 +0000",1557097339.111617,-2.241359,-0.354270,0.052168,-0.734818,0.346906,0.582836,0.000000,0.000000,0.000000,-1,-0.002884,0.001016,-0.001934,-0.004683,0.007800,0.002186
"2019-05-05 23:02:19.134 +0000",1557097339.133926,-2.241189,-0.354401,0.052251,-0.734882,0.347029,0.582683,0.000000,0.000000,0.000000,-1,0.004642,0.008396,-0.003237,-0.004299,0.005693,0.002171
"2019-05-05 23:02:19.156 +0000",1557097339.156211,-2.241049,-0.354363,0.052384,-0.734974,0.346993,0.582588,0.000000,0.000000,0.000000,-1,0.003378,-0.000220,-0.004401,-0.003918,0.002845,0.001976
"2019-05-05 23:02:19.179 +0000",1557097339.178513,-2.241000,-0.354333,0.052493,-0.735011,0.346965,0.582559,0.000000,0.000000,0.000000,-1,0.000876,0.002244,-0.003184,-0.005926,0.007085,0.004004
"2019-05-05 23:02:19.201 +0000",1557097339.200819,-2.241022,-0.354251,0.052562,-0.735020,0.346888,0.582592,0.000000,0.000000,0.000000,-1,0.002085,0.002216,-0.004335,-0.003902,0.002980,0.003879
"2019-05-05 23:02:19.223 +0000",1557097339.223127,-2.240977,-0.354178,0.052687,-0.735066,0.346819,0.582576,0.000000,0.000000,0.000000,-1,0.000819,0.000976,-0.006806,-0.001689,0.002668,0.003759
"2019-05-05 23:02:19.245 +0000",1557097339.245436,-2.240966,-0.354289,0.052752,-0.735043,0.346923,0.582543,0.000000,0.000000,0.000000,-1,-0.001682,0.003440,-0.005588,-0.004520,0.005219,0.003547
"2019-05-05 23:02:19.268 +0000",1557097339.267743,-2.240989,-0.354347,0.052776,-0.735013,0.346978,0.582548,0.000000,0.000000,0.000000,-1,-0.001683,0.002209,-0.005577,-0.003329,0.005561,0.004961
"2019-05-05 23:02:19.290 +0000",1557097339.290038,-2.240928,-0.354372,0.052813,-0.735042,0.347001,0.582497,0.000000,0.000000,0.000000,-1,-0.004191,0.003438,-0.005588,-0.003041,0.003920,0.005088
"2019-05-05 23:02:19.312 +0000",1557097339.312348,-2.240816,-0.354483,0.052894,-0.735077,0.347105,0.582392,0.000000,0.000000,0.000000,-1,-0.000424,0.000985,-0.004324,-0.005219,0.005220,0.003393
"2019-05-05 23:02:19.335 +0000",1557097339.334638,-2.240653,-0.354474,0.053008,-0.735174,0.347097,0.582273,0.000000,0.000000,0.000000,-1,0.008350,0.005900,-0.006845,-0.006220,0.005457,0.003771
"2019-05-05 23:02:19.357 +0000",1557097339.356945,-2.240479,-0.354513,0.053172,-0.735265,0.347134,0.582137,0.000000,0.000000,0.000000,-1,0.002076,0.002207,-0.006814,-0.004557,0.003757,0.003159
"2019-05-05 23:02:19.379 +0000",1557097339.379224,-2.240421,-0.354347,0.053280,-0.735344,0.346978,0.582130,0.000000,0.000000,0.000000,-1,0.000783,-0.002731,-0.005442,-0.007195,-0.000207,0.003075
"2019-05-05 23:02:19.402 +0000",1557097339.401561,-2.240432,-0.354292,0.053400,-0.735352,0.346926,0.582150,0.000000,0.000000,0.000000,-1,0.000794,-0.001491,-0.002972,-0.005904,0.000409,0.004260
"2019-05-05 23:02:19.424 +0000",1557097339.423838,-2.240470,-0.354608,0.053548,-0.735244,0.347223,0.582110,0.000000,0.000000,0.000000,-1,0.005765,-0.003993,-0.014111,-0.004288,0.020804,0.001524
"2019-05-05 23:02:19.446 +0000",1557097339.446146,-2.240448,-0.354562,0.053706,-0.735269,0.347180,0.582104,0.000000,0.000000,0.000000,-1,0.001981,-0.021225,-0.016441,0.012873,-0.063610,0.009098
"2019-05-05 23:02:19.468 +0000",1557097339.468454,-2.240492,-0.354498,0.053929,-0.735261,0.347119,0.582150,0.000000,0.000000,0.000000,-1,0.004551,0.003421,-0.005494,0.002046,0.000751,0.007282
"2019-05-05 23:02:19.491 +0000",1557097339.490763,-2.240261,-0.354145,0.054074,-0.735492,0.346788,0.582056,0.000000,0.000000,0.000000,-1,0.005805,-0.003954,-0.004188,0.001499,-0.010500,-0.000360
"2019-05-05 23:02:19.513 +0000",1557097339.513072,-2.240351,-0.354318,0.054058,-0.735393,0.346951,0.582085,0.000000,0.000000,0.000000,-1,-0.001685,-0.002693,0.004481,0.000270,-0.007245,0.003136
"2019-05-05 23:02:19.535 +0000",1557097339.535347,-2.240456,-0.354811,0.053977,-0.735197,0.347414,0.582055,0.000000,0.000000,0.000000,-1,-0.000419,-0.001453,0.006953,0.001707,0.007246,0.000311
"2019-05-05 23:02:19.558 +0000",1557097339.557656,-2.240555,-0.354980,0.053928,-0.735094,0.347571,0.582092,0.000000,0.000000,0.000000,-1,-0.004277,-0.002750,-0.005345,0.002703,0.007013,0.000992
"2019-05-05 23:02:19.580 +0000",1557097339.579964,-2.240603,-0.355056,0.054059,-0.735045,0.347643,0.582111,0.000000,0.000000,0.000000,-1,0.000716,-0.001542,-0.011556,0.000075,0.006803,0.006024
"2019-05-05 23:02:19.602 +0000",1557097339.602257,-2.240801,-0.355202,0.054155,-0.734890,0.347780,0.582225,0.000000,0.000000,0.000000,-1,0.005749,-0.001526,-0.007832,-0.005085,0.005262,0.006963
"2019-05-05 23:02:19.625 +0000",1557097339.624579,-2.240912,-0.355091,0.054287,-0.734855,0.347676,0.582331,0.000000,0.000000,0.000000,-1,0.000721,-0.001538,-0.010315,-0.002678,0.005626,0.009512
"2019-05-05 23:02:19.647 +0000",1557097339.646888,-2.241127,-0.355000,0.054371,-0.734755,0.347590,0.582509,0.000000,0.000000,0.000000,-1,0.005750,0.000933,-0.007853,0.000960,0.000722,0.006435
"2019-05-05 23:02:19.669 +0000",1557097339.669189,-2.241014,-0.354979,0.054479,-0.734827,0.347570,0.582430,0.000000,0.000000,0.000000,-1,0.000766,0.004650,-0.000445,-0.000815,-0.001303,0.006102
"2019-05-05 23:02:19.691 +0000",1557097339.691472,-2.240974,-0.354831,0.054449,-0.734890,0.347432,0.582432,0.000000,0.000000,0.000000,-1,-0.001739,0.003424,0.000805,-0.005451,-0.000051,0.001827
"2019-05-05 23:02:19.714 +0000",1557097339.713789,-2.240814,-0.354777,0.054463,-0.734998,0.347381,0.582327,0.000000,0.000000,0.000000,-1,-0.001750,0.002185,-0.001665,-0.007891,0.003128,0.002100
"2019-05-05 23:02:19.736 +0000",1557097339.736089,-2.240613,-0.354786,0.054607,-0.735113,0.347390,0.582177,0.000000,0.000000,0.000000,-1,0.001950,0.004619,-0.007800,-0.006602,0.005485,0.001564
"2019-05-05 23:02:19.758 +0000",1557097339.758394,-2.240330,-0.354889,0.054895,-0.735249,0.347486,0.581947,0.000000,0.000000,0.000000,-1,0.005711,0.000931,-0.007765,-0.002879,0.004213,-0.000098
"2019-05-05 23:02:19.781 +0000",1557097339.780674,-2.240213,-0.354923,0.055195,-0.735308,0.347519,0.581853,0.000000,0.000000,0.000000,-1,0.010728,-0.000297,-0.007752,-0.003477,0.003174,0.001537
"2019-05-05 23:02:19.803 +0000",1557097339.802982,-2.239999,-0.354917,0.055541,-0.735434,0.347512,0.581697,0.000000,0.000000,0.000000,-1,0.008221,0.002163,-0.007775,-0.005365,0.003516,0.005080
"2019-05-05 23:02:19.825 +0000",1557097339.825275,-2.239873,-0.355018,0.055798,-0.735480,0.347607,0.581582,0.000000,0.000000,0.000000,-1,0.006972,0.003397,-0.006546,-0.001748,0.002399,0.003317
"2019-05-05 23:02:19.848 +0000",1557097339.847598,-2.239992,-0.354960,0.055923,-0.735427,0.347553,0.581683,0.000000,0.000000,0.000000,-1,0.001956,-0.002751,-0.005253,-0.000520,0.003155,0.006071
"2019-05-05 23:02:19.870 +0000",1557097339.869905,-2.240257,-0.354923,0.055875,-0.735282,0.347518,0.581886,0.000000,0.000000,0.000000,-1,-0.000533,-0.002733,-0.000291,-0.004235,0.001802,0.009468
"2019-05-05 23:02:19.892 +0000",1557097339.892213,-2.240284,-0.354849,0.055835,-0.735287,0.347449,0.581921,0.000000,0.000000,0.000000,-1,-0.003051,-0.001514,-0.002784,-0.004368,0.003595,0.005435
"2019-05-05 23:02:19.914 +0000",1557097339.914497,-2.240329,-0.354924,0.055790,-0.735240,0.347519,0.581938,0.000000,0.000000,0.000000,-1,-0.004334,-0.003962,0.001053,-0.003499,0.003418,0.004167
"2019-05-05 23:02:19.937 +0000",1557097339.936799,-2.240369,-0.354908,0.055829,-0.735222,0.347504,0.581971,0.000000,0.000000,0.000000,-1,0.003180,0.000947,-0.002709,-0.004006,0.003723,0.004440
"2019-05-05 23:02:19.959 +0000",1557097339.959107,-2.240425,-0.354916,0.055926,-0.735187,0.347512,0.582010,0.000000,0.000000,0.000000,-1,0.003171,0.002168,-0.005200,-0.004743,0.005454,0.002752
"2019-05-05 23:02:19.981 +0000",1557097339.981414,-2.240331,-0.354898,0.056115,-0.735246,0.347495,0.581945,0.000000,0.000000,0.000000,-1,0.003162,-0.002757,-0.006397,-0.003112,0.002496,0.003916
"2019-05-05 23:02:20.004 +0000",1557097340.003724,-2.240418,-0.354901,0.056270,-0.735195,0.347497,0.582009,0.000000,0.000000,0.000000,-1,0.005663,-0.000306,-0.008899,-0.002629,0.002173,0.005256
"2019-05-05 23:02:20.026 +0000",1557097340.026000,-2.240448,-0.354857,0.056434,-0.735189,0.347456,0.582040,0.000000,0.000000,0.000000,-1,0.004409,0.000923,-0.008910,-0.003412,0.002763,0.008841
"2019-05-05 23:02:20.048 +0000",1557097340.048305,-2.240645,-0.355188,0.056441,-0.734985,0.347767,0.582113,0.000000,0.000000,0.000000,-1,0.000644,-0.010145,-0.007572,-0.004914,-0.003956,0.008967
"2019-05-05 23:02:20.071 +0000",1557097340.070617,-2.240813,-0.354908,0.056475,-0.734963,0.347504,0.582298,0.000000,0.000000,0.000000,-1,0.006933,0.000938,-0.005187,0.003335,-0.008881,0.009637
"2019-05-05 23:02:20.093 +0000",1557097340.092925,-2.240817,-0.355038,0.056566,-0.734926,0.347626,0.582272,0.000000,0.000000,0.000000,-1,0.005616,0.005877,-0.000087,-0.007155,0.002808,0.007007
"2019-05-05 23:02:20.115 +0000",1557097340.115233,-2.240668,-0.354997,0.056656,-0.735023,0.347587,0.582172,0.000000,0.000000,0.000000,-1,-0.000677,0.004625,-0.005040,-0.004235,0.006554,-0.000156
"2019-05-05 23:02:20.138 +0000",1557097340.137541,-2.240553,-0.355187,0.056854,-0.735038,0.347766,0.582046,0.000000,0.000000,0.000000,-1,0.008091,-0.000301,-0.007473,-0.005532,0.007032,0.003784
"2019-05-05 23:02:20.160 +0000",1557097340.159817,-2.240478,-0.355334,0.057040,-0.735042,0.347903,0.581959,0.000000,0.000000,0.000000,-1,0.004334,0.000932,-0.006245,-0.005848,0.008588,0.004512
"2019-05-05 23:02:20.182 +0000",1557097340.182125,-2.240389,-0.355328,0.057258,-0.735095,0.347898,0.581895,0.000000,0.000000,0.000000,-1,0.008102,0.000939,-0.005003,-0.001981,0.004915,0.003051
"2019-05-05 23:02:20.204 +0000",1557097340.204433,-2.240407,-0.355232,0.057357,-0.735111,0.347807,0.581929,0.000000,0.000000,0.000000,-1,0.001815,0.000922,-0.008727,-0.004345,0.002138,0.006191
"2019-05-05 23:02:20.227 +0000",1557097340.226745,-2.240507,-0.355171,0.057395,-0.735070,0.347751,0.582015,0.000000,0.000000,0.000000,-1,-0.003182,0.000939,-0.003767,-0.002037,0.000134,0.004181
"2019-05-05 23:02:20.249 +0000",1557097340.249049,-2.240683,-0.355008,0.057331,-0.735012,0.347598,0.582180,0.000000,0.000000,0.000000,-1,-0.003177,0.000943,-0.002526,-0.000737,0.000959,0.004444
"2019-05-05 23:02:20.271 +0000",1557097340.271348,-2.240715,-0.355098,0.057292,-0.734968,0.347682,0.582185,0.000000,0.000000,0.000000,-1,-0.001997,-0.002736,0.000163,-0.004229,0.005223,0.002837
"2019-05-05 23:02:20.294 +0000",1557097340.293634,-2.240675,-0.355097,0.057353,-0.734992,0.347681,0.582155,0.000000,0.000000,0.000000,-1,0.000498,-0.000289,-0.003579,-0.006021,0.004751,0.003477
"2019-05-05 23:02:20.316 +0000",1557097340.315943,-2.240614,-0.355155,0.057359,-0.735012,0.347736,0.582098,0.000000,0.000000,0.000000,-1,0.004263,0.002174,-0.003599,-0.004872,0.005307,0.003275
"2019-05-05 23:02:20.338 +0000",1557097340.338260,-2.240618,-0.355131,0.057477,-0.735016,0.347713,0.582106,0.000000,0.000000,0.000000,-1,0.000489,0.000932,-0.006070,-0.002060,0.003544,0.003435
"2019-05-05 23:02:20.361 +0000",1557097340.360559,-2.240639,-0.355019,0.057598,-0.735034,0.347608,0.582146,0.000000,0.000000,0.000000,-1,0.000483,-0.000303,-0.007300,-0.003247,0.002779,0.004677
"2019-05-05 23:02:20.383 +0000",1557097340.382866,-2.240628,-0.355013,0.057774,-0.735042,0.347603,0.582138,0.000000,0.000000,0.000000,-1,0.008025,0.000945,-0.003586,-0.002964,0.002144,0.006393
"2019-05-05 23:02:20.405 +0000",1557097340.405144,-2.240517,-0.354976,0.057992,-0.735117,0.347568,0.582065,0.000000,0.000000,0.000000,-1,0.004243,0.002154,-0.008560,-0.003592,0.003934,0.005062
"2019-05-05 23:02:20.427 +0000",1557097340.427452,-2.240578,-0.355049,0.058032,-0.735062,0.347636,0.582094,0.000000,0.000000,0.000000,-1,-0.003271,-0.002755,-0.004798,-0.003128,0.004262,0.002043
"2019-05-05 23:02:20.450 +0000",1557097340.449759,-2.240677,-0.355075,0.057992,-0.734996,0.347661,0.582162,0.000000,0.000000,0.000000,-1,-0.000833,0.000943,-0.003420,-0.000966,0.003978,0.004646
"2019-05-05 23:02:20.472 +0000",1557097340.472068,-2.240745,-0.354987,0.057968,-0.734981,0.347578,0.582231,0.000000,0.000000,0.000000,-1,-0.002073,-0.000274,0.000312,-0.003209,0.003313,0.004195
"2019-05-05 23:02:20.494 +0000",1557097340.494353,-2.240807,-0.355023,0.057987,-0.734935,0.347612,0.582268,0.000000,0.000000,0.000000,-1,-0.000835,0.004628,-0.004693,-0.000874,0.004180,0.003944
"2019-05-05 23:02:20.517 +0000",1557097340.516653,-2.240769,-0.355045,0.058110,-0.734951,0.347632,0.582235,0.000000,0.000000,0.000000,-1,0.005430,0.002166,-0.005909,-0.002811,0.003396,0.003855
"2019-05-05 23:02:20.539 +0000",1557097340.538960,-2.240670,-0.355073,0.058258,-0.735001,0.347659,0.582157,0.000000,0.000000,0.000000,-1,0.004182,0.004630,-0.004690,-0.004501,0.003232,0.003567
"2019-05-05 23:02:20.561 +0000",1557097340.561269,-2.240610,-0.354986,0.058391,-0.735060,0.347578,0.582131,0.000000,0.000000,0.000000,-1,0.001671,0.000939,-0.004659,-0.004518,0.004473,0.003669
"2019-05-05 23:02:20.584 +0000",1557097340.583578,-2.240495,-0.354877,0.058494,-0.735156,0.347475,0.582070,0.000000,0.000000,0.000000,-1,0.001657,0.002155,-0.008391,-0.004788,0.002363,0.003013
"2019-05-05 23:02:20.606 +0000",1557097340.605885,-2.240464,-0.355050,0.058587,-0.735128,0.347638,0.582010,0.000000,0.000000,0.000000,-1,0.004197,0.003415,-0.000957,-0.002787,0.007389,0.004797
"2019-05-05 23:02:20.628 +0000",1557097340.628193,-2.240345,-0.354998,0.058690,-0.735211,0.347588,0.581934,0.000000,0.000000,0.000000,-1,-0.002148,0.005875,-0.000819,0.000271,0.025916,-0.000758
"2019-05-05 23:02:20.650 +0000",1557097340.650484,-2.240434,-0.355272,0.058762,-0.735084,0.347845,0.581941,0.000000,0.000000,0.000000,-1,-0.002160,0.002175,-0.003267,-0.007225,0.010859,0.003844
"2019-05-05 23:02:20.673 +0000",1557097340.672779,-2.240440,-0.355342,0.058842,-0.735062,0.347911,0.581930,0.000000,0.000000,0.000000,-1,0.005360,0.000943,-0.004493,-0.005234,0.011800,0.002665
"2019-05-05 23:02:20.695 +0000",1557097340.695086,-2.240358,-0.355144,0.058950,-0.735164,0.347726,0.581912,0.000000,0.000000,0.000000,-1,-0.003429,0.003390,-0.007000,-0.005376,0.005424,0.001844
"2019-05-05 23:02:20.717 +0000",1557097340.717382,-2.240473,-0.355104,0.058990,-0.735108,0.347688,0.582005,0.000000,0.000000,0.000000,-1,0.001598,-0.005204,-0.003199,-0.001358,0.002867,0.004619
"2019-05-05 23:02:20.740 +0000",1557097340.739703,-2.240524,-0.355097,0.059117,-0.735079,0.347682,0.582044,0.000000,0.000000,0.000000,-1,0.007873,-0.000281,-0.003240,-0.003873,0.003072,0.004686
"2019-05-05 23:02:20.762 +0000",1557097340.762007,-2.240445,-0.355124,0.059210,-0.735119,0.347707,0.581980,0.000000,0.000000,0.000000,-1,-0.000915,0.003396,-0.005758,-0.006138,0.005534,0.004400
"2019-05-05 23:02:20.784 +0000",1557097340.784281,-2.240439,-0.355220,0.059211,-0.735096,0.347796,0.581955,0.000000,0.000000,0.000000,-1,-0.002157,-0.000280,-0.002004,-0.004315,0.007611,0.002853
"2019-05-05 23:02:20.807 +0000",1557097340.806594,-2.240509,-0.355321,0.059284,-0.735028,0.347891,0.581985,0.000000,0.000000,0.000000,-1,0.005284,-0.005204,-0.004281,-0.003543,0.003702,0.002839
"2019-05-05 23:02:20.829 +0000",1557097340.828902,-2.240643,-0.355330,0.059380,-0.734947,0.347899,0.582081,0.000000,0.000000,0.000000,-1,0.002780,-0.006431,-0.003030,-0.001961,0.001680,0.005016
"2019-05-05 23:02:20.851 +0000",1557097340.851211,-2.240678,-0.355239,0.059436,-0.734951,0.347815,0.582127,0.000000,0.000000,0.000000,-1,0.000264,-0.001521,-0.005556,-0.001072,0.001962,0.005047
"2019-05-05 23:02:20.874 +0000",1557097340.873520,-2.240796,-0.355318,0.059558,-0.734861,0.347889,0.582196,0.000000,0.000000,0.000000,-1,0.004027,-0.001519,-0.005554,-0.002672,0.002667,0.004062
"2019-05-05 23:02:20.896 +0000",1557097340.895797,-2.240928,-0.355367,0.059660,-0.734771,0.347935,0.582283,0.000000,0.000000,0.000000,-1,0.005292,-0.000279,-0.003083,-0.001374,0.002239,0.004616
"2019-05-05 23:02:20.918 +0000",1557097340.918105,-2.241008,-0.355278,0.059733,-0.734749,0.347851,0.582361,0.000000,0.000000,0.000000,-1,-0.000980,-0.001513,-0.003075,-0.002891,0.001393,0.003378
"2019-05-05 23:02:20.940 +0000",1557097340.940399,-2.241142,-0.355372,0.059792,-0.734645,0.347939,0.582439,0.000000,0.000000,0.000000,-1,0.002779,0.000944,-0.004335,-0.001347,0.003517,0.004719
"2019-05-05 23:02:20.963 +0000",1557097340.962720,-2.241122,-0.355348,0.059937,-0.734663,0.347916,0.582430,0.000000,0.000000,0.000000,-1,0.004024,0.002165,-0.006827,-0.002733,0.003020,0.004088
"2019-05-05 23:02:20.985 +0000",1557097340.985029,-2.241025,-0.355426,0.060074,-0.734698,0.347990,0.582341,0.000000,0.000000,0.000000,-1,0.005205,0.003395,-0.007927,-0.004453,0.005175,0.002971
"2019-05-05 23:02:21.007 +0000",1557097341.007298,-2.240770,-0.355489,0.060257,-0.734830,0.348049,0.582140,0.000000,0.000000,0.000000,-1,0.005226,0.004644,-0.002975,-0.006275,0.003346,0.001066
"2019-05-05 23:02:21.030 +0000",1557097341.029614,-2.240752,-0.355451,0.060312,-0.734851,0.348013,0.582135,0.000000,0.000000,0.000000,-1,-0.003564,-0.002745,-0.004154,-0.001752,0.001398,0.002505
"2019-05-05 23:02:21.052 +0000",1557097341.051922,-2.240797,-0.355469,0.060298,-0.734820,0.348030,0.582164,0.000000,0.000000,0.000000,-1,0.000222,0.002196,0.000766,-0.003492,0.002404,0.003590
"2019-05-05 23:02:21.074 +0000",1557097341.074230,-2.240746,-0.355363,0.060311,-0.734878,0.347930,0.582150,0.000000,0.000000,0.000000,-1,0.002705,0.000943,-0.005424,-0.003998,0.002167,0.004092
"2019-05-05 23:02:21.097 +0000",1557097341.096537,-2.240712,-0.355373,0.060422,-0.734895,0.347940,0.582123,0.000000,0.000000,0.000000,-1,0.001463,-0.003963,-0.001660,-0.003401,0.001960,0.002258
"2019-05-05 23:02:21.119 +0000",1557097341.118815,-2.240723,-0.355381,0.060458,-0.734886,0.347948,0.582129,0.000000,0.000000,0.000000,-1,0.002720,0.000958,-0.001703,-0.004814,0.003111,0.003518
"2019-05-05 23:02:21.141 +0000",1557097341.141124,-2.240606,-0.355374,0.060673,-0.734956,0.347941,0.582045,0.000000,0.000000,0.000000,-1,0.007731,0.007101,-0.004236,-0.002379,0.006856,0.005434
"2019-05-05 23:02:21.163 +0000",1557097341.163444,-2.240632,-0.355218,0.060801,-0.734984,0.347795,0.582097,0.000000,0.000000,0.000000,-1,0.001383,0.000946,-0.005280,-0.000978,-0.001954,0.007044
"2019-05-05 23:02:21.186 +0000",1557097341.185739,-2.240687,-0.355344,0.060857,-0.734917,0.347913,0.582111,0.000000,0.000000,0.000000,-1,-0.002387,-0.002750,-0.006489,-0.000617,0.008685,0.002560
"2019-05-05 23:02:21.208 +0000",1557097341.208047,-2.240713,-0.355410,0.060987,-0.734884,0.347975,0.582116,0.000000,0.000000,0.000000,-1,0.006411,0.000958,-0.002796,-0.003748,0.001452,0.005378
"2019-05-05 23:02:21.230 +0000",1557097341.230330,-2.240690,-0.355422,0.061063,-0.734895,0.347986,0.582096,0.000000,0.000000,0.000000,-1,0.003908,0.000962,-0.001557,-0.004333,0.003439,0.004360
"2019-05-05 23:02:21.253 +0000",1557097341.252632,-2.240727,-0.355355,0.061095,-0.734891,0.347923,0.582138,0.000000,0.000000,0.000000,-1,-0.008644,-0.003969,-0.002759,-0.003970,0.001854,0.005295
"2019-05-05 23:02:21.275 +0000",1557097341.274941,-2.240709,-0.355400,0.061089,-0.734890,0.347965,0.582114,0.000000,0.000000,0.000000,-1,0.001385,0.002176,-0.005290,-0.003270,0.004024,0.004189
"2019-05-05 23:02:21.297 +0000",1557097341.297248,-2.240705,-0.355301,0.061158,-0.734919,0.347873,0.582133,0.000000,0.000000,0.000000,-1,-0.002375,-0.000281,-0.004029,-0.006277,0.003675,0.003789
"2019-05-05 23:02:21.320 +0000",1557097341.319556,-2.240723,-0.355314,0.061245,-0.734905,0.347884,0.582144,0.000000,0.000000,0.000000,-1,0.003901,-0.002733,-0.002764,-0.004292,0.004410,0.003626
"2019-05-05 23:02:21.342 +0000",1557097341.341864,-2.240759,-0.355320,0.061317,-0.734882,0.347890,0.582169,0.000000,0.000000,0.000000,-1,0.001344,-0.001487,0.001085,-0.003124,0.002558,0.002731
"2019-05-05 23:02:21.364 +0000",1557097341.364142,-2.240664,-0.355281,0.061536,-0.734948,0.347854,0.582107,0.000000,0.000000,0.000000,-1,0.002571,0.003405,-0.006401,-0.003333,0.005052,0.005814
"2019-05-05 23:02:21.386 +0000",1557097341.386442,-2.240780,-0.355438,0.061642,-0.734838,0.348001,0.582159,0.000000,0.000000,0.000000,-1,0.003839,0.000960,-0.002657,-0.002452,0.004187,0.005305
"2019-05-05 23:02:21.409 +0000",1557097341.408756,-2.240835,-0.355458,0.061740,-0.734800,0.348019,0.582195,0.000000,0.000000,0.000000,-1,0.002579,-0.000276,-0.003887,-0.001269,0.003879,0.005833
"2019-05-05 23:02:21.431 +0000",1557097341.431065,-2.240809,-0.355468,0.061893,-0.734813,0.348029,0.582174,0.000000,0.000000,0.000000,-1,0.002569,-0.000286,-0.006367,-0.004247,0.003670,0.006922
"2019-05-05 23:02:21.453 +0000",1557097341.453363,-2.240828,-0.355435,0.061978,-0.734811,0.347999,0.582195,0.000000,0.000000,0.000000,-1,0.003838,-0.000271,-0.002645,-0.002876,0.002114,0.002507
"2019-05-05 23:02:21.476 +0000",1557097341.475681,-2.240795,-0.355407,0.062066,-0.734838,0.347972,0.582176,0.000000,0.000000,0.000000,-1,0.001311,0.002169,-0.007630,-0.002269,0.003789,0.003731
"2019-05-05 23:02:21.498 +0000",1557097341.497959,-2.240802,-0.355338,0.062061,-0.734852,0.347907,0.582196,0.000000,0.000000,0.000000,-1,-0.004951,0.000946,-0.005141,-0.002666,0.001671,0.003237
"2019-05-05 23:02:21.520 +0000",1557097341.520268,-2.240718,-0.355291,0.062083,-0.734914,0.347863,0.582145,0.000000,0.000000,0.000000,-1,-0.001232,0.004654,-0.001316,-0.006328,0.002601,0.003564
"2019-05-05 23:02:21.543 +0000",1557097341.542575,-2.240465,-0.355274,0.062151,-0.735066,0.347847,0.581962,0.000000,0.000000,0.000000,-1,0.002528,-0.000264,-0.001271,-0.006450,0.000969,0.000832
"2019-05-05 23:02:21.565 +0000",1557097341.564881,-2.240325,-0.355257,0.062293,-0.735152,0.347831,0.581863,0.000000,0.000000,0.000000,-1,0.006286,-0.000267,-0.002510,-0.004610,0.002037,0.003250
"2019-05-05 23:02:21.587 +0000",1557097341.587190,-2.240415,-0.355326,0.062343,-0.735081,0.347896,0.581915,0.000000,0.000000,0.000000,-1,0.001260,0.000952,-0.005004,-0.004299,0.003254,0.002466
"2019-05-05 23:02:21.609 +0000",1557097341.609467,-2.240301,-0.355343,0.062522,-0.735143,0.347912,0.581827,0.000000,0.000000,0.000000,-1,0.008780,-0.000280,-0.006230,-0.003566,0.001698,0.002035
"2019-05-05 23:02:21.632 +0000",1557097341.631776,-2.240400,-0.355470,0.062694,-0.735050,0.348031,0.581873,0.000000,0.000000,0.000000,-1,0.007539,-0.002727,-0.002487,-0.003048,0.004859,0.005026
