timestamp,timeIntervalSince1970,attitude.roll,attitude.pitch,attitude.yaw,gravity.x,gravity.y,gravity.z,magneticField.x,magneticField.y,magneticField.z,magneticField.accuracy,rotationRate.x,rotationRate.y,rotationRate.z,userAcceleration.x,userAcceleration.y,userAcceleration.z
"2019-04-05 12:09:54.309 +0000",1554466194.308863,0.172921,0.061550,-0.010743,0.171735,-0.061511,-0.983221,0.000000,0.000000,0.000000,-1,-0.800173,0.599913,-0.120746,0.028048,0.107944,0.196279
"2019-04-05 12:09:54.329 +0000",1554466194.328850,0.190478,0.045416,-0.009787,0.189133,-0.045401,-0.980901,0.000000,0.000000,0.000000,-1,-0.797820,0.970962,-0.051432,-0.015152,0.061880,0.041891
"2019-04-05 12:09:54.349 +0000",1554466194.348868,0.199505,0.028595,-0.002536,0.198103,-0.028591,-0.979764,0.000000,0.000000,0.000000,-1,-0.982627,0.082423,0.357378,-0.047819,0.083950,0.050458
"2019-04-05 12:09:54.369 +0000",1554466194.368858,0.193475,0.007737,0.010609,0.192265,-0.007737,-0.981313,0.000000,0.000000,0.000000,-1,-1.251710,-0.440423,0.413099,-0.186497,0.144318,0.108357
"2019-04-05 12:09:54.389 +0000",1554466194.388877,0.180634,-0.018207,0.022412,0.179623,0.018206,-0.983567,0.000000,0.000000,0.000000,-1,-1.454655,-0.811333,0.301550,-0.243207,0.053983,0.086030
"2019-04-05 12:09:54.409 +0000",1554466194.408866,0.164215,-0.046396,0.031253,0.163302,0.046380,-0.985485,0.000000,0.000000,0.000000,-1,-1.437652,-0.763550,0.121299,-0.227603,0.065193,0.132855
"2019-04-05 12:09:54.429 +0000",1554466194.428855,0.151709,-0.072259,0.037030,0.150734,0.072197,-0.985935,0.000000,0.000000,0.000000,-1,-1.225247,-0.557463,0.112853,-0.139656,0.022362,0.079700
"2019-04-05 12:09:54.449 +0000",1554466194.448874,0.146550,-0.090581,0.044023,0.145428,0.090457,-0.985225,0.000000,0.000000,0.000000,-1,-0.799267,-0.127169,0.284891,-0.075420,0.000089,0.041103
"2019-04-05 12:09:54.469 +0000",1554466194.468862,0.149829,-0.102019,0.051292,0.148493,0.101842,-0.983655,0.000000,0.000000,0.000000,-1,-0.544108,0.297876,0.217194,-0.111597,0.065166,0.068067
"2019-04-05 12:09:54.489 +0000",1554466194.488883,0.159293,-0.112212,0.055924,0.157622,0.111976,-0.981130,0.000000,0.000000,0.000000,-1,-0.558987,0.483918,0.145175,-0.053908,0.016594,0.018865
"2019-04-05 12:09:54.509 +0000",1554466194.508870,0.169015,-0.123480,0.061754,0.166931,0.123167,-0.978245,0.000000,0.000000,0.000000,-1,-0.620851,0.437205,0.220952,-0.055404,0.019061,0.013707
"2019-04-05 12:09:54.529 +0000",1554466194.528858,0.179981,-0.135051,0.068733,0.177381,0.134641,-0.974889,0.000000,0.000000,0.000000,-1,-0.635706,0.569052,0.251228,-0.091321,0.005710,0.019154
"2019-04-05 12:09:54.549 +0000",1554466194.548879,0.196857,-0.147404,0.077022,0.193467,0.146871,-0.970051,0.000000,0.000000,0.000000,-1,-0.724034,0.957176,0.306920,-0.088990,-0.003057,0.051960
"2019-04-05 12:09:54.569 +0000",1554466194.568867,0.228393,-0.163846,0.086745,0.223381,0.163114,-0.960986,0.000000,0.000000,0.000000,-1,-1.004204,1.844025,0.251301,-0.114463,-0.013852,0.065341
"2019-04-05 12:09:54.589 +0000",1554466194.588886,0.274309,-0.185440,0.095020,0.266237,0.184379,-0.946109,0.000000,0.000000,0.000000,-1,-1.231286,2.354452,0.061135,-0.129793,-0.118385,-0.053220
"2019-04-05 12:09:54.609 +0000",1554466194.608875,0.320094,-0.211216,0.102486,0.307663,0.209649,-0.928111,0.000000,0.000000,0.000000,-1,-1.355260,2.037701,-0.057911,-0.138397,-0.110268,-0.121022
"2019-04-05 12:09:54.629 +0000",1554466194.628865,0.364212,-0.259080,0.110628,0.344325,0.256192,-0.903220,0.000000,0.000000,0.000000,-1,-0.748561,1.394038,-0.109068,-0.142619,0.021671,0.074042
"2019-04-05 12:09:54.649 +0000",1554466194.648884,0.392996,-0.270529,0.108563,0.369029,0.267241,-0.890168,0.000000,0.000000,0.000000,-1,-0.500066,1.553240,-0.437863,-0.149928,0.143358,-0.065688
"2019-04-05 12:09:54.669 +0000",1554466194.668872,0.425250,-0.313297,0.108562,0.392467,0.308196,-0.866593,0.000000,0.000000,0.000000,-1,-1.208801,0.994534,-0.553062,-0.194667,-0.076126,-0.298705
"2019-04-05 12:09:54.689 +0000",1554466194.688891,0.450773,-0.341910,0.107261,0.410444,0.335288,-0.848008,0.000000,0.000000,0.000000,-1,-1.148835,1.632320,-0.747791,-0.148771,0.029733,-0.342925
"2019-04-05 12:09:54.709 +0000",1554466194.708882,0.501856,-0.376679,0.098433,0.447327,0.367834,-0.815228,0.000000,0.000000,0.000000,-1,-0.178630,2.730812,-0.995581,-0.147156,0.111704,-0.261463
"2019-04-05 12:09:54.729 +0000",1554466194.728899,0.543408,-0.381254,0.077069,0.479931,0.372085,-0.794493,0.000000,0.000000,0.000000,-1,0.464396,2.028692,-0.878374,-0.038585,0.148652,-0.087435
"2019-04-05 12:09:54.749 +0000",1554466194.748888,0.564356,-0.394863,0.067128,0.493713,0.384681,-0.779915,0.000000,0.000000,0.000000,-1,0.062578,0.130372,-0.334201,0.075394,0.034371,-0.044823
"2019-04-05 12:09:54.769 +0000",1554466194.768877,0.557946,-0.408730,0.075051,0.485832,0.397444,-0.778463,0.000000,0.000000,0.000000,-1,-1.303123,-0.505322,0.070487,-0.014549,0.078829,-0.153117
"2019-04-05 12:09:54.789 +0000",1554466194.788898,0.580756,-0.445406,0.097617,0.495127,0.430824,-0.754480,0.000000,0.000000,0.000000,-1,-1.451775,0.961902,0.022576,0.050100,0.138359,0.068322
"2019-04-05 12:09:54.809 +0000",1554466194.808886,0.623221,-0.464061,0.113990,0.521928,0.447584,-0.726126,0.000000,0.000000,0.000000,-1,-1.095931,1.972713,0.169693,0.098235,-0.043790,0.077903
"2019-04-05 12:09:54.829 +0000",1554466194.828904,0.674507,-0.486476,0.144342,0.552060,0.467514,-0.690405,0.000000,0.000000,0.000000,-1,-1.403351,1.111938,0.703709,0.116321,-0.128753,0.140097
"2019-04-05 12:09:54.849 +0000",1554466194.848893,0.707822,-0.503719,0.186464,0.569423,0.482686,-0.665410,0.000000,0.000000,0.000000,-1,-2.140718,0.561842,0.926878,0.043965,-0.100423,0.120641
"2019-04-05 12:09:54.869 +0000",1554466194.868883,0.758790,-0.533869,0.240893,0.592299,0.508868,-0.624687,0.000000,0.000000,0.000000,-1,-2.322951,1.151971,0.737897,-0.092207,-0.055285,0.063988
"2019-04-05 12:09:54.889 +0000",1554466194.888903,0.808278,-0.555113,0.282759,0.614518,0.527039,-0.587023,0.000000,0.000000,0.000000,-1,-1.646692,1.225799,0.397236,-0.115205,-0.128892,-0.061903
"2019-04-05 12:09:54.909 +0000",1554466194.908892,0.847924,-0.567348,0.313536,0.632419,0.537397,-0.557897,0.000000,0.000000,0.000000,-1,-0.891512,0.821264,0.481930,-0.160282,-0.188505,0.044866
"2019-04-05 12:09:54.929 +0000",1554466194.928910,0.882594,-0.575520,0.338053,0.647964,0.544271,-0.532832,0.000000,0.000000,0.000000,-1,-1.218977,1.170161,0.257396,-0.226501,-0.125661,-0.079121
"2019-04-05 12:09:54.949 +0000",1554466194.948898,0.935828,-0.598241,0.375320,0.665267,0.563190,-0.490138,0.000000,0.000000,0.000000,-1,-1.834620,1.418238,-0.115101,-0.270645,-0.259753,-0.219732
"2019-04-05 12:09:54.969 +0000",1554466194.968889,0.983098,-0.621378,0.401461,0.676657,0.582156,-0.450807,0.000000,0.000000,0.000000,-1,-1.235068,1.670740,-0.418815,-0.220252,-0.284442,-0.274611
"2019-04-05 12:09:54.989 +0000",1554466194.988907,1.024479,-0.635667,0.408170,0.687549,0.593714,-0.418064,0.000000,0.000000,0.000000,-1,0.037616,1.662305,-0.581765,-0.227054,-0.220927,-0.059170
"2019-04-05 12:09:55.009 +0000",1554466195.008896,1.053666,-0.642951,0.390051,0.695679,0.599560,-0.395672,0.000000,0.000000,0.000000,-1,0.537123,2.251930,-0.741330,-0.258163,-0.091000,0.126492
"2019-04-05 12:09:55.029 +0000",1554466195.028916,1.102534,-0.653682,0.378680,0.708394,0.608114,-0.358293,0.000000,0.000000,0.000000,-1,0.057136,2.566949,-0.853567,-0.314992,0.013606,0.119813
"2019-04-05 12:09:55.049 +0000",1554466195.048905,1.144753,-0.673602,0.379953,0.711711,0.623805,-0.323003,0.000000,0.000000,0.000000,-1,-0.789329,1.696872,-0.867938,-0.390926,-0.041530,0.042196
"2019-04-05 12:09:55.069 +0000",1554466195.068893,1.189872,-0.698743,0.406404,0.710769,0.643256,-0.284652,0.000000,0.000000,0.000000,-1,-1.579305,0.889436,-1.053004,-0.427733,-0.079688,-0.087907
"2019-04-05 12:09:55.089 +0000",1554466195.088913,1.223751,-0.735865,0.442683,0.697056,0.671229,-0.252113,0.000000,0.000000,0.000000,-1,-2.040667,0.226312,-1.345123,-0.346058,-0.081690,-0.319618
"2019-04-05 12:09:55.109 +0000",1554466195.108901,1.254968,-0.769934,0.481586,0.682444,0.696088,-0.223000,0.000000,0.000000,0.000000,-1,-1.505165,0.088770,-1.336033,-0.182551,-0.076535,-0.205436
"2019-04-05 12:09:55.129 +0000",1554466195.128921,1.273808,-0.804315,0.496514,0.663238,0.720356,-0.202977,0.000000,0.000000,0.000000,-1,-0.739094,0.484678,-1.605577,-0.114043,0.157681,-0.103847
"2019-04-05 12:09:55.149 +0000",1554466195.148909,1.273347,-0.839493,0.503562,0.638511,0.744305,-0.195732,0.000000,0.000000,0.000000,-1,-0.678226,-1.277045,-1.865614,-0.039054,0.148258,-0.313317
"2019-04-05 12:09:55.169 +0000",1554466195.168898,1.236155,-0.885036,0.515456,0.598131,0.773938,-0.207982,0.000000,0.000000,0.000000,-1,-1.273379,-2.734247,-2.231119,-0.047136,0.176731,-0.298717
"2019-04-05 12:09:55.189 +0000",1554466195.188919,1.181975,-0.938947,0.532596,0.546548,0.806937,-0.223908,0.000000,0.000000,0.000000,-1,-1.246358,-4.022822,-2.378794,-0.177468,0.002634,-0.405990
"2019-04-05 12:09:55.209 +0000",1554466195.208908,1.104296,-0.994134,0.540528,0.486967,0.838287,-0.245223,0.000000,0.000000,0.000000,-1,-1.506063,-3.972896,-2.490110,-0.382506,-0.094391,-0.100694
"2019-04-05 12:09:55.229 +0000",1554466195.228926,1.052846,-1.060880,0.550525,0.424080,0.872785,-0.241659,0.000000,0.000000,0.000000,-1,-1.661261,-2.481294,-2.852743,-0.305961,-0.143705,0.131185
"2019-04-05 12:09:55.249 +0000",1554466195.248892,1.003903,-1.127924,0.542424,0.361499,0.903524,-0.230128,0.000000,0.000000,0.000000,-1,-1.573651,-2.118858,-2.959720,0.071408,-0.206839,0.032939
"2019-04-05 12:09:55.269 +0000",1554466195.268880,0.955669,-1.188205,0.543898,0.304891,0.927700,-0.215430,0.000000,0.000000,0.000000,-1,-1.711116,-2.603342,-2.153998,0.311548,-0.264019,0.017676
"2019-04-05 12:09:55.289 +0000",1554466195.288901,0.916867,-1.233758,0.550142,0.262467,0.943738,-0.201161,0.000000,0.000000,0.000000,-1,-1.237838,-1.892309,-1.549105,0.159179,-0.139341,0.059529
"2019-04-05 12:09:55.309 +0000",1554466195.308890,0.889198,-1.263371,0.550267,0.234989,0.953116,-0.190648,0.000000,0.000000,0.000000,-1,-0.762396,-1.115364,-0.947236,-0.121128,-0.292395,0.014943
"2019-04-05 12:09:55.329 +0000",1554466195.328910,0.879058,-1.282208,0.553542,0.219175,0.958647,-0.181535,0.000000,0.000000,0.000000,-1,-0.606081,-0.344625,-0.612518,-0.436201,-0.250059,0.071641
"2019-04-05 12:09:55.349 +0000",1554466195.348898,0.879488,-1.301367,0.555904,0.205064,0.963923,-0.169698,0.000000,0.000000,0.000000,-1,-0.665815,-0.107556,-0.829425,-0.561921,0.092412,0.006643
"2019-04-05 12:09:55.369 +0000",1554466195.368917,0.849888,-1.328984,0.540330,0.179881,0.970905,-0.158057,0.000000,0.000000,0.000000,-1,-0.790420,-1.205830,-1.429765,-0.592356,0.266949,-0.227884
"2019-04-05 12:09:55.389 +0000",1554466195.388906,0.757244,-1.363317,0.478666,0.141496,0.978553,-0.149696,0.000000,0.000000,0.000000,-1,-0.604203,-1.734457,-1.871298,-0.472673,0.342797,-0.258278
"2019-04-05 12:09:55.409 +0000",1554466195.408894,0.595153,-1.392111,0.343359,0.099640,0.984078,-0.147169,0.000000,0.000000,0.000000,-1,-0.135545,-1.151140,-1.844063,-0.247772,0.158668,-0.109301
"2019-04-05 12:09:55.429 +0000",1554466195.428913,0.437638,-1.404220,0.193640,0.070265,0.986158,-0.150171,0.000000,0.000000,0.000000,-1,0.252653,-0.087036,-1.052326,-0.050062,-0.042829,-0.030783
"2019-04-05 12:09:55.449 +0000",1554466195.448903,0.379034,-1.399341,0.125654,0.063129,0.985338,-0.158498,0.000000,0.000000,0.000000,-1,0.535102,0.598701,-0.142943,0.048932,0.265166,-0.086818
"2019-04-05 12:09:55.469 +0000",1554466195.468922,0.341240,-1.389890,0.072346,0.060209,0.983681,-0.169539,0.000000,0.000000,0.000000,-1,0.676964,0.870674,-0.476523,-0.068815,0.268013,0.030791
"2019-04-05 12:09:55.489 +0000",1554466195.488911,0.243995,-1.384179,-0.045641,0.044820,0.982637,-0.180033,0.000000,0.000000,0.000000,-1,0.434449,0.914264,-1.196170,0.024989,0.042738,-0.074789
"2019-04-05 12:09:55.509 +0000",1554466195.508899,0.122869,-1.386342,-0.177450,0.022478,0.983037,-0.182020,0.000000,0.000000,0.000000,-1,-0.067403,0.060943,-1.195262,0.264601,0.146511,-0.038668
"2019-04-05 12:09:55.529 +0000",1554466195.528919,0.014717,-1.397485,-0.283244,0.002538,0.985019,-0.172418,0.000000,0.000000,0.000000,-1,-0.767232,-0.287137,-0.779537,0.347346,0.197446,-0.052634
"2019-04-05 12:09:55.549 +0000",1554466195.548908,-0.052913,-1.418824,-0.348203,-0.008006,0.988474,-0.151166,0.000000,0.000000,0.000000,-1,-1.173371,-0.017759,-0.375576,0.439097,0.293691,-0.143436
"2019-04-05 12:09:55.569 +0000",1554466195.568926,-0.111030,-1.441941,-0.419271,-0.014237,0.991710,-0.127695,0.000000,0.000000,0.000000,-1,-1.228295,1.146399,-0.433070,0.475418,0.070684,-0.186072
"2019-04-05 12:09:55.589 +0000",1554466195.588916,-0.135324,-1.468545,-0.479411,-0.013769,0.994777,-0.101123,0.000000,0.000000,0.000000,-1,-1.452715,1.978074,0.115030,0.358007,-0.259929,-0.411511
"2019-04-05 12:09:55.609 +0000",1554466195.608904,0.009381,-1.496707,-0.362237,0.000694,0.997257,-0.073996,0.000000,0.000000,0.000000,-1,-1.236377,0.804388,0.816681,-0.023308,-0.063327,-0.655816
"2019-04-05 12:09:55.629 +0000",1554466195.628924,0.292722,-1.511371,-0.076034,0.017131,0.998235,-0.056840,0.000000,0.000000,0.000000,-1,-0.593735,-0.483564,0.749795,-0.130351,0.223811,-0.560606
"2019-04-05 12:09:55.649 +0000",1554466195.648913,0.435196,-1.511973,0.076705,0.024775,0.998270,-0.053288,0.000000,0.000000,0.000000,-1,-0.012433,-0.239609,0.227336,-0.007487,0.205404,-0.340022
"2019-04-05 12:09:55.669 +0000",1554466195.668932,0.459050,-1.506882,0.092984,0.028293,0.997958,-0.057242,0.000000,0.000000,0.000000,-1,0.315557,0.702078,0.212122,0.052716,-0.108554,-0.265954
"2019-04-05 12:09:55.689 +0000",1554466195.688921,0.552838,-1.494264,0.166780,0.040141,0.997073,-0.065056,0.000000,0.000000,0.000000,-1,0.488831,1.062482,0.737754,-0.081935,-0.225268,-0.281898
"2019-04-05 12:09:55.709 +0000",1554466195.708910,0.709929,-1.472967,0.307407,0.063654,0.995219,-0.074067,0.000000,0.000000,0.000000,-1,0.485720,0.636319,1.344850,-0.261484,-0.129755,-0.331054
"2019-04-05 12:09:55.729 +0000",1554466195.728929,0.855683,-1.442613,0.453933,0.096510,0.991796,-0.083815,0.000000,0.000000,0.000000,-1,0.521758,-0.356544,1.867059,-0.407667,-0.103673,-0.200563
"2019-04-05 12:09:55.749 +0000",1554466195.748918,0.955790,-1.405579,0.564195,0.134327,0.986383,-0.094888,0.000000,0.000000,0.000000,-1,0.459928,-0.304393,1.910027,-0.459781,0.001883,0.006341
"2019-04-05 12:09:55.769 +0000",1554466195.768938,1.028966,-1.370991,0.630333,0.170045,0.980105,-0.102354,0.000000,0.000000,0.000000,-1,0.481773,0.917079,1.704188,-0.509980,-0.060977,0.197080
"2019-04-05 12:09:55.789 +0000",1554466195.788929,1.115741,-1.334421,0.678342,0.210345,0.972193,-0.102923,0.000000,0.000000,0.000000,-1,0.333350,2.499207,2.000209,-0.434070,-0.125956,-0.020581
"2019-04-05 12:09:55.809 +0000",1554466195.808945,1.227943,-1.299306,0.756173,0.252555,0.963372,-0.090150,0.000000,0.000000,0.000000,-1,-0.709636,1.272045,1.907394,-0.246345,0.406836,-0.266769
"2019-04-05 12:09:55.829 +0000",1554466195.828935,1.389442,-1.275765,0.904901,0.285997,0.956793,-0.052443,0.000000,0.000000,0.000000,-1,-2.180168,0.939208,1.451979,-0.258927,0.516779,-0.123766
"2019-04-05 12:09:55.849 +0000",1554466195.848924,1.580759,-1.261066,1.070649,0.304782,0.952416,0.003037,0.000000,0.000000,0.000000,-1,-2.354964,2.151093,0.577465,-0.369678,0.684120,-0.102341
"2019-04-05 12:09:55.869 +0000",1554466195.868942,1.764131,-1.264238,1.203300,0.296152,0.953378,0.057981,0.000000,0.000000,0.000000,-1,-1.686239,3.215486,-0.886271,-0.426233,0.568412,-0.417295
"2019-04-05 12:09:55.889 +0000",1554466195.888932,1.888645,-1.285072,1.269556,0.267729,0.959458,0.088084,0.000000,0.000000,0.000000,-1,0.115201,2.584674,-1.243138,-0.338087,0.079483,-1.279276
"2019-04-05 12:09:55.909 +0000",1554466195.908951,1.885653,-1.305240,1.251850,0.249539,0.964947,0.081273,0.000000,0.000000,0.000000,-1,0.461786,-0.584601,-0.499260,-0.317578,-0.474316,-1.033818
"2019-04-05 12:09:55.929 +0000",1554466195.928939,1.840891,-1.301679,1.242694,0.256236,0.964006,0.070941,0.000000,0.000000,0.000000,-1,-0.065547,-2.112762,0.423979,-0.164165,-0.054582,-0.447315
"2019-04-05 12:09:55.949 +0000",1554466195.948928,1.815764,-1.296809,1.248695,0.262489,0.962700,0.065619,0.000000,0.000000,0.000000,-1,-0.207064,-0.918867,-0.017405,-0.285423,0.212181,-0.072425
"2019-04-05 12:09:55.969 +0000",1554466195.968949,1.832993,-1.303266,1.270618,0.255311,0.964427,0.068519,0.000000,0.000000,0.000000,-1,-0.184451,0.006978,-0.526058,-0.361680,-0.150553,-0.165290
"2019-04-05 12:09:55.989 +0000",1554466195.988938,1.855955,-1.310696,1.300523,0.246788,0.966364,0.072346,0.000000,0.000000,0.000000,-1,-0.376705,-0.578627,-0.377843,-0.295250,-0.217646,-0.227344
"2019-04-05 12:09:56.009 +0000",1554466196.008957,1.891213,-1.314510,1.357988,0.240584,0.967338,0.079838,0.000000,0.000000,0.000000,-1,-0.836947,-1.305496,-0.498332,-0.166365,0.001168,-0.294255
"2019-04-05 12:09:56.029 +0000",1554466196.028946,1.955470,-1.322266,1.458304,0.228000,0.969275,0.092304,0.000000,0.000000,0.000000,-1,-1.053927,-1.642467,-0.976848,-0.142032,0.109735,-0.087803
"2019-04-05 12:09:56.049 +0000",1554466196.048934,2.029753,-1.339556,1.553545,0.205466,0.973383,0.101531,0.000000,0.000000,0.000000,-1,-0.397352,-0.302455,-1.408949,-0.200293,-0.023691,0.056047
"2019-04-05 12:09:56.069 +0000",1554466196.068954,2.111229,-1.369774,1.624042,0.171213,0.979863,0.102731,0.000000,0.000000,0.000000,-1,0.264595,1.135356,-1.863203,-0.155694,-0.181569,0.016105
"2019-04-05 12:09:56.089 +0000",1554466196.088943,2.244447,-1.410946,1.723083,0.124398,0.987251,0.099296,0.000000,0.000000,0.000000,-1,0.533694,2.109929,-2.339194,-0.063820,-0.624336,-0.047019
"2019-04-05 12:09:56.109 +0000",1554466196.108960,2.465813,-1.455387,1.902369,0.072027,0.993348,0.089842,0.000000,0.000000,0.000000,-1,0.790737,2.093758,-2.465737,0.059687,-0.932969,-0.162718
"2019-04-05 12:09:56.129 +0000",1554466196.128950,2.776600,-1.493017,2.181542,0.027732,0.996977,0.072575,0.000000,0.000000,0.000000,-1,1.119472,1.325129,-1.414270,0.072991,-0.024259,-0.221882
"2019-04-05 12:09:56.149 +0000",1554466196.148939,2.009817,-1.477478,1.389952,0.084338,0.995649,0.039604,0.000000,0.000000,0.000000,-1,1.938860,0.846784,5.551993,0.018552,1.071078,-0.260154
"2019-04-05 12:09:56.169 +0000",1554466196.168959,1.552431,-1.321482,0.919639,0.246694,0.969082,-0.004531,0.000000,0.000000,0.000000,-1,2.401014,-0.040421,8.982531,0.080577,0.601002,-0.406800
"2019-04-05 12:09:56.189 +0000",1554466196.188947,1.424258,-1.210312,0.851714,0.348944,0.935726,-0.051503,0.000000,0.000000,0.000000,-1,0.361395,-5.545516,2.140173,0.448984,1.223423,-0.799236
"2019-04-05 12:09:56.209 +0000",1554466196.208967,1.315551,-1.217666,0.859943,0.334629,0.938295,-0.087317,0.000000,0.000000,0.000000,-1,-0.356790,-5.106641,-0.808684,-0.164295,0.209624,0.215750
"2019-04-05 12:09:56.229 +0000",1554466196.228956,1.273891,-1.228829,0.878805,0.320666,0.942097,-0.098107,0.000000,0.000000,0.000000,-1,-0.523262,-1.563994,-0.163603,-0.389865,-0.032520,0.326699
"2019-04-05 12:09:56.249 +0000",1554466196.248946,1.313063,-1.229638,0.911054,0.323525,0.942368,-0.085280,0.000000,0.000000,0.000000,-1,-0.499208,1.417095,0.158297,-0.335137,0.004944,0.283217
"2019-04-05 12:09:56.269 +0000",1554466196.268965,1.385966,-1.229297,0.938084,0.329193,0.942254,-0.061547,0.000000,0.000000,0.000000,-1,-0.431352,2.759768,0.103154,-0.170593,0.035377,0.230264
"2019-04-05 12:09:56.289 +0000",1554466196.288955,1.472303,-1.227094,0.963530,0.335339,0.941513,-0.033136,0.000000,0.000000,0.000000,-1,-0.401126,3.278601,0.292331,-0.053494,0.056106,0.237832
"2019-04-05 12:09:56.309 +0000",1554466196.308975,1.562619,-1.214160,0.988653,0.349109,0.937077,-0.002855,0.000000,0.000000,0.000000,-1,-0.401905,3.307444,0.840917,-0.063862,0.029781,0.050157
"2019-04-05 12:09:56.329 +0000",1554466196.328963,1.651087,-1.197980,1.007341,0.363063,0.931305,0.029213,0.000000,0.000000,0.000000,-1,-0.353702,3.860196,0.676927,-0.086895,0.050750,0.009712
"2019-04-05 12:09:56.349 +0000",1554466196.348981,1.767678,-1.191324,1.033330,0.363271,0.928860,0.072460,0.000000,0.000000,0.000000,-1,-0.655385,5.046702,-0.030900,-0.118551,0.032596,-0.113155
"2019-04-05 12:09:56.369 +0000",1554466196.368971,1.878781,-1.198714,1.060296,0.346446,0.931572,0.110207,0.000000,0.000000,0.000000,-1,-0.164575,3.681105,-0.696319,-0.097469,0.051399,-0.252587
"2019-04-05 12:09:56.389 +0000",1554466196.388958,1.991729,-1.210089,1.094422,0.322125,0.935648,0.144213,0.000000,0.000000,0.000000,-1,-0.526888,4.499995,-0.672973,0.046741,-0.161859,-0.230608
"2019-04-05 12:09:56.409 +0000",1554466196.408979,2.126978,-1.210491,1.128535,0.299419,0.935789,0.186132,0.000000,0.000000,0.000000,-1,-0.378973,5.284625,-0.081020,0.270466,-0.109953,-0.428304
"2019-04-05 12:09:56.429 +0000",1554466196.428968,2.177293,-1.210685,1.092518,0.289529,0.935858,0.200851,0.000000,0.000000,0.000000,-1,1.201392,3.211549,0.537190,0.142371,-0.173178,-0.967956
"2019-04-05 12:09:56.449 +0000",1554466196.448988,2.129811,-1.216820,1.000872,0.293862,0.938002,0.183834,0.000000,0.000000,0.000000,-1,1.384111,1.409461,0.776185,0.024360,0.003816,-0.743465
"2019-04-05 12:09:56.469 +0000",1554466196.468976,2.095099,-1.210212,0.935169,0.305425,0.935691,0.176624,0.000000,0.000000,0.000000,-1,0.485795,1.349541,0.801513,0.010691,0.197702,-0.409885
"2019-04-05 12:09:56.489 +0000",1554466196.488966,2.092771,-1.201296,0.913749,0.313054,0.932508,0.180065,0.000000,0.000000,0.000000,-1,-0.089821,0.510018,0.488889,-0.025304,0.256594,-0.340343
"2019-04-05 12:09:56.509 +0000",1554466196.508985,2.090843,-1.193770,0.912771,0.319482,0.929764,0.182943,0.000000,0.000000,0.000000,-1,-0.161830,-0.307538,0.246693,-0.093911,0.187073,-0.254049
"2019-04-05 12:09:56.529 +0000",1554466196.528974,2.083794,-1.187405,0.919711,0.325914,0.927401,0.183587,0.000000,0.000000,0.000000,-1,-0.380813,-0.826192,0.212674,-0.127687,-0.022983,-0.258111
"2019-04-05 12:09:56.549 +0000",1554466196.548993,2.082399,-1.186483,0.937676,0.326914,0.927056,0.183551,0.000000,0.000000,0.000000,-1,-0.643294,-0.948242,0.269484,-0.160258,-0.006814,-0.247653
"2019-04-05 12:09:56.569 +0000",1554466196.568981,2.090490,-1.175076,0.967867,0.334576,0.922719,0.191429,0.000000,0.000000,0.000000,-1,-0.860992,-0.976806,0.182390,-0.153698,0.030940,-0.253792
"2019-04-05 12:09:56.589 +0000",1554466196.588970,2.104650,-1.172330,1.001899,0.334011,0.921657,0.197436,0.000000,0.000000,0.000000,-1,-0.854473,-0.783310,0.224526,-0.162106,0.096989,-0.232943
"2019-04-05 12:09:56.609 +0000",1554466196.608989,2.109702,-1.170139,1.019814,0.334741,0.920805,0.200157,0.000000,0.000000,0.000000,-1,-0.376224,-0.345619,0.375125,-0.197962,0.130266,0.109109
"2019-04-05 12:09:56.629 +0000",1554466196.628978,2.097551,-1.167780,0.985652,0.339027,0.919882,0.197166,0.000000,0.000000,0.000000,-1,0.822948,1.735121,0.463539,-0.242332,0.022562,-0.233879
"2019-04-05 12:09:56.649 +0000",1554466196.648997,2.106439,-1.178217,0.936318,0.328987,0.923925,0.195261,0.000000,0.000000,0.000000,-1,0.779951,3.160832,0.528392,-0.181526,0.030222,-0.389536
"2019-04-05 12:09:56.669 +0000",1554466196.668987,2.113486,-1.177735,0.879802,0.327984,0.923741,0.197804,0.000000,0.000000,0.000000,-1,1.029330,2.568494,0.585959,-0.137707,0.049770,-0.608357
"2019-04-05 12:09:56.689 +0000",1554466196.688975,2.079383,-1.192425,0.811772,0.322649,0.929268,0.179878,0.000000,0.000000,0.000000,-1,1.065739,0.850407,0.440280,-0.059572,0.094460,-0.485298
"2019-04-05 12:09:56.709 +0000",1554466196.708996,2.036741,-1.195903,0.764568,0.327135,0.930547,0.164508,0.000000,0.000000,0.000000,-1,0.750229,-0.446448,0.166363,-0.106462,-0.023274,-0.369327
"2019-04-05 12:09:56.729 +0000",1554466196.728984,1.975950,-1.211876,0.724225,0.322823,0.936276,0.138453,0.000000,0.000000,0.000000,-1,0.360392,-1.253090,0.108456,-0.117821,-0.013410,-0.234842
"2019-04-05 12:09:56.749 +0000",1554466196.749003,1.951611,-1.212829,0.722955,0.325268,0.936611,0.130224,0.000000,0.000000,0.000000,-1,-0.135679,-1.021003,-0.082941,-0.122174,-0.009761,-0.159536
"2019-04-05 12:09:56.769 +0000",1554466196.768992,1.939847,-1.226283,0.725378,0.314995,0.941240,0.121831,0.000000,0.000000,0.000000,-1,-0.139636,-0.399067,-0.083352,-0.108620,0.086012,-0.136617
"2019-04-05 12:09:56.789 +0000",1554466196.789012,1.933185,-1.230417,0.721218,0.312157,0.942628,0.118349,0.000000,0.000000,0.000000,-1,0.295759,-0.042212,-0.211401,-0.102349,0.127379,-0.240389
"2019-04-05 12:09:56.809 +0000",1554466196.808999,1.901675,-1.251608,0.690550,0.296770,0.949490,0.101943,0.000000,0.000000,0.000000,-1,0.468520,-0.104023,-0.291994,-0.079409,0.137332,-0.279921
"2019-04-05 12:09:56.829 +0000",1554466196.828987,1.872847,-1.263254,0.665637,0.289008,0.953080,0.090050,0.000000,0.000000,0.000000,-1,0.611240,-0.349772,-0.526693,-0.007437,0.130294,-0.242577
"2019-04-05 12:09:56.849 +0000",1554466196.849009,1.814188,-1.291938,0.613835,0.267140,0.961370,0.066335,0.000000,0.000000,0.000000,-1,0.734946,-0.339261,-0.636856,0.090907,0.048365,-0.192677
"2019-04-05 12:09:56.869 +0000",1554466196.868998,1.770811,-1.307829,0.570837,0.254760,0.965623,0.051646,0.000000,0.000000,0.000000,-1,0.726613,0.073239,-0.645304,0.198304,-0.011872,-0.194255
"2019-04-05 12:09:56.889 +0000",1554466196.889016,1.694764,-1.335367,0.490582,0.231466,0.972414,0.028842,0.000000,0.000000,0.000000,-1,0.910090,0.052895,-0.672450,0.315623,-0.058352,-0.538806
"2019-04-05 12:09:56.909 +0000",1554466196.909005,1.560936,-1.348511,0.371306,0.220444,0.975396,-0.002174,0.000000,0.000000,0.000000,-1,1.667992,-1.423252,-0.473332,0.320663,-0.141808,-0.490914
"2019-04-05 12:09:56.929 +0000",1554466196.928994,1.321967,-1.359278,0.160299,0.203475,0.977713,-0.051702,0.000000,0.000000,0.000000,-1,1.726799,-1.427482,-0.208828,0.282731,-0.230124,-0.071757
"2019-04-05 12:09:56.949 +0000",1554466196.949013,1.173579,-1.352917,0.030473,0.199326,0.976358,-0.083621,0.000000,0.000000,0.000000,-1,1.196867,-0.901879,-0.135759,0.195571,-0.103860,0.079623
"2019-04-05 12:09:56.969 +0000",1554466196.969003,1.029403,-1.354003,-0.096562,0.184334,0.976592,-0.110845,0.000000,0.000000,0.000000,-1,0.617512,-0.950362,-0.182613,0.195167,0.015519,0.083089
"2019-04-05 12:09:56.989 +0000",1554466196.989022,0.979377,-1.353989,-0.126107,0.178572,0.976589,-0.119931,0.000000,0.000000,0.000000,-1,0.062693,-1.080704,-0.151847,0.246645,0.096149,0.101163
"2019-04-05 12:09:57.009 +0000",1554466197.009010,0.920308,-1.362299,-0.164103,0.164717,0.978343,-0.125346,0.000000,0.000000,0.000000,-1,-0.374642,-0.903902,-0.171721,0.240633,0.041631,0.124781
"2019-04-05 12:09:57.029 +0000",1554466197.028998,0.934799,-1.370711,-0.135646,0.159890,0.980050,-0.118053,0.000000,0.000000,0.000000,-1,-0.493928,-0.504073,-0.165015,0.198646,-0.052544,0.160228
"2019-04-05 12:09:57.049 +0000",1554466197.049018,0.900989,-1.380247,-0.164475,0.148474,0.981900,-0.117583,0.000000,0.000000,0.000000,-1,-0.185383,0.002795,-0.229405,0.176202,-0.062955,0.220916
"2019-04-05 12:09:57.069 +0000",1554466197.069006,0.874173,-1.381871,-0.198364,0.144045,0.982207,-0.120498,0.000000,0.000000,0.000000,-1,0.489058,0.453038,-0.312914,0.109480,0.026415,0.088669
"2019-04-05 12:09:57.089 +0000",1554466197.089025,0.745622,-1.376466,-0.338919,0.131009,0.981177,-0.141868,0.000000,0.000000,0.000000,-1,1.102471,0.550346,-0.478361,-0.007031,-0.035682,-0.254463
"2019-04-05 12:09:57.109 +0000",1554466197.109015,0.662308,-1.362462,-0.446154,0.127186,0.978377,-0.163099,0.000000,0.000000,0.000000,-1,1.245041,1.681470,-0.253600,0.108257,-0.285735,-0.112658
"2019-04-05 12:09:57.129 +0000",1554466197.129004,0.597000,-1.341118,-0.565612,0.127984,0.973740,-0.188283,0.000000,0.000000,0.000000,-1,1.473063,3.054915,-0.064645,0.112754,-0.268509,-0.104640
"2019-04-05 12:09:57.149 +0000",1554466197.149022,0.592196,-1.311869,-0.636197,0.142918,0.966665,-0.212442,0.000000,0.000000,0.000000,-1,1.786928,3.190830,0.212479,0.081935,-0.229284,-0.059180
"2019-04-05 12:09:57.169 +0000",1554466197.169012,0.574013,-1.276667,-0.716520,0.157421,0.957055,-0.243442,0.000000,0.000000,0.000000,-1,1.690880,2.967685,0.375350,0.131123,-0.193261,-0.053082
"2019-04-05 12:09:57.189 +0000",1554466197.189031,0.596961,-1.248829,-0.745938,0.177877,0.948615,-0.261705,0.000000,0.000000,0.000000,-1,1.164571,2.245156,0.407621,0.130717,-0.269873,-0.101256
"2019-04-05 12:09:57.209 +0000",1554466197.209021,0.602344,-1.232564,-0.774310,0.188000,0.943343,-0.273422,0.000000,0.000000,0.000000,-1,0.243361,1.406989,0.255846,0.100253,-0.204771,-0.026749
"2019-04-05 12:09:57.229 +0000",1554466197.229041,0.629146,-1.236831,-0.760912,0.192890,0.944750,-0.265028,0.000000,0.000000,0.000000,-1,-0.621528,0.275317,-0.071874,0.102139,-0.140291,-0.014696
"2019-04-05 12:09:57.249 +0000",1554466197.249022,0.626930,-1.254835,-0.751489,0.182292,0.950498,-0.251638,0.000000,0.000000,0.000000,-1,-1.418059,-0.851053,-0.249267,0.124424,-0.177518,-0.084422
"2019-04-05 12:09:57.269 +0000",1554466197.269010,0.651097,-1.283582,-0.698245,0.171684,0.959037,-0.225326,0.000000,0.000000,0.000000,-1,-1.657330,-1.505747,-0.181172,0.141548,-0.223624,-0.204377
"2019-04-05 12:09:57.289 +0000",1554466197.289030,0.655619,-1.304537,-0.665869,0.160412,0.964762,-0.208569,0.000000,0.000000,0.000000,-1,-1.129950,-0.924578,-0.063369,0.148258,-0.063029,-0.191212
"2019-04-05 12:09:57.309 +0000",1554466197.309019,0.681553,-1.314429,-0.638331,0.159746,0.967318,-0.196918,0.000000,0.000000,0.000000,-1,-0.295990,0.521731,-0.030307,0.093977,-0.082537,-0.103711
"2019-04-05 12:09:57.329 +0000",1554466197.329037,0.674793,-1.312399,-0.667528,0.159638,0.966801,-0.199526,0.000000,0.000000,0.000000,-1,0.169566,1.393137,-0.092978,0.105041,-0.094807,-0.086881
"2019-04-05 12:09:57.349 +0000",1554466197.349025,0.685459,-1.311701,-0.683016,0.162184,0.966622,-0.198334,0.000000,0.000000,0.000000,-1,0.116018,1.057208,-0.168483,0.127016,-0.088738,-0.166427
"2019-04-05 12:09:57.369 +0000",1554466197.369014,0.658588,-1.310904,-0.718584,0.157269,0.966418,-0.203230,0.000000,0.000000,0.000000,-1,0.030186,0.118518,-0.195422,0.134037,-0.208514,-0.091692
"2019-04-05 12:09:57.389 +0000",1554466197.389034,0.645760,-1.312748,-0.731998,0.153576,0.966890,-0.203808,0.000000,0.000000,0.000000,-1,0.025891,0.055798,-0.188115,0.159122,-0.269075,0.061596
"2019-04-05 12:09:57.409 +0000",1554466197.409023,0.621870,-1.312835,-0.759868,0.148615,0.966912,-0.207350,0.000000,0.000000,0.000000,-1,-0.095615,0.281275,-0.180818,0.244833,-0.274590,0.079542
"2019-04-05 12:09:57.429 +0000",1554466197.429043,0.626224,-1.318675,-0.759861,0.146204,0.968385,-0.202122,0.000000,0.000000,0.000000,-1,-0.331450,0.121993,-0.136975,0.292181,-0.248369,0.012257
"2019-04-05 12:09:57.449 +0000",1554466197.449032,0.625716,-1.324174,-0.756774,0.142981,0.969743,-0.197877,0.000000,0.000000,0.000000,-1,-0.536419,-0.276495,-0.002088,0.220102,-0.204850,-0.082321
"2019-04-05 12:09:57.469 +0000",1554466197.469021,0.643384,-1.332850,-0.729407,0.141401,0.971824,-0.188581,0.000000,0.000000,0.000000,-1,-0.532255,-0.482746,-0.002666,0.131182,-0.144874,-0.075808
"2019-04-05 12:09:57.489 +0000",1554466197.489041,0.644860,-1.339138,-0.720462,0.138004,0.973287,-0.183485,0.000000,0.000000,0.000000,-1,-0.535329,-0.182952,-0.047720,0.108884,-0.139837,-0.032122
"2019-04-05 12:09:57.509 +0000",1554466197.509028,0.669651,-1.349282,-0.694026,0.136374,0.975566,-0.172257,0.000000,0.000000,0.000000,-1,-0.627016,-0.020233,-0.085482,0.100168,-0.133876,-0.103042
"2019-04-05 12:09:57.529 +0000",1554466197.529047,0.683544,-1.359754,-0.676462,0.132294,0.977813,-0.162416,0.000000,0.000000,0.000000,-1,-0.803180,-0.215735,-0.152855,0.090790,-0.090789,-0.188048
"2019-04-05 12:09:57.549 +0000",1554466197.549036,0.716580,-1.376945,-0.634919,0.126525,0.981270,-0.145258,0.000000,0.000000,0.000000,-1,-0.996475,-0.480340,-0.272669,0.094758,-0.114693,-0.230932
"2019-04-05 12:09:57.569 +0000",1554466197.569026,0.733685,-1.393987,-0.604051,0.117776,0.984410,-0.130633,0.000000,0.000000,0.000000,-1,-1.012605,-0.709972,-0.298876,0.111945,-0.124028,-0.234601
"2019-04-05 12:09:57.589 +0000",1554466197.589045,0.768518,-1.410627,-0.553721,0.110851,0.987200,-0.114659,0.000000,0.000000,0.000000,-1,-0.784264,-0.706937,-0.236420,0.118793,-0.031771,-0.193722
"2019-04-05 12:09:57.609 +0000",1554466197.609033,0.668538,-1.393021,-0.642183,0.109612,0.984240,-0.138770,0.000000,0.000000,0.000000,-1,-0.492785,-0.280833,-0.211356,0.153267,0.093947,-0.195107
"2019-04-05 12:09:57.629 +0000",1554466197.629054,0.674837,-1.402649,-0.638167,0.104558,0.985897,-0.130671,0.000000,0.000000,0.000000,-1,-0.289814,0.344115,-0.303996,0.354427,0.305836,-0.198293
"2019-04-05 12:09:57.649 +0000",1554466197.649043,0.636640,-1.399702,-0.687190,0.101218,0.985399,-0.136904,0.000000,0.000000,0.000000,-1,0.619372,0.597569,-0.120725,0.506601,0.320936,-0.077207
"2019-04-05 12:09:57.669 +0000",1554466197.669061,0.586099,-1.378093,-0.755243,0.105927,0.981490,-0.159548,0.000000,0.000000,0.000000,-1,1.528718,0.999905,0.234765,0.434524,0.109162,0.084353
"2019-04-05 12:09:57.689 +0000",1554466197.689050,0.545726,-1.342092,-0.821471,0.117673,0.973961,-0.193784,0.000000,0.000000,0.000000,-1,1.818110,1.339942,0.438874,0.259722,0.029884,0.200513
"2019-04-05 12:09:57.709 +0000",1554466197.709040,0.529115,-1.308972,-0.867654,0.130655,0.965919,-0.223446,0.000000,0.000000,0.000000,-1,1.557765,1.417711,0.300946,0.198843,0.024040,0.217953
"2019-04-05 12:09:57.729 +0000",1554466197.729059,0.523579,-1.285572,-0.899133,0.140681,0.959599,-0.243677,0.000000,0.000000,0.000000,-1,0.766999,1.107836,0.170610,0.193822,-0.013233,0.188807
"2019-04-05 12:09:57.749 +0000",1554466197.749047,0.542841,-1.282781,-0.893628,0.146731,0.958810,-0.243215,0.000000,0.000000,0.000000,-1,-0.349310,0.416559,0.122122,0.298703,0.259162,0.123830
"2019-04-05 12:09:57.769 +0000",1554466197.769066,0.576463,-1.296348,-0.857344,0.147720,0.962575,-0.227218,0.000000,0.000000,0.000000,-1,-1.246961,-0.304666,0.005832,0.268357,0.548274,0.072631
"2019-04-05 12:09:57.789 +0000",1554466197.789055,0.614444,-1.321063,-0.803061,0.142480,0.968978,-0.201941,0.000000,0.000000,0.000000,-1,-1.419160,-0.969047,-0.199435,0.053977,0.283097,0.001471
"2019-04-05 12:09:57.809 +0000",1554466197.809044,0.628445,-1.344191,-0.763689,0.132081,0.974435,-0.181745,0.000000,0.000000,0.000000,-1,-1.292408,-1.255156,-0.323228,0.017288,0.004203,-0.042315
"2019-04-05 12:09:57.829 +0000",1554466197.829064,0.654935,-1.368167,-0.714216,0.122580,0.979541,-0.159605,0.000000,0.000000,0.000000,-1,-1.215433,-0.964970,-0.290587,0.160684,-0.086078,-0.003054
"2019-04-05 12:09:57.849 +0000",1554466197.849053,0.675276,-1.384791,-0.677748,0.115604,0.982751,-0.144347,0.000000,0.000000,0.000000,-1,-0.819410,-0.622914,-0.199827,0.288723,-0.199578,-0.028001
"2019-04-05 12:09:57.869 +0000",1554466197.869072,0.711697,-1.394093,-0.635961,0.114808,0.984428,-0.133114,0.000000,0.000000,0.000000,-1,-0.458320,0.030725,0.128773,0.327178,-0.302788,-0.077900
"2019-04-05 12:09:57.889 +0000",1554466197.889063,0.750326,-1.389373,-0.603774,0.123031,0.983588,-0.131978,0.000000,0.000000,0.000000,-1,0.102191,0.508799,0.464978,0.212709,-0.192404,-0.131160
"2019-04-05 12:09:57.909 +0000",1554466197.909052,0.788084,-1.378805,-0.579237,0.135288,0.981626,-0.134563,0.000000,0.000000,0.000000,-1,0.215434,0.767069,0.518793,0.018918,-0.113233,-0.210957
"2019-04-05 12:09:57.929 +0000",1554466197.929071,0.816860,-1.369953,-0.564006,0.145432,0.979899,-0.136557,0.000000,0.000000,0.000000,-1,0.031737,0.570478,0.322311,-0.076050,-0.119898,-0.274790
"2019-04-05 12:09:57.949 +0000",1554466197.949074,0.829486,-1.366109,-0.552939,0.149922,0.979125,-0.137253,0.000000,0.000000,0.000000,-1,0.084615,-0.207813,0.169582,-0.125966,-0.151167,-0.186386
"2019-04-05 12:09:57.969 +0000",1554466197.969078,0.807632,-1.360957,-0.566005,0.150529,0.978064,-0.143980,0.000000,0.000000,0.000000,-1,0.208160,-0.482231,0.021284,-0.113237,-0.121207,-0.042971
"2019-04-05 12:09:57.989 +0000",1554466197.989067,0.782027,-1.358035,-0.585520,0.148807,0.977452,-0.149814,0.000000,0.000000,0.000000,-1,0.252010,-0.184607,-0.060163,-0.097462,-0.093586,0.005527
"2019-04-05 12:09:58.009 +0000",1554466198.009086,0.758354,-1.353542,-0.611054,0.148238,0.976493,-0.156481,0.000000,0.000000,0.000000,-1,0.262883,0.205560,-0.040970,-0.050857,-0.159217,0.048479
"2019-04-05 12:09:58.029 +0000",1554466198.029075,0.742755,-1.348439,-0.633682,0.149148,0.975380,-0.162443,0.000000,0.000000,0.000000,-1,0.379285,0.393657,-0.002296,-0.038415,-0.206093,0.047514
"2019-04-05 12:09:58.049 +0000",1554466198.049065,0.726233,-1.340294,-0.661056,0.151714,0.973552,-0.170820,0.000000,0.000000,0.000000,-1,0.440223,0.588180,0.057862,-0.005398,-0.122325,0.075681
"2019-04-05 12:09:58.069 +0000",1554466198.069084,0.712932,-1.331752,-0.687848,0.154863,0.971565,-0.179106,0.000000,0.000000,0.000000,-1,0.566118,0.655049,0.001206,0.111296,-0.017891,0.078246
"2019-04-05 12:09:58.089 +0000",1554466198.089073,0.687192,-1.323259,-0.727482,0.155431,0.969519,-0.189405,0.000000,0.000000,0.000000,-1,0.486019,0.646564,-0.158707,0.228099,-0.056769,0.054715
"2019-04-05 12:09:58.109 +0000",1554466198.109091,0.671953,-1.319136,-0.755815,0.155013,0.968500,-0.194878,0.000000,0.000000,0.000000,-1,0.327025,0.534003,-0.109572,0.296418,-0.172236,-0.090828
"2019-04-05 12:09:58.129 +0000",1554466198.129080,0.651256,-1.313643,-0.777018,0.154170,0.967118,-0.202273,0.000000,0.000000,0.000000,-1,0.273234,-0.425951,-0.045936,0.239614,-0.243744,-0.266401
"2019-04-05 12:09:58.149 +0000",1554466198.149069,0.614570,-1.308419,-0.794456,0.149558,0.965776,-0.211915,0.000000,0.000000,0.000000,-1,0.406236,-1.169173,-0.015202,0.159432,-0.206880,-0.044463
"2019-04-05 12:09:58.169 +0000",1554466198.169089,0.578187,-1.298481,-0.813436,0.146989,0.963151,-0.225242,0.000000,0.000000,0.000000,-1,0.465208,-0.671648,0.076743,0.124908,-0.187867,-0.023705
"2019-04-05 12:09:58.189 +0000",1554466198.189078,0.554888,-1.289794,-0.823782,0.146104,0.960778,-0.235708,0.000000,0.000000,0.000000,-1,0.429974,-0.777922,0.127751,0.030501,-0.153451,-0.131251
"2019-04-05 12:09:58.209 +0000",1554466198.209097,0.527922,-1.279153,-0.831995,0.144838,0.957773,-0.248380,0.000000,0.000000,0.000000,-1,0.446909,-0.976757,0.149576,-0.015825,-0.083780,-0.021441
"2019-04-05 12:09:58.229 +0000",1554466198.229084,0.502001,-1.268845,-0.843080,0.143095,0.954758,-0.260692,0.000000,0.000000,0.000000,-1,0.595334,-0.639874,0.074406,0.082857,0.097015,0.006572
"2019-04-05 12:09:58.249 +0000",1554466198.249074,0.465302,-1.254944,-0.866348,0.139376,0.950532,-0.277602,0.000000,0.000000,0.000000,-1,0.755171,-0.853726,-0.096216,0.217192,0.338439,-0.074204
"2019-04-05 12:09:58.269 +0000",1554466198.269102,0.411617,-1.242093,-0.900265,0.129156,0.946462,-0.295852,0.000000,0.000000,0.000000,-1,0.828533,-1.178082,-0.276553,0.319865,0.421199,-0.040299
"2019-04-05 12:09:58.289 +0000",1554466198.289091,0.350538,-1.228185,-0.938738,0.115365,0.941881,-0.315517,0.000000,0.000000,0.000000,-1,0.800687,-1.257830,-0.412235,0.413199,0.337462,0.037838
"2019-04-05 12:09:58.309 +0000",1554466198.309109,0.284241,-1.216343,-0.979871,0.097331,0.937836,-0.333150,0.000000,0.000000,0.000000,-1,0.758907,-1.486401,-0.528022,0.479681,0.203994,0.096426
"2019-04-05 12:09:58.329 +0000",1554466198.329098,0.216052,-1.206162,-1.018568,0.076448,0.934254,-0.348317,0.000000,0.000000,0.000000,-1,0.485670,-1.662693,-0.592989,0.488662,0.167263,0.156132
"2019-04-05 12:09:58.349 +0000",1554466198.349118,0.154142,-1.204113,-1.049377,0.055044,0.933522,-0.354270,0.000000,0.000000,0.000000,-1,0.026982,-1.655941,-0.471356,0.477945,0.238338,0.124686
"2019-04-05 12:09:58.369 +0000",1554466198.369107,0.095080,-1.209623,-1.070288,0.033548,0.935483,-0.351776,0.000000,0.000000,0.000000,-1,-0.421453,-2.323262,-0.509538,0.473089,0.423938,-0.175950
"2019-04-05 12:09:58.389 +0000",1554466198.389095,0.003310,-1.222773,-1.107692,0.001129,0.940049,-0.341038,0.000000,0.000000,0.000000,-1,-0.704649,-3.008839,-0.779709,0.400528,0.297164,-0.170879
"2019-04-05 12:09:58.409 +0000",1554466198.409114,-0.087251,-1.234864,-1.150239,-0.028726,0.944103,-0.328396,0.000000,0.000000,0.000000,-1,-0.566538,-2.090382,-0.725198,0.291665,-0.022305,0.113521
"2019-04-05 12:09:58.429 +0000",1554466198.429103,-0.141616,-1.236781,-1.183973,-0.046272,0.944734,-0.324557,0.000000,0.000000,0.000000,-1,0.142778,-0.562049,-0.415244,0.235039,-0.237779,0.211001
"2019-04-05 12:09:58.449 +0000",1554466198.449123,-0.133087,-1.222760,-1.181095,-0.045256,0.940044,-0.338036,0.000000,0.000000,0.000000,-1,0.997127,0.708931,0.030268,0.196821,-0.332210,0.219643
"2019-04-05 12:09:58.469 +0000",1554466198.469113,-0.083386,-1.196670,-1.156107,-0.030439,0.930827,-0.364189,0.000000,0.000000,0.000000,-1,1.478941,1.626155,0.431889,0.249403,-0.283519,0.159858
"2019-04-05 12:09:58.489 +0000",1554466198.489102,-0.007917,-1.168363,-1.116870,-0.003101,0.920111,-0.391646,0.000000,0.000000,0.000000,-1,1.354440,2.036676,0.665934,0.301059,-0.239965,0.149886
"2019-04-05 12:09:58.509 +0000",1554466198.509121,0.067781,-1.144781,-1.078547,0.027989,0.910620,-0.412296,0.000000,0.000000,0.000000,-1,1.037671,1.992318,0.890620,0.290035,-0.223349,0.218036
"2019-04-05 12:09:58.529 +0000",1554466198.529110,0.149084,-1.126046,-1.032400,0.063904,0.902718,-0.425460,0.000000,0.000000,0.000000,-1,0.680289,1.912879,1.005386,0.245316,-0.150063,0.263350
"2019-04-05 12:09:58.549 +0000",1554466198.549130,0.221873,-1.115975,-0.993219,0.096672,0.898340,-0.428533,0.000000,0.000000,0.000000,-1,0.112624,1.852673,0.877371,0.146462,-0.218820,0.245076
"2019-04-05 12:09:58.569 +0000",1554466198.569116,0.296788,-1.117040,-0.952751,0.128194,0.898807,-0.419180,0.000000,0.000000,0.000000,-1,-0.528641,1.913697,0.657016,0.069209,-0.221210,0.203238
"2019-04-05 12:09:58.589 +0000",1554466198.589137,0.361299,-1.133473,-0.919198,0.149708,0.905888,-0.396173,0.000000,0.000000,0.000000,-1,-1.302528,1.468728,0.279763,-0.012425,-0.115880,0.019433
"2019-04-05 12:09:58.609 +0000",1554466198.609126,0.404325,-1.162326,-0.886015,0.156260,0.917729,-0.365178,0.000000,0.000000,0.000000,-1,-1.692873,0.017736,-0.150213,-0.034586,-0.079839,-0.117519
"2019-04-05 12:09:58.629 +0000",1554466198.629114,0.408440,-1.195998,-0.867829,0.145400,0.930582,-0.335970,0.000000,0.000000,0.000000,-1,-1.669964,-0.817977,-0.440693,-0.039077,-0.222070,-0.028852
"2019-04-05 12:09:58.649 +0000",1554466198.649133,0.415865,-1.229399,-0.850300,0.135254,0.942288,-0.306267,0.000000,0.000000,0.000000,-1,-1.676006,-0.108860,-0.430187,0.037582,-0.186993,0.047615
"2019-04-05 12:09:58.669 +0000",1554466198.669122,0.452603,-1.261529,-0.824592,0.133099,0.952557,-0.273714,0.000000,0.000000,0.000000,-1,-1.555859,0.982945,-0.204417,0.190449,-0.133724,-0.122343
"2019-04-05 12:09:58.689 +0000",1554466198.689142,0.505600,-1.281866,-0.788875,0.137999,0.958549,-0.249277,0.000000,0.000000,0.000000,-1,-0.859272,0.666714,-0.039313,0.159410,-0.077507,-0.524161
"2019-04-05 12:09:58.709 +0000",1554466198.709131,0.519590,-1.289334,-0.781565,0.137913,0.960650,-0.241100,0.000000,0.000000,0.000000,-1,-0.134021,0.321694,-0.127263,0.030315,-0.222812,-0.220356
"2019-04-05 12:09:58.729 +0000",1554466198.729120,0.520233,-1.287585,-0.793406,0.138903,0.960163,-0.242469,0.000000,0.000000,0.000000,-1,0.238512,0.758353,-0.167446,0.022703,-0.285267,-0.011789
"2019-04-05 12:09:58.749 +0000",1554466198.749138,0.520468,-1.284055,-0.812207,0.140645,0.959171,-0.245375,0.000000,0.000000,0.000000,-1,0.258896,0.953963,-0.136006,0.104091,-0.304355,0.036895
"2019-04-05 12:09:58.769 +0000",1554466198.769127,0.528858,-1.281858,-0.820048,0.143762,0.958547,-0.246006,0.000000,0.000000,0.000000,-1,0.021911,0.625643,-0.091559,0.152930,-0.222387,0.023640
"2019-04-05 12:09:58.789 +0000",1554466198.789147,0.529529,-1.285745,-0.825016,0.142044,0.959647,-0.242692,0.000000,0.000000,0.000000,-1,-0.239811,0.051720,-0.198200,0.243027,-0.092353,-0.025924
"2019-04-05 12:09:58.809 +0000",1554466198.809136,0.531313,-1.293803,-0.816738,0.138554,0.961882,-0.235764,0.000000,0.000000,0.000000,-1,-0.567600,-0.526366,-0.144634,0.262065,-0.096174,-0.176071
"2019-04-05 12:09:58.829 +0000",1554466198.829125,0.531799,-1.306945,-0.799664,0.132246,0.965393,-0.224780,0.000000,0.000000,0.000000,-1,-0.706491,-0.914308,-0.152862,0.193193,-0.029922,-0.257627
"2019-04-05 12:09:58.849 +0000",1554466198.849143,0.527460,-1.318758,-0.789763,0.125521,0.968406,-0.215482,0.000000,0.000000,0.000000,-1,-0.533503,-0.454138,-0.301380,0.282820,0.122246,-0.156710
"2019-04-05 12:09:58.869 +0000",1554466198.869133,0.522495,-1.325559,-0.795299,0.121160,0.970080,-0.210391,0.000000,0.000000,0.000000,-1,0.002459,0.197197,-0.159926,0.496867,0.166822,-0.235410
"2019-04-05 12:09:58.889 +0000",1554466198.889153,0.503996,-1.312214,-0.818327,0.123489,0.966753,-0.223913,0.000000,0.000000,0.000000,-1,1.033182,0.216687,0.086455,0.540391,0.189466,-0.088526
"2019-04-05 12:09:58.909 +0000",1554466198.909141,0.480995,-1.287101,-0.852033,0.129501,0.960028,-0.248144,0.000000,0.000000,0.000000,-1,1.445299,0.629988,0.289424,0.399506,0.189737,0.164389
"2019-04-05 12:09:58.929 +0000",1554466198.929159,0.481228,-1.255153,-0.869267,0.143686,0.950597,-0.275170,0.000000,0.000000,0.000000,-1,1.458335,0.903253,0.484366,0.307577,0.196376,0.258919
"2019-04-05 12:09:58.949 +0000",1554466198.949149,0.496527,-1.227966,-0.872759,0.160134,0.941807,-0.295559,0.000000,0.000000,0.000000,-1,1.013416,0.842983,0.470258,0.145164,0.409389,0.285870
"2019-04-05 12:09:58.969 +0000",1554466198.969138,0.510450,-1.215548,-0.869153,0.169935,0.937560,-0.303482,0.000000,0.000000,0.000000,-1,0.147818,0.286503,0.283920,0.102068,0.450898,0.207779
"2019-04-05 12:09:58.989 +0000",1554466198.989158,0.534087,-1.222334,-0.840208,0.173818,0.939899,-0.293899,0.000000,0.000000,0.000000,-1,-0.988891,-0.508985,0.079389,0.071162,0.367413,0.165023
"2019-04-05 12:09:59.009 +0000",1554466199.009146,0.565619,-1.249350,-0.788121,0.169323,0.948780,-0.266732,0.000000,0.000000,0.000000,-1,-1.923779,-1.050506,-0.009644,0.111683,0.407147,0.099587
"2019-04-05 12:09:59.029 +0000",1554466199.029166,0.614562,-1.285448,-0.710395,0.162307,0.959564,-0.229985,0.000000,0.000000,0.000000,-1,-2.210039,-1.488363,-0.253514,0.125489,0.301179,-0.104778
"2019-04-05 12:09:59.049 +0000",1554466199.049155,0.638943,-1.319653,-0.644186,0.148198,0.968629,-0.199485,0.000000,0.000000,0.000000,-1,-1.654565,-2.172384,-0.295063,0.139186,0.023559,-0.140893
"2019-04-05 12:09:59.069 +0000",1554466199.069144,0.659072,-1.339287,-0.587612,0.140507,0.973321,-0.181389,0.000000,0.000000,0.000000,-1,-0.964836,-1.309584,-0.087209,0.204570,-0.087869,0.000206
"2019-04-05 12:09:59.089 +0000",1554466199.089162,0.689031,-1.344676,-0.550960,0.142540,0.974544,-0.173047,0.000000,0.000000,0.000000,-1,-0.167953,0.297378,0.313471,0.146293,-0.223155,0.031964
"2019-04-05 12:09:59.109 +0000",1554466199.109152,0.737351,-1.333619,-0.520564,0.157968,0.972005,-0.173927,0.000000,0.000000,0.000000,-1,0.243359,1.175284,0.576414,0.064399,-0.123204,-0.077721
"2019-04-05 12:09:59.129 +0000",1554466199.129171,0.784622,-1.323703,-0.495794,0.172812,0.969627,-0.173080,0.000000,0.000000,0.000000,-1,0.058689,1.029758,0.516668,-0.071905,-0.081169,-0.164749
"2019-04-05 12:09:59.149 +0000",1554466199.149160,0.826211,-1.317103,-0.464047,0.184560,0.967992,-0.170078,0.000000,0.000000,0.000000,-1,-0.168006,0.177247,0.328080,-0.176946,-0.095678,-0.176693
"2019-04-05 12:09:59.169 +0000",1554466199.169178,0.838597,-1.316857,-0.444009,0.186829,0.967930,-0.167938,0.000000,0.000000,0.000000,-1,-0.163175,-0.586148,0.082659,-0.190064,-0.126332,-0.103821
"2019-04-05 12:09:59.189 +0000",1554466199.189168,0.833215,-1.316676,-0.436601,0.186054,0.967885,-0.169060,0.000000,0.000000,0.000000,-1,-0.055485,-0.583071,-0.045630,-0.138004,-0.202733,-0.006126
"2019-04-05 12:09:59.209 +0000",1554466199.209157,0.823933,-1.317447,-0.440179,0.183928,0.968078,-0.170272,0.000000,0.000000,0.000000,-1,0.030061,-0.097305,-0.043414,-0.021712,-0.225067,0.010253
"2019-04-05 12:09:59.229 +0000",1554466199.229176,0.824526,-1.314210,-0.442145,0.186329,0.967262,-0.172290,0.000000,0.000000,0.000000,-1,0.148681,0.191805,0.064896,0.027737,-0.216407,0.004596
"2019-04-05 12:09:59.249 +0000",1554466199.249165,0.820826,-1.308139,-0.449653,0.189984,0.965703,-0.176978,0.000000,0.000000,0.000000,-1,0.356768,0.152348,0.200913,-0.012585,-0.112020,0.033972
"2019-04-05 12:09:59.269 +0000",1554466199.269184,0.814330,-1.297968,-0.460568,0.195964,0.963013,-0.184941,0.000000,0.000000,0.000000,-1,0.450681,0.233070,0.178515,-0.078197,-0.087753,0.067814
"2019-04-05 12:09:59.289 +0000",1554466199.289174,0.799766,-1.289425,-0.480814,0.199143,0.960675,-0.193501,0.000000,0.000000,0.000000,-1,0.515705,0.236182,0.065262,-0.080536,-0.101728,0.100377
"2019-04-05 12:09:59.309 +0000",1554466199.309162,0.779201,-1.281645,-0.505548,0.200368,0.958486,-0.202866,0.000000,0.000000,0.000000,-1,0.454736,0.080971,-0.094031,-0.025792,-0.130773,0.109223
"2019-04-05 12:09:59.329 +0000",1554466199.329182,0.755066,-1.279727,-0.529422,0.196673,0.957938,-0.208981,0.000000,0.000000,0.000000,-1,0.217708,-0.162341,-0.220091,0.083295,-0.203482,0.115109
"2019-04-05 12:09:59.349 +0000",1554466199.349170,0.738216,-1.280718,-0.540682,0.192485,0.958221,-0.211563,0.000000,0.000000,0.000000,-1,-0.073644,-0.376872,-0.202954,0.155537,-0.232544,0.032852
"2019-04-05 12:09:59.369 +0000",1554466199.369190,0.728179,-1.287838,-0.536596,0.185807,0.960234,-0.208387,0.000000,0.000000,0.000000,-1,-0.393015,-1.122956,-0.214966,0.142776,-0.148252,-0.477999
"2019-04-05 12:09:59.389 +0000",1554466199.389178,0.681270,-1.293877,-0.541460,0.172176,0.961902,-0.212362,0.000000,0.000000,0.000000,-1,-0.048110,-2.501070,-0.355064,0.054540,-0.079151,-0.262812
"2019-04-05 12:09:59.409 +0000",1554466199.409198,0.613034,-1.292953,-0.570206,0.157807,0.961649,-0.224334,0.000000,0.000000,0.000000,-1,0.460289,-1.488251,-0.223223,-0.121048,-0.129328,0.095977
"2019-04-05 12:09:59.429 +0000",1554466199.429186,0.576741,-1.281618,-0.600882,0.155497,0.958479,-0.239034,0.000000,0.000000,0.000000,-1,0.795168,0.234883,-0.044216,-0.122507,-0.109693,0.078099
"2019-04-05 12:09:59.449 +0000",1554466199.449175,0.554603,-1.266632,-0.634738,0.157714,0.954098,-0.254601,0.000000,0.000000,0.000000,-1,0.930819,0.512270,-0.002138,-0.099243,-0.149730,0.011727
"2019-04-05 12:09:59.469 +0000",1554466199.469194,0.535773,-1.250817,-0.661463,0.160576,0.949242,-0.270468,0.000000,0.000000,0.000000,-1,0.821834,0.192345,-0.013446,-0.065835,-0.077278,0.064886
"2019-04-05 12:09:59.489 +0000",1554466199.489183,0.504897,-1.237398,-0.693269,0.158298,0.944936,-0.286420,0.000000,0.000000,0.000000,-1,0.868503,-0.185144,-0.181064,-0.030796,0.284511,0.023053
"2019-04-05 12:09:59.509 +0000",1554466199.509203,0.454464,-1.224292,-0.736956,0.149082,0.940566,-0.305137,0.000000,0.000000,0.000000,-1,0.926740,-0.689207,-0.559281,0.163891,0.592363,-0.181221
"2019-04-05 12:09:59.529 +0000",1554466199.529192,0.376762,-1.209566,-0.801146,0.130028,0.935463,-0.328634,0.000000,0.000000,0.000000,-1,1.277556,-0.842614,-0.770715,0.428856,0.478173,-0.111628
"2019-04-05 12:09:59.549 +0000",1554466199.549212,0.314264,-1.184632,-0.861738,0.116424,0.926361,-0.358189,0.000000,0.000000,0.000000,-1,1.663186,0.018267,-0.646488,0.478592,0.225418,0.119053
"2019-04-05 12:09:59.569 +0000",1554466199.569201,0.273991,-1.155531,-0.913137,0.109159,0.915009,-0.388382,0.000000,0.000000,0.000000,-1,1.610122,0.431902,-0.501166,0.460681,0.135024,0.178924
"2019-04-05 12:09:59.589 +0000",1554466199.589189,0.247748,-1.134929,-0.946086,0.103531,0.906504,-0.409304,0.000000,0.000000,0.000000,-1,0.829955,-0.142671,-0.506335,0.454391,0.199865,0.051547
"2019-04-05 12:09:59.609 +0000",1554466199.609208,0.207958,-1.134376,-0.970174,0.087271,0.906270,-0.413589,0.000000,0.000000,0.000000,-1,-0.258865,-1.409105,-0.478569,0.472330,0.478358,-0.154343
"2019-04-05 12:09:59.629 +0000",1554466199.629197,0.158896,-1.150011,-0.981596,0.064632,0.912768,-0.403330,0.000000,0.000000,0.000000,-1,-0.928211,-2.167703,-0.565595,0.383472,0.492520,-0.111563
"2019-04-05 12:09:59.649 +0000",1554466199.649217,0.100810,-1.169330,-1.003522,0.039326,0.920489,-0.388782,0.000000,0.000000,0.000000,-1,-0.745500,-1.644770,-0.532550,0.130870,0.157590,-0.014858
"2019-04-05 12:09:59.669 +0000",1554466199.669205,0.070842,-1.174884,-1.015928,0.027297,0.922645,-0.384681,0.000000,0.000000,0.000000,-1,0.043571,-0.520516,-0.339139,0.061783,-0.030616,0.043739
"2019-04-05 12:09:59.689 +0000",1554466199.689194,0.065824,-1.166905,-1.026707,0.025850,0.919539,-0.392146,0.000000,0.000000,0.000000,-1,0.567036,0.623089,-0.077849,0.108519,-0.105726,0.010646
"2019-04-05 12:09:59.709 +0000",1554466199.709213,0.091898,-1.154694,-1.018822,0.037093,0.914671,-0.402491,0.000000,0.000000,0.000000,-1,0.566211,0.911248,0.118232,0.178850,-0.122572,-0.017385
"2019-04-05 12:09:59.729 +0000",1554466199.729203,0.117869,-1.144810,-1.007975,0.048593,0.910632,-0.410350,0.000000,0.000000,0.000000,-1,0.419016,0.721121,0.373082,0.222571,-0.129260,0.081966
"2019-04-05 12:09:59.749 +0000",1554466199.749222,0.159248,-1.135689,-0.978143,0.066841,0.906825,-0.416172,0.000000,0.000000,0.000000,-1,0.340145,0.642566,0.606744,0.203087,-0.131480,0.172428
"2019-04-05 12:09:59.769 +0000",1554466199.769211,0.200024,-1.127689,-0.950020,0.085189,0.903424,-0.420198,0.000000,0.000000,0.000000,-1,0.252813,0.876538,0.673747,0.137849,-0.178875,0.248033
"2019-04-05 12:09:59.789 +0000",1554466199.789229,0.254776,-1.120305,-0.915121,0.109735,0.900233,-0.421351,0.000000,0.000000,0.000000,-1,0.172997,1.252952,0.696306,0.066352,-0.256190,0.305109
"2019-04-05 12:09:59.809 +0000",1554466199.809219,0.310797,-1.113381,-0.886259,0.135058,0.897197,-0.420471,0.000000,0.000000,0.000000,-1,0.139068,1.648469,0.720949,0.016310,-0.371440,0.308807
"2019-04-05 12:09:59.829 +0000",1554466199.829207,0.378785,-1.107072,-0.852416,0.165401,0.894393,-0.415574,0.000000,0.000000,0.000000,-1,-0.014425,1.933501,0.707140,-0.013896,-0.396422,0.271028
"2019-04-05 12:09:59.849 +0000",1554466199.849227,0.441229,-1.104845,-0.824746,0.191862,0.893395,-0.406243,0.000000,0.000000,0.000000,-1,-0.242904,1.763528,0.537511,-0.018796,-0.276055,0.186791
"2019-04-05 12:09:59.869 +0000",1554466199.869216,0.492132,-1.111107,-0.797209,0.209635,0.896191,-0.391016,0.000000,0.000000,0.000000,-1,-0.773734,0.912268,0.188471,-0.050929,-0.131481,0.064463
"2019-04-05 12:09:59.889 +0000",1554466199.889235,0.519006,-1.131324,-0.772485,0.211035,0.904976,-0.369432,0.000000,0.000000,0.000000,-1,-1.349448,-0.121809,-0.126823,-0.083228,-0.157906,0.026460
"2019-04-05 12:09:59.909 +0000",1554466199.909224,0.544279,-1.160821,-0.739369,0.206387,0.917131,-0.340989,0.000000,0.000000,0.000000,-1,-1.758171,-0.214030,-0.263819,-0.029446,-0.215974,0.043030
"2019-04-05 12:09:59.929 +0000",1554466199.929213,0.585766,-1.194647,-0.697567,0.203079,0.930086,-0.306100,0.000000,0.000000,0.000000,-1,-1.846397,0.342078,-0.170315,0.071198,-0.171373,-0.104591
"2019-04-05 12:09:59.949 +0000",1554466199.949232,0.627162,-1.217807,-0.654684,0.202874,0.938344,-0.279913,0.000000,0.000000,0.000000,-1,-1.016667,-0.291094,-0.119499,0.013358,-0.036335,-0.469004
"2019-04-05 12:09:59.969 +0000",1554466199.969221,0.627100,-1.227684,-0.647121,0.197408,0.941712,-0.272406,0.000000,0.000000,0.000000,-1,-0.219730,-0.206666,-0.223500,-0.142400,-0.098344,-0.089898
"2019-04-05 12:09:59.989 +0000",1554466199.989241,0.623759,-1.230236,-0.657422,0.195093,0.942567,-0.271114,0.000000,0.000000,0.000000,-1,0.047355,0.602161,-0.293367,-0.092874,-0.107042,0.098705
"2019-04-05 12:10:00.009 +0000",1554466200.009231,0.630520,-1.234570,-0.669901,0.194511,0.944007,-0.266486,0.000000,0.000000,0.000000,-1,-0.162591,1.045647,-0.285271,0.037484,-0.151374,0.083502
"2019-04-05 12:10:00.029 +0000",1554466200.029249,0.652364,-1.243014,-0.665643,0.195439,0.946759,-0.255830,0.000000,0.000000,0.000000,-1,-0.526560,0.651511,-0.227915,0.106243,-0.202664,-0.045043
"2019-04-05 12:10:00.049 +0000",1554466200.049237,0.666246,-1.256955,-0.649247,0.190795,0.951155,-0.242692,0.000000,0.000000,0.000000,-1,-0.782153,-0.575154,-0.227522,0.172898,-0.111982,-0.219436
"2019-04-05 12:10:00.069 +0000",1554466200.069226,0.665735,-1.270746,-0.627865,0.182551,0.955322,-0.232449,0.000000,0.000000,0.000000,-1,-0.731215,-1.120579,-0.224871,0.137335,0.025437,-0.124225
"2019-04-05 12:10:00.089 +0000",1554466200.089246,0.674471,-1.285364,-0.606870,0.175834,0.959540,-0.219914,0.000000,0.000000,0.000000,-1,-0.773423,-0.190304,-0.222212,0.140130,0.196237,-0.100459
"2019-04-05 12:10:00.109 +0000",1554466200.109234,0.686938,-1.296079,-0.594055,0.172031,0.962502,-0.209743,0.000000,0.000000,0.000000,-1,-0.344482,-0.010970,-0.277104,0.315228,0.326286,-0.277700
"2019-04-05 12:10:00.129 +0000",1554466200.129254,0.666161,-1.296569,-0.614441,0.167345,0.962635,-0.212901,0.000000,0.000000,0.000000,-1,0.493038,-0.056221,-0.168127,0.403120,0.181713,-0.151388
"2019-04-05 12:10:00.149 +0000",1554466200.149242,0.630219,-1.276565,-0.656006,0.170902,0.957025,-0.234289,0.000000,0.000000,0.000000,-1,1.490966,0.390705,0.205427,0.242687,0.019034,0.175863
"2019-04-05 12:10:00.169 +0000",1554466200.169262,0.601513,-1.241962,-0.703574,0.182746,0.946419,-0.266254,0.000000,0.000000,0.000000,-1,1.933131,1.082543,0.482728,0.076577,0.008140,0.314120
"2019-04-05 12:10:00.189 +0000",1554466200.189250,0.598108,-1.206277,-0.735784,0.200736,0.934295,-0.294609,0.000000,0.000000,0.000000,-1,1.590799,1.394285,0.433134,0.003610,0.036393,0.306068
"2019-04-05 12:10:00.209 +0000",1554466200.209240,0.605773,-1.186643,-0.753641,0.213394,0.927116,-0.308085,0.000000,0.000000,0.000000,-1,0.552392,1.021822,0.185798,0.060196,0.202355,0.211619
"2019-04-05 12:10:00.229 +0000",1554466200.229259,0.629819,-1.189999,-0.739492,0.218905,0.928369,-0.300348,0.000000,0.000000,0.000000,-1,-0.790247,0.206281,-0.049272,0.134931,0.302680,0.202677
"2019-04-05 12:10:00.249 +0000",1554466200.249247,0.666028,-1.214172,-0.696865,0.215703,0.937081,-0.274498,0.000000,0.000000,0.000000,-1,-1.741139,-0.334165,-0.140401,0.140574,0.398445,0.211235
"2019-04-05 12:10:00.269 +0000",1554466200.269246,0.734619,-1.247496,-0.617683,0.212951,0.948192,-0.235755,0.000000,0.000000,0.000000,-1,-2.334313,-0.291206,-0.180569,0.123154,0.598271,0.007499
"2019-04-05 12:10:00.289 +0000",1554466200.289235,0.817450,-1.286454,-0.514632,0.204613,0.959846,-0.191900,0.000000,0.000000,0.000000,-1,-2.402195,-1.446827,-0.363947,-0.033821,0.589379,-0.621256
"2019-04-05 12:10:00.309 +0000",1554466200.309223,0.826291,-1.315901,-0.448061,0.185429,0.967690,-0.170851,0.000000,0.000000,0.000000,-1,-1.144238,-3.062736,-0.634806,0.085659,0.129158,-0.170534
"2019-04-05 12:10:00.329 +0000",1554466200.329243,0.794821,-1.327454,-0.447795,0.171970,0.970538,-0.168759,0.000000,0.000000,0.000000,-1,-0.000106,-0.425856,-0.227797,0.203915,-0.141742,0.153027
"2019-04-05 12:10:00.349 +0000",1554466200.349232,0.798986,-1.316211,-0.465540,0.180480,0.967768,-0.175641,0.000000,0.000000,0.000000,-1,0.814179,1.660613,0.358779,0.203248,-0.350809,0.123044
"2019-04-05 12:10:00.369 +0000",1554466200.369251,0.814722,-1.294411,-0.488825,0.198526,0.962048,-0.187211,0.000000,0.000000,0.000000,-1,0.953147,1.894478,0.677116,0.158454,-0.284634,0.034883
"2019-04-05 12:10:00.389 +0000",1554466200.389240,0.853341,-1.273793,-0.481788,0.220507,0.956218,-0.192409,0.000000,0.000000,0.000000,-1,0.346911,1.339985,0.716432,0.029218,-0.065349,-0.018025
"2019-04-05 12:10:00.409 +0000",1554466200.409261,0.899988,-1.266165,-0.451702,0.234947,0.953957,-0.186447,0.000000,0.000000,0.000000,-1,-0.342747,0.641965,0.485556,-0.187553,0.061088,-0.060639
"2019-04-05 12:10:00.429 +0000",1554466200.429249,0.949953,-1.265815,-0.406040,0.244236,0.953852,-0.174674,0.000000,0.000000,0.000000,-1,-0.585299,0.126468,0.252045,-0.353123,-0.074946,-0.059762
"2019-04-05 12:10:00.449 +0000",1554466200.449238,0.974032,-1.268911,-0.378706,0.245927,0.954778,-0.167082,0.000000,0.000000,0.000000,-1,-0.282604,-0.206583,-0.003529,-0.350755,-0.208287,-0.027284
"2019-04-05 12:10:00.469 +0000",1554466200.469257,0.967156,-1.271187,-0.380377,0.242983,0.955452,-0.167535,0.000000,0.000000,0.000000,-1,0.033030,-0.268545,-0.259452,-0.145022,-0.229805,-0.001288
"2019-04-05 12:10:00.489 +0000",1554466200.489246,0.953230,-1.275155,-0.392656,0.237533,0.956616,-0.168706,0.000000,0.000000,0.000000,-1,0.025702,-0.011255,-0.236317,0.039185,-0.291500,0.005574
"2019-04-05 12:10:00.509 +0000",1554466200.509265,0.949037,-1.273701,-0.397568,0.237953,0.956191,-0.170510,0.000000,0.000000,0.000000,-1,0.158153,0.015298,0.057987,0.118614,-0.266692,0.020531
"2019-04-05 12:10:00.529 +0000",1554466200.529253,0.941417,-1.267883,-0.407588,0.241141,0.954471,-0.175590,0.000000,0.000000,0.000000,-1,0.352474,0.170407,0.207376,0.054590,-0.189716,0.019065
"2019-04-05 12:10:00.549 +0000",1554466200.549273,0.935714,-1.257428,-0.419028,0.248156,0.951301,-0.182873,0.000000,0.000000,0.000000,-1,0.502970,0.265987,0.247853,-0.056185,-0.114539,-0.011921
"2019-04-05 12:10:00.569 +0000",1554466200.569262,0.916286,-1.247917,-0.442863,0.251723,0.948326,-0.193159,0.000000,0.000000,0.000000,-1,0.605216,0.066004,0.100876,-0.128142,-0.110542,-0.058917
"2019-04-05 12:10:00.589 +0000",1554466200.589250,0.890262,-1.239822,-0.467866,0.252570,0.945726,-0.204467,0.000000,0.000000,0.000000,-1,0.524977,-0.248657,-0.033203,-0.156791,-0.149187,-0.046281
"2019-04-05 12:10:00.609 +0000",1554466200.609271,0.855040,-1.234361,-0.496204,0.249107,0.943937,-0.216620,0.000000,0.000000,0.000000,-1,0.552547,-0.505975,-0.111875,-0.151573,-0.148634,0.060447
"2019-04-05 12:10:00.629 +0000",1554466200.629260,0.816231,-1.227603,-0.525292,0.245157,0.941685,-0.230487,0.000000,0.000000,0.000000,-1,0.573830,-0.594237,-0.133508,-0.148675,-0.121540,0.090747
"2019-04-05 12:10:00.649 +0000",1554466200.649277,0.774283,-1.223135,-0.557097,0.238215,0.940172,-0.243570,0.000000,0.000000,0.000000,-1,0.536404,-0.619760,-0.278624,-0.087320,0.060530,0.069375
"2019-04-05 12:10:00.669 +0000",1554466200.669267,0.723384,-1.218297,-0.596487,0.228522,0.938513,-0.258781,0.000000,0.000000,0.000000,-1,0.710148,-0.778335,-0.429916,0.004235,0.292063,-0.003106
"2019-04-05 12:10:00.689 +0000",1554466200.689256,0.650479,-1.213551,-0.651734,0.211761,0.936864,-0.278281,0.000000,0.000000,0.000000,-1,0.812166,-1.303669,-0.707980,0.236145,0.632564,-0.211663
"2019-04-05 12:10:00.709 +0000",1554466200.709275,0.561400,-1.209585,-0.713493,0.188142,0.935469,-0.299159,0.000000,0.000000,0.000000,-1,0.751115,-1.605597,-0.885819,0.440124,0.530046,-0.093816
"2019-04-05 12:10:00.729 +0000",1554466200.729264,0.478291,-1.203631,-0.777150,0.165218,0.933349,-0.318684,0.000000,0.000000,0.000000,-1,0.895564,-0.871053,-0.776338,0.437885,0.191361,0.147495
"2019-04-05 12:10:00.749 +0000",1554466200.749283,0.420700,-1.190382,-0.828471,0.151639,0.928511,-0.338925,0.000000,0.000000,0.000000,-1,1.017547,-0.374604,-0.550079,0.461123,0.093706,0.192150
"2019-04-05 12:10:00.769 +0000",1554466200.769272,0.374744,-1.178404,-0.868718,0.139970,0.923997,-0.355858,0.000000,0.000000,0.000000,-1,0.686797,-0.555056,-0.414309,0.450271,0.134109,0.103996
"2019-04-05 12:10:00.789 +0000",1554466200.789291,0.339353,-1.173327,-0.888115,0.128851,0.922043,-0.365007,0.000000,0.000000,0.000000,-1,0.200077,-1.119189,-0.309126,0.348291,0.230819,0.050707
"2019-04-05 12:10:00.809 +0000",1554466200.809281,0.296478,-1.174300,-0.904979,0.112825,0.922420,-0.369336,0.000000,0.000000,0.000000,-1,0.007870,-1.443306,-0.328796,0.236967,0.207738,0.023084
"2019-04-05 12:10:00.829 +0000",1554466200.829269,0.262411,-1.174864,-0.916008,0.100045,0.922637,-0.372462,0.000000,0.000000,0.000000,-1,0.076406,-1.004264,-0.255175,0.162391,0.153565,0.037333
"2019-04-05 12:10:00.849 +0000",1554466200.849288,0.239804,-1.171499,-0.929313,0.092337,0.921334,-0.377642,0.000000,0.000000,0.000000,-1,0.321159,-0.210265,-0.166031,0.153604,0.087867,-0.037946
"2019-04-05 12:10:00.869 +0000",1554466200.869278,0.239339,-1.162839,-0.934953,0.094049,0.917933,-0.385422,0.000000,0.000000,0.000000,-1,0.517834,0.404112,-0.035656,0.208349,-0.053339,-0.076690
"2019-04-05 12:10:00.889 +0000",1554466200.889297,0.248840,-1.150759,-0.938888,0.100431,0.913074,-0.395230,0.000000,0.000000,0.000000,-1,0.654675,0.780406,0.153956,0.203097,-0.221896,0.057751
"2019-04-05 12:10:00.909 +0000",1554466200.909285,0.276515,-1.134572,-0.928337,0.115349,0.906353,-0.406467,0.000000,0.000000,0.000000,-1,0.751957,0.893097,0.437905,0.173835,-0.257275,0.119296
"2019-04-05 12:10:00.929 +0000",1554466200.929305,0.304310,-1.117929,-0.916398,0.131103,0.899196,-0.417439,0.000000,0.000000,0.000000,-1,0.676209,0.812375,0.515753,0.163056,-0.150325,0.139347
"2019-04-05 12:10:00.949 +0000",1554466200.949295,0.337031,-1.103654,-0.896722,0.148919,0.892859,-0.424997,0.000000,0.000000,0.000000,-1,0.442518,0.653096,0.580933,0.098243,-0.067328,0.144755
"2019-04-05 12:10:00.969 +0000",1554466200.969284,0.365482,-1.097021,-0.877092,0.163062,0.889852,-0.426111,0.000000,0.000000,0.000000,-1,-0.035566,0.498210,0.477000,-0.016379,-0.108633,0.130121
"2019-04-05 12:10:00.989 +0000",1554466200.989302,0.395797,-1.100200,-0.853388,0.174811,0.891298,-0.418361,0.000000,0.000000,0.000000,-1,-0.507253,0.385832,0.321949,-0.006049,-0.133379,0.110317
"2019-04-05 12:10:01.009 +0000",1554466201.009291,0.423937,-1.110265,-0.829357,0.182813,0.895816,-0.405079,0.000000,0.000000,0.000000,-1,-0.748419,0.316899,0.282816,0.011889,-0.153812,0.090641
"2019-04-05 12:10:01.029 +0000",1554466201.029310,0.460536,-1.121811,-0.798494,0.192903,0.900888,-0.388826,0.000000,0.000000,0.000000,-1,-0.824056,0.503013,0.317647,0.014510,-0.239221,0.091402
"2019-04-05 12:10:01.049 +0000",1554466201.049299,0.504174,-1.132088,-0.765316,0.205198,0.905301,-0.371914,0.000000,0.000000,0.000000,-1,-0.749173,0.779403,0.445229,-0.000822,-0.249692,0.081234
"2019-04-05 12:10:01.069 +0000",1554466201.069288,0.557477,-1.138636,-0.725677,0.221580,0.908063,-0.355416,0.000000,0.000000,0.000000,-1,-0.689374,0.846347,0.489032,-0.036903,-0.168042,0.016655
"2019-04-05 12:10:01.089 +0000",1554466201.089307,0.605465,-1.146691,-0.690406,0.234204,0.911407,-0.338352,0.000000,0.000000,0.000000,-1,-0.794058,0.764518,0.306562,-0.100537,-0.079163,-0.005642
"2019-04-05 12:10:01.109 +0000",1554466201.109296,0.653457,-1.159085,-0.655115,0.243280,0.916437,-0.317733,0.000000,0.000000,0.000000,-1,-0.990470,0.781617,0.072282,-0.133936,-0.059321,0.013992
"2019-04-05 12:10:01.129 +0000",1554466201.129315,0.698994,-1.175533,-0.622672,0.247758,0.922895,-0.294749,0.000000,0.000000,0.000000,-1,-1.042822,0.753984,-0.051464,-0.088303,-0.077955,-0.030171
"2019-04-05 12:10:01.149 +0000",1554466201.149304,0.741496,-1.190770,-0.589851,0.250530,0.928655,-0.273553,0.000000,0.000000,0.000000,-1,-0.932031,0.484913,-0.110079,-0.020076,-0.072729,-0.108497
"2019-04-05 12:10:01.169 +0000",1554466201.169323,0.772405,-1.204665,-0.564840,0.249835,0.933719,-0.256413,0.000000,0.000000,0.000000,-1,-0.742222,0.358244,-0.168480,-0.013018,-0.122242,-0.084942
"2019-04-05 12:10:01.189 +0000",1554466201.189312,0.798790,-1.215131,-0.544949,0.249497,0.937415,-0.242902,0.000000,0.000000,0.000000,-1,-0.549101,0.379366,-0.152848,-0.012665,-0.174308,-0.066912
"2019-04-05 12:10:01.209 +0000",1554466201.209301,0.818723,-1.223138,-0.530328,0.248799,0.940173,-0.232745,0.000000,0.000000,0.000000,-1,-0.403015,0.242110,-0.105532,-0.001820,-0.156314,-0.090543
"2019-04-05 12:10:01.229 +0000",1554466201.229321,0.831400,-1.228713,-0.519997,0.247852,0.942058,-0.226037,0.000000,0.000000,0.000000,-1,-0.279356,0.101670,-0.158486,-0.041782,-0.109279,-0.057181
"2019-04-05 12:10:01.249 +0000",1554466201.249309,0.839060,-1.235845,-0.515134,0.244571,0.944426,-0.219637,0.000000,0.000000,0.000000,-1,-0.333756,0.202688,-0.240255,-0.018680,-0.084426,-0.049879
"2019-04-05 12:10:01.269 +0000",1554466201.269311,0.855108,-1.244896,-0.505181,0.241603,0.947363,-0.210066,0.000000,0.000000,0.000000,-1,-0.488374,0.402662,-0.285243,0.120732,-0.099874,-0.106493
"2019-04-05 12:10:01.289 +0000",1554466201.289299,0.883368,-1.255843,-0.484958,0.239412,0.950811,-0.196562,0.000000,0.000000,0.000000,-1,-0.646244,0.404919,-0.234727,0.259810,-0.008932,-0.290452
"2019-04-05 12:10:01.309 +0000",1554466201.309320,0.898068,-1.263418,-0.469398,0.236636,0.953130,-0.188529,0.000000,0.000000,0.000000,-1,-0.314710,-0.284198,-0.067698,0.207365,0.122447,-0.270776
"2019-04-05 12:10:01.329 +0000",1554466201.329309,0.888975,-1.262641,-0.472704,0.235486,0.952895,-0.191139,0.000000,0.000000,0.000000,-1,0.244414,-0.125142,-0.051440,0.153674,0.247362,0.004768
"2019-04-05 12:10:01.349 +0000",1554466201.349298,0.867844,-1.255348,-0.502626,0.236691,0.950657,-0.200559,0.000000,0.000000,0.000000,-1,0.800667,0.647355,0.010267,0.231556,0.310604,0.111173
"2019-04-05 12:10:01.369 +0000",1554466201.369317,0.843703,-1.239909,-0.547599,0.242718,0.945754,-0.215946,0.000000,0.000000,0.000000,-1,1.126264,0.965010,0.098984,0.281360,0.144303,-0.011594
"2019-04-05 12:10:01.389 +0000",1554466201.389304,0.815057,-1.222243,-0.589885,0.248555,0.939868,-0.234232,0.000000,0.000000,0.000000,-1,1.103552,0.228306,0.219724,0.195491,0.095929,0.036875
"2019-04-05 12:10:01.409 +0000",1554466201.409325,0.783859,-1.201600,-0.621045,0.254774,0.932618,-0.255560,0.000000,0.000000,0.000000,-1,1.102330,-0.187352,0.325294,0.017900,0.235183,0.322286
"2019-04-05 12:10:01.429 +0000",1554466201.429314,0.760783,-1.184930,-0.645679,0.259494,0.926473,-0.272594,0.000000,0.000000,0.000000,-1,0.701277,0.127601,0.186201,0.001324,0.364314,0.319790
"2019-04-05 12:10:01.449 +0000",1554466201.449334,0.770349,-1.182883,-0.641490,0.263410,0.925700,-0.271460,0.000000,0.000000,0.000000,-1,-0.422150,0.276170,-0.001884,0.026782,0.190022,0.188483
"2019-04-05 12:10:01.469 +0000",1554466201.469322,0.796430,-1.197361,-0.611139,0.260790,0.931080,-0.255098,0.000000,0.000000,0.000000,-1,-1.086197,-0.482450,-0.159353,0.144896,0.067547,0.039858
"2019-04-05 12:10:01.489 +0000",1554466201.489311,0.807786,-1.213981,-0.570915,0.252450,0.937014,-0.241392,0.000000,0.000000,0.000000,-1,-1.052676,-1.755037,-0.124519,0.178565,-0.046038,0.025205
"2019-04-05 12:10:01.509 +0000",1554466201.509330,0.811745,-1.228625,-0.526926,0.243421,0.942028,-0.230921,0.000000,0.000000,0.000000,-1,-1.061123,-1.771992,0.068603,0.142840,0.022144,0.044413
"2019-04-05 12:10:01.529 +0000",1554466201.529319,0.838411,-1.239452,-0.470512,0.241893,0.945606,-0.217515,0.000000,0.000000,0.000000,-1,-1.002006,-1.057570,0.233711,0.018697,0.120510,0.045091
"2019-04-05 12:10:01.549 +0000",1554466201.549339,0.873069,-1.246966,-0.420584,0.243833,0.948024,-0.204432,0.000000,0.000000,0.000000,-1,-0.732823,-0.386935,0.229619,-0.091733,0.098974,0.057551
"2019-04-05 12:10:01.569 +0000",1554466201.569328,0.906136,-1.248555,-0.385514,0.249272,0.948528,-0.195329,0.000000,0.000000,0.000000,-1,-0.329257,0.177292,0.249477,-0.163151,0.039082,0.044466
"2019-04-05 12:10:01.589 +0000",1554466201.589316,0.931905,-1.247769,-0.367189,0.254821,0.948279,-0.189286,0.000000,0.000000,0.000000,-1,-0.172291,0.527989,0.172191,-0.177642,0.010172,-0.012191
"2019-04-05 12:10:01.609 +0000",1554466201.609335,0.956123,-1.247645,-0.353177,0.259425,0.948240,-0.183128,0.000000,0.000000,0.000000,-1,-0.165989,0.473729,0.029032,-0.138225,0.026232,-0.088997
"2019-04-05 12:10:01.629 +0000",1554466201.629324,0.972292,-1.250579,-0.341290,0.260053,0.949167,-0.177341,0.000000,0.000000,0.000000,-1,-0.282487,0.126153,-0.044229,-0.102444,-0.065363,-0.132824
"2019-04-05 12:10:01.649 +0000",1554466201.649344,0.984510,-1.255182,-0.327684,0.258558,0.950606,-0.171731,0.000000,0.000000,0.000000,-1,-0.267744,-0.157740,-0.146422,-0.056013,-0.077757,-0.118765
"2019-04-05 12:10:01.669 +0000",1554466201.669332,0.978132,-1.259202,-0.327640,0.254286,0.951846,-0.171241,0.000000,0.000000,0.000000,-1,-0.019277,-0.380121,-0.148660,-0.048841,-0.171160,-0.062813
"2019-04-05 12:10:01.689 +0000",1554466201.689351,0.958929,-1.259355,-0.341953,0.250831,0.951893,-0.176009,0.000000,0.000000,0.000000,-1,0.219907,-0.118732,0.003056,-0.033622,-0.182362,0.032347
"2019-04-05 12:10:01.709 +0000",1554466201.709339,0.947677,-1.253386,-0.357012,0.253445,0.950047,-0.182133,0.000000,0.000000,0.000000,-1,0.430366,0.295773,0.162729,-0.041622,-0.136357,0.039600
"2019-04-05 12:10:01.729 +0000",1554466201.729329,0.942026,-1.243206,-0.372263,0.260220,0.946821,-0.189241,0.000000,0.000000,0.000000,-1,0.524398,0.495596,0.259110,-0.096112,-0.138700,0.037034
"2019-04-05 12:10:01.749 +0000",1554466201.749349,0.936461,-1.232429,-0.390954,0.267367,0.943298,-0.196722,0.000000,0.000000,0.000000,-1,0.592769,0.680530,0.258399,-0.176837,-0.106475,0.044440
"2019-04-05 12:10:01.769 +0000",1554466201.769338,0.932112,-1.221881,-0.410530,0.274483,0.939744,-0.203804,0.000000,0.000000,0.000000,-1,0.549980,0.594412,0.114195,-0.183632,0.011794,-0.101586
"2019-04-05 12:10:01.789 +0000",1554466201.789358,0.913001,-1.215574,-0.434398,0.275223,0.937569,-0.212631,0.000000,0.000000,0.000000,-1,0.530365,-0.071134,-0.043396,-0.188614,-0.111733,-0.087158
"2019-04-05 12:10:01.809 +0000",1554466201.809347,0.884262,-1.209430,-0.462307,0.273450,0.935415,-0.224099,0.000000,0.000000,0.000000,-1,0.588995,-0.081831,-0.127860,-0.166699,-0.105764,0.031564
"2019-04-05 12:10:01.829 +0000",1554466201.829367,0.859113,-1.205210,-0.490702,0.270715,0.933914,-0.233481,0.000000,0.000000,0.000000,-1,0.445044,0.120260,-0.178202,-0.146051,-0.078033,-0.004175
"2019-04-05 12:10:01.849 +0000",1554466201.849355,0.842331,-1.204575,-0.508475,0.267201,0.933687,-0.238385,0.000000,0.000000,0.000000,-1,0.155759,-0.151701,-0.236995,-0.119847,-0.084459,-0.111484
"2019-04-05 12:10:01.869 +0000",1554466201.869343,0.821247,-1.207026,-0.522447,0.260440,0.934562,-0.242406,0.000000,0.000000,0.000000,-1,0.123555,-0.521654,-0.263553,-0.073505,-0.080802,-0.142543
"2019-04-05 12:10:01.889 +0000",1554466201.889362,0.788982,-1.205386,-0.546257,0.253572,0.933977,-0.251761,0.000000,0.000000,0.000000,-1,0.556750,-0.427358,-0.261064,-0.016619,0.031599,-0.088540
"2019-04-05 12:10:01.909 +0000",1554466201.909352,0.737420,-1.195598,-0.596016,0.246395,0.930435,-0.271250,0.000000,0.000000,0.000000,-1,1.238618,-0.152515,-0.252233,0.075596,0.179642,-0.101110
"2019-04-05 12:10:01.929 +0000",1554466201.929370,0.676726,-1.173771,-0.660877,0.242151,0.922215,-0.301460,0.000000,0.000000,0.000000,-1,1.812694,0.052241,-0.249756,0.198966,0.359736,-0.029061
"2019-04-05 12:10:01.949 +0000",1554466201.949359,0.618477,-1.146039,-0.730628,0.238931,0.911139,-0.335760,0.000000,0.000000,0.000000,-1,1.961161,0.439100,-0.291708,0.314063,0.391123,0.114995
"2019-04-05 12:10:01.969 +0000",1554466201.969380,0.575962,-1.118129,-0.790270,0.238206,0.899284,-0.366801,0.000000,0.000000,0.000000,-1,1.787324,0.559365,-0.287785,0.327880,0.232934,0.200160
"2019-04-05 12:10:01.989 +0000",1554466201.989367,0.537338,-1.094659,-0.838956,0.234605,0.888772,-0.393753,0.000000,0.000000,0.000000,-1,1.391209,-0.020819,-0.324777,0.253707,0.128287,0.132034
"2019-04-05 12:10:02.009 +0000",1554466202.009356,0.496965,-1.081188,-0.873003,0.224209,0.882517,-0.413389,0.000000,0.000000,0.000000,-1,0.736795,-0.795373,-0.403344,0.239658,0.236288,0.147215
"2019-04-05 12:10:02.029 +0000",1554466202.029376,0.454038,-1.077350,-0.897726,0.207747,0.880706,-0.425671,0.000000,0.000000,0.000000,-1,0.297031,-1.177784,-0.453566,0.273775,0.402711,0.092159
"2019-04-05 12:10:02.049 +0000",1554466202.049365,0.408835,-1.077276,-0.919991,0.188325,0.880670,-0.434684,0.000000,0.000000,0.000000,-1,0.227577,-1.327651,-0.518918,0.243971,0.323050,-0.069421
"2019-04-05 12:10:02.069 +0000",1554466202.069384,0.369197,-1.073070,-0.942367,0.172287,0.878670,-0.445256,0.000000,0.000000,0.000000,-1,0.573656,-0.693170,-0.323729,0.235550,0.048652,0.005482
"2019-04-05 12:10:02.089 +0000",1554466202.089374,0.351047,-1.055393,-0.960567,0.169493,0.870094,-0.462823,0.000000,0.000000,0.000000,-1,1.203712,0.197345,0.000652,0.135728,-0.068779,0.059411
"2019-04-05 12:10:02.109 +0000",1554466202.109392,0.354258,-1.028367,-0.970597,0.179072,0.856457,-0.484160,0.000000,0.000000,0.000000,-1,1.353540,0.803301,0.328528,0.083821,-0.004895,0.081359
"2019-04-05 12:10:02.129 +0000",1554466202.129381,0.367310,-1.006108,-0.975976,0.192176,0.844756,-0.499454,0.000000,0.000000,0.000000,-1,0.907484,0.740873,0.177824,0.086099,0.119218,0.041660
"2019-04-05 12:10:02.149 +0000",1554466202.149370,0.370588,-0.995302,-0.980967,0.197106,0.838924,-0.507301,0.000000,0.000000,0.000000,-1,0.333146,0.179925,0.006827,0.094596,0.135182,0.109809
"2019-04-05 12:10:02.169 +0000",1554466202.169390,0.372214,-0.994260,-0.981122,0.198249,0.838356,-0.507794,0.000000,0.000000,0.000000,-1,-0.084052,0.082426,-0.004244,0.096902,-0.081855,0.227597
"2019-04-05 12:10:02.189 +0000",1554466202.189378,0.379481,-0.998620,-0.977210,0.200578,0.840724,-0.502940,0.000000,0.000000,0.000000,-1,-0.325057,0.263347,0.027742,0.076216,-0.197536,0.228022
"2019-04-05 12:10:02.209 +0000",1554466202.209397,0.393425,-1.006382,-0.968225,0.205063,0.844902,-0.494052,0.000000,0.000000,0.000000,-1,-0.511737,0.315579,0.064588,0.023452,-0.249306,0.195956
"2019-04-05 12:10:02.229 +0000",1554466202.229386,0.411486,-1.016169,-0.956005,0.210635,0.850097,-0.482666,0.000000,0.000000,0.000000,-1,-0.603386,0.446430,0.135585,-0.037020,-0.249556,0.221435
"2019-04-05 12:10:02.249 +0000",1554466202.249376,0.438534,-1.025777,-0.939075,0.220133,0.855117,-0.469375,0.000000,0.000000,0.000000,-1,-0.622418,0.731379,0.195106,-0.068583,-0.247253,0.255538
"2019-04-05 12:10:02.269 +0000",1554466202.269389,0.473831,-1.036052,-0.920109,0.232538,0.860399,-0.453472,0.000000,0.000000,0.000000,-1,-0.719331,1.057838,0.212230,-0.042535,-0.267717,0.216335
"2019-04-05 12:10:02.289 +0000",1554466202.289378,0.516077,-1.049239,-0.896988,0.245861,0.867045,-0.433339,0.000000,0.000000,0.000000,-1,-0.949810,1.065432,0.130599,-0.007244,-0.199060,0.138036
"2019-04-05 12:10:02.309 +0000",1554466202.309397,0.554451,-1.067919,-0.871847,0.253733,0.876200,-0.409745,0.000000,0.000000,0.000000,-1,-1.196528,0.645648,0.006209,0.007116,-0.178415,0.076371
"2019-04-05 12:10:02.329 +0000",1554466202.329385,0.588514,-1.089757,-0.844069,0.256855,0.886514,-0.384857,0.000000,0.000000,0.000000,-1,-1.298037,0.424569,-0.087013,-0.075398,-0.273599,0.095718
"2019-04-05 12:10:02.349 +0000",1554466202.349405,0.627291,-1.111510,-0.811495,0.260200,0.896369,-0.358909,0.000000,0.000000,0.000000,-1,-1.318167,0.580896,0.038317,-0.027412,-0.213798,0.062034
"2019-04-05 12:10:02.369 +0000",1554466202.369393,0.676264,-1.130141,-0.773607,0.266957,0.904472,-0.332656,0.000000,0.000000,0.000000,-1,-1.164425,0.773217,0.073718,-0.060750,-0.211846,0.021911
"2019-04-05 12:10:02.389 +0000",1554466202.389382,0.721161,-1.145558,-0.739750,0.272379,0.910940,-0.309829,0.000000,0.000000,0.000000,-1,-0.993814,0.649752,0.020705,-0.066858,-0.154776,-0.054001
"2019-04-05 12:10:02.409 +0000",1554466202.409402,0.763072,-1.160333,-0.706660,0.275788,0.916936,-0.288385,0.000000,0.000000,0.000000,-1,-1.004573,0.539177,-0.048939,-0.034134,-0.041371,-0.095434
"2019-04-05 12:10:02.429 +0000",1554466202.429390,0.803178,-1.175689,-0.672715,0.276963,0.922955,-0.267285,0.000000,0.000000,0.000000,-1,-1.000414,0.354181,-0.081472,0.035842,0.002292,-0.201434
"2019-04-05 12:10:02.449 +0000",1554466202.449410,0.835367,-1.189040,-0.640547,0.276258,0.928012,-0.249942,0.000000,0.000000,0.000000,-1,-0.807518,-0.039328,-0.101131,0.086733,0.024686,-0.226956
"2019-04-05 12:10:02.469 +0000",1554466202.469398,0.851513,-1.198732,-0.619036,0.273479,0.931579,-0.239513,0.000000,0.000000,0.000000,-1,-0.486491,-0.245814,-0.091750,0.122044,0.017426,-0.192647
"2019-04-05 12:10:02.489 +0000",1554466202.489418,0.855936,-1.202861,-0.609506,0.271627,0.933072,-0.235777,0.000000,0.000000,0.000000,-1,-0.150382,-0.199276,-0.044355,0.115748,-0.005384,-0.200411
"2019-04-05 12:10:02.509 +0000",1554466202.509408,0.855290,-1.203721,-0.606623,0.270869,0.933381,-0.235425,0.000000,0.000000,0.000000,-1,-0.032990,-0.178088,0.007729,0.110326,0.124251,-0.193148
"2019-04-05 12:10:02.529 +0000",1554466202.529396,0.849390,-1.204279,-0.606911,0.269084,0.933581,-0.236676,0.000000,0.000000,0.000000,-1,-0.006478,-0.385447,-0.103883,0.140309,0.284070,-0.156177
"2019-04-05 12:10:02.549 +0000",1554466202.549415,0.835365,-1.207268,-0.611888,0.263668,0.934648,-0.238553,0.000000,0.000000,0.000000,-1,-0.040697,-0.453484,-0.195767,0.217502,0.378127,0.042401
"2019-04-05 12:10:02.569 +0000",1554466202.569404,0.823324,-1.208293,-0.619137,0.260074,0.935012,-0.241059,0.000000,0.000000,0.000000,-1,0.148339,-0.141042,-0.105691,0.216107,0.224229,0.114716
"2019-04-05 12:10:02.589 +0000",1554466202.589424,0.817000,-1.204983,-0.624914,0.260799,0.933833,-0.244816,0.000000,0.000000,0.000000,-1,0.194371,-0.097420,0.165376,0.073674,0.055714,0.017063
"2019-04-05 12:10:02.609 +0000",1554466202.609413,0.809916,-1.196121,-0.625942,0.265042,0.930627,-0.252354,0.000000,0.000000,0.000000,-1,0.450349,-0.376118,0.305962,-0.064465,0.140678,0.212635
"2019-04-05 12:10:02.629 +0000",1554466202.629431,0.795300,-1.184475,-0.640447,0.269047,0.926302,-0.263771,0.000000,0.000000,0.000000,-1,0.608482,0.226528,0.177078,-0.073856,0.129912,0.268302
"2019-04-05 12:10:02.649 +0000",1554466202.649420,0.800026,-1.179062,-0.647915,0.273884,0.924248,-0.265986,0.000000,0.000000,0.000000,-1,0.058091,0.611754,0.012904,0.079678,0.039222,0.037867
"2019-04-05 12:10:02.669 +0000",1554466202.669409,0.804569,-1.180332,-0.643195,0.274243,0.924733,-0.263925,0.000000,0.000000,0.000000,-1,-0.102450,-0.437432,0.040251,0.183704,0.099697,0.101876
"2019-04-05 12:10:02.689 +0000",1554466202.689429,0.792730,-1.180051,-0.640149,0.271285,0.924625,-0.267335,0.000000,0.000000,0.000000,-1,-0.040729,-0.722406,0.010515,0.164171,0.177364,0.253084
"2019-04-05 12:10:02.709 +0000",1554466202.709417,0.801186,-1.184748,-0.623575,0.270414,0.926404,-0.262007,0.000000,0.000000,0.000000,-1,-0.637861,-0.160609,0.072096,0.042712,0.206973,0.088255
"2019-04-05 12:10:02.729 +0000",1554466202.729436,0.826028,-1.195514,-0.588310,0.269488,0.930404,-0.248434,0.000000,0.000000,0.000000,-1,-0.854735,-0.688842,-0.000371,-0.079440,0.186707,-0.043421
"2019-04-05 12:10:02.749 +0000",1554466202.749425,0.831821,-1.204646,-0.561826,0.264632,0.933713,-0.241136,0.000000,0.000000,0.000000,-1,-0.550795,-0.908079,-0.014463,-0.096281,0.135745,0.095704
"2019-04-05 12:10:02.769 +0000",1554466202.769445,0.844039,-1.210741,-0.541780,0.263300,0.935877,-0.234099,0.000000,0.000000,0.000000,-1,-0.398804,0.070957,-0.000367,-0.005747,0.071844,0.141646
"2019-04-05 12:10:02.789 +0000",1554466202.789433,0.867965,-1.213059,-0.527803,0.267169,0.936692,-0.226330,0.000000,0.000000,0.000000,-1,-0.174374,0.714019,0.135360,0.057645,-0.009064,0.082638
"2019-04-05 12:10:02.809 +0000",1554466202.809422,0.897583,-1.211298,-0.511685,0.275044,0.936073,-0.219347,0.000000,0.000000,0.000000,-1,-0.182872,0.653460,0.268603,0.004299,-0.029182,0.007189
"2019-04-05 12:10:02.829 +0000",1554466202.829443,0.929903,-1.211209,-0.486352,0.282055,0.936042,-0.210394,0.000000,0.000000,0.000000,-1,-0.461515,0.280506,0.259664,-0.084027,-0.023017,-0.000238
"2019-04-05 12:10:02.849 +0000",1554466202.849431,0.965456,-1.216365,-0.449720,0.285383,0.937844,-0.197486,0.000000,0.000000,0.000000,-1,-0.728455,-0.061650,0.152607,-0.148161,-0.114373,0.025016
"2019-04-05 12:10:02.869 +0000",1554466202.869450,1.003931,-1.224048,-0.404301,0.286681,0.940483,-0.182488,0.000000,0.000000,0.000000,-1,-0.943030,-0.274130,0.094877,-0.153014,-0.151405,0.013146
"2019-04-05 12:10:02.889 +0000",1554466202.889438,1.053527,-1.232988,-0.345082,0.288055,0.943483,-0.163886,0.000000,0.000000,0.000000,-1,-1.196948,-0.301577,0.113513,-0.099762,0.033155,-0.068612
"2019-04-05 12:10:02.909 +0000",1554466202.909458,1.115174,-1.244164,-0.274408,0.288117,0.947128,-0.141180,0.000000,0.000000,0.000000,-1,-1.368681,-0.202586,0.077889,-0.132279,0.103821,-0.165690
"2019-04-05 12:10:02.929 +0000",1554466202.929448,1.165157,-1.254981,-0.213627,0.285380,0.950543,-0.122558,0.000000,0.000000,0.000000,-1,-0.928306,-0.537839,-0.067019,-0.134104,-0.039777,-0.286667
"2019-04-05 12:10:02.949 +0000",1554466202.949437,1.162771,-1.259843,-0.200226,0.280841,0.952042,-0.121403,0.000000,0.000000,0.000000,-1,-0.001268,-0.722442,-0.015185,-0.073642,-0.175645,-0.171443
"2019-04-05 12:10:02.969 +0000",1554466202.969455,1.140789,-1.253927,-0.216949,0.283219,0.950216,-0.129893,0.000000,0.000000,0.000000,-1,0.558256,-0.013684,0.250161,-0.089783,-0.135564,0.009745
"2019-04-05 12:10:02.989 +0000",1554466202.989444,1.114666,-1.241141,-0.252065,0.290615,0.946154,-0.142587,0.000000,0.000000,0.000000,-1,0.853030,0.518752,0.357680,-0.123897,-0.035952,0.047555
"2019-04-05 12:10:03.009 +0000",1554466203.009463,1.093550,-1.228089,-0.286469,0.298484,0.941848,-0.154351,0.000000,0.000000,0.000000,-1,0.721770,0.532650,0.272642,-0.148108,-0.032364,0.030312
"2019-04-05 12:10:03.029 +0000",1554466203.029453,1.079743,-1.220370,-0.308531,0.302726,0.939226,-0.161881,0.000000,0.000000,0.000000,-1,0.392927,0.204345,0.102802,-0.167671,-0.124300,0.046234
"2019-04-05 12:10:03.049 +0000",1554466203.049441,1.069244,-1.217122,-0.318646,0.303684,0.938106,-0.166516,0.000000,0.000000,0.000000,-1,0.150510,-0.196294,0.025408,-0.185749,-0.145962,0.067105
"2019-04-05 12:10:03.069 +0000",1554466203.069460,1.064187,-1.217569,-0.317265,0.302472,0.938261,-0.167846,0.000000,0.000000,0.000000,-1,-0.140854,-0.349184,-0.042655,-0.183362,-0.094755,0.074981
"2019-04-05 12:10:03.089 +0000",1554466203.089449,1.070332,-1.222012,-0.304666,0.299836,0.939789,-0.163982,0.000000,0.000000,0.000000,-1,-0.386208,-0.202312,-0.139876,-0.211015,0.006729,0.031337
"2019-04-05 12:10:03.109 +0000",1554466203.109468,1.090638,-1.230834,-0.284026,0.295739,0.942767,-0.154024,0.000000,0.000000,0.000000,-1,-0.550387,0.171999,-0.278269,-0.243859,0.018857,-0.061110
"2019-04-05 12:10:03.129 +0000",1554466203.129457,1.107177,-1.241080,-0.265618,0.289589,0.946134,-0.144784,0.000000,0.000000,0.000000,-1,-0.397040,-0.318239,-0.351462,-0.193001,-0.033293,-0.349097
"2019-04-05 12:10:03.149 +0000",1554466203.149477,1.081164,-1.247269,-0.274692,0.280552,0.948120,-0.149511,0.000000,0.000000,0.000000,-1,0.242732,-1.056521,-0.306913,-0.143666,-0.064178,-0.361948
"2019-04-05 12:10:03.169 +0000",1554466203.169466,1.031143,-1.244645,-0.314731,0.274860,0.947282,-0.164629,0.000000,0.000000,0.000000,-1,0.847093,-0.170283,-0.160697,-0.151309,-0.065843,-0.079862
"2019-04-05 12:10:03.189 +0000",1554466203.189453,0.978563,-1.233258,-0.382078,0.274759,0.943573,-0.184857,0.000000,0.000000,0.000000,-1,1.505920,0.903006,-0.088786,-0.103312,0.036881,0.092343
"2019-04-05 12:10:03.209 +0000",1554466203.209474,0.914898,-1.212630,-0.475900,0.277811,0.936541,-0.213790,0.000000,0.000000,0.000000,-1,2.077947,1.339511,-0.120880,-0.004801,0.167035,0.112396
"2019-04-05 12:10:03.229 +0000",1554466203.229463,0.850310,-1.188330,-0.572906,0.280457,0.927747,-0.246221,0.000000,0.000000,0.000000,-1,2.068219,1.184277,-0.218395,0.115372,0.245532,0.000341
"2019-04-05 12:10:03.249 +0000",1554466203.249482,0.789650,-1.167597,-0.654649,0.278616,0.919811,-0.276256,0.000000,0.000000,0.000000,-1,1.730635,0.447735,-0.391476,0.190974,0.175114,-0.010045
"2019-04-05 12:10:03.269 +0000",1554466203.269481,0.727147,-1.151913,-0.724800,0.270373,0.913544,-0.303861,0.000000,0.000000,0.000000,-1,1.405994,-0.075111,-0.497834,0.192426,0.069199,0.153715
"2019-04-05 12:10:03.290 +0000",1554466203.289501,0.674026,-1.140933,-0.778499,0.260103,0.909023,-0.325606,0.000000,0.000000,0.000000,-1,0.939685,-0.267186,-0.485579,0.228804,0.155369,0.221740
"2019-04-05 12:10:03.309 +0000",1554466203.309490,0.635053,-1.138843,-0.811062,0.248346,0.908150,-0.337022,0.000000,0.000000,0.000000,-1,0.216160,-0.648310,-0.487139,0.281821,0.293175,0.143693
"2019-04-05 12:10:03.329 +0000",1554466203.329479,0.593399,-1.148017,-0.829708,0.229428,0.911952,-0.340150,0.000000,0.000000,0.000000,-1,-0.303997,-1.657942,-0.666966,0.210422,0.291158,-0.090118
"2019-04-05 12:10:03.349 +0000",1554466203.349499,0.530588,-1.161949,-0.850069,0.201175,0.917580,-0.342887,0.000000,0.000000,0.000000,-1,-0.367328,-2.377650,-0.721097,0.175687,0.237449,-0.171608
"2019-04-05 12:10:03.369 +0000",1554466203.369488,0.472415,-1.172537,-0.872112,0.176468,0.921737,-0.345334,0.000000,0.000000,0.000000,-1,-0.140586,-1.399697,-0.563109,0.142639,0.107987,0.009976
"2019-04-05 12:10:03.390 +0000",1554466203.389506,0.448952,-1.171740,-0.893132,0.168637,0.921428,-0.350041,0.000000,0.000000,0.000000,-1,0.470801,0.521018,-0.199564,0.100681,0.057683,0.211232
"2019-04-05 12:10:03.409 +0000",1554466203.409495,0.460175,-1.156045,-0.911829,0.178956,0.915216,-0.361040,0.000000,0.000000,0.000000,-1,1.056238,1.820866,0.092964,0.139754,0.119787,0.162584
"2019-04-05 12:10:03.430 +0000",1554466203.429515,0.483562,-1.135942,-0.929452,0.195865,0.906932,-0.372972,0.000000,0.000000,0.000000,-1,0.975219,1.905987,0.132864,0.148877,0.113622,-0.010191
"2019-04-05 12:10:03.450 +0000",1554466203.449503,0.505061,-1.123773,-0.938903,0.209163,0.901738,-0.378306,0.000000,0.000000,0.000000,-1,0.406220,1.237688,0.078943,0.078801,-0.025411,-0.010335
"2019-04-05 12:10:03.469 +0000",1554466203.469493,0.522988,-1.121914,-0.937991,0.216748,0.900933,-0.375949,0.000000,0.000000,0.000000,-1,-0.105100,0.673542,0.058260,0.028293,-0.201607,0.113147
"2019-04-05 12:10:03.490 +0000",1554466203.489511,0.543692,-1.126385,-0.927623,0.222398,0.902864,-0.367929,0.000000,0.000000,0.000000,-1,-0.393210,0.535557,0.084137,0.008727,-0.294710,0.212335
"2019-04-05 12:10:03.510 +0000",1554466203.509500,0.570185,-1.132911,-0.910905,0.228881,0.905651,-0.356941,0.000000,0.000000,0.000000,-1,-0.483824,0.599431,0.159216,-0.011626,-0.273464,0.190620
"2019-04-05 12:10:03.530 +0000",1554466203.529520,0.605690,-1.138055,-0.888738,0.238752,0.907820,-0.344757,0.000000,0.000000,0.000000,-1,-0.445204,0.897112,0.286938,0.006670,-0.270353,0.138015
"2019-04-05 12:10:03.550 +0000",1554466203.549509,0.651797,-1.139850,-0.863482,0.253399,0.908571,-0.332090,0.000000,0.000000,0.000000,-1,-0.340376,1.309564,0.425499,0.044178,-0.238222,0.096769
"2019-04-05 12:10:03.570 +0000",1554466203.569528,0.706341,-1.138317,-0.836068,0.272030,0.907930,-0.318840,0.000000,0.000000,0.000000,-1,-0.287942,1.543435,0.508195,0.029636,-0.208772,0.051598
"2019-04-05 12:10:03.590 +0000",1554466203.589516,0.765692,-1.137008,-0.805214,0.291287,0.907380,-0.303000,0.000000,0.000000,0.000000,-1,-0.457583,1.535053,0.496815,-0.097607,-0.096513,-0.036249
"2019-04-05 12:10:03.610 +0000",1554466203.609505,0.824401,-1.139701,-0.770458,0.306769,0.908509,-0.283726,0.000000,0.000000,0.000000,-1,-0.697857,1.218384,0.353486,-0.184058,-0.059372,-0.065105
"2019-04-05 12:10:03.630 +0000",1554466203.629525,0.876052,-1.145572,-0.734878,0.316905,0.910946,-0.264091,0.000000,0.000000,0.000000,-1,-0.736532,0.826080,0.209496,-0.231258,-0.075970,-0.061532
"2019-04-05 12:10:03.650 +0000",1554466203.649514,0.917677,-1.152273,-0.705730,0.322765,0.913690,-0.246960,0.000000,0.000000,0.000000,-1,-0.634232,0.740915,0.056432,-0.190257,-0.102899,-0.114643
"2019-04-05 12:10:03.670 +0000",1554466203.669533,0.953793,-1.158552,-0.682675,0.326786,0.916224,-0.231820,0.000000,0.000000,0.000000,-1,-0.507296,0.747187,0.009211,-0.100330,-0.090693,-0.207892
"2019-04-05 12:10:03.690 +0000",1554466203.689521,0.985640,-1.163643,-0.664757,0.330109,0.918252,-0.218718,0.000000,0.000000,0.000000,-1,-0.399536,0.790687,-0.020791,-0.029190,-0.072228,-0.301302
"2019-04-05 12:10:03.710 +0000",1554466203.709542,1.013026,-1.167475,-0.649805,0.332986,0.919762,-0.207732,0.000000,0.000000,0.000000,-1,-0.320721,0.528033,-0.025960,-0.053552,0.020621,-0.503220
"2019-04-05 12:10:03.730 +0000",1554466203.729530,1.023709,-1.172349,-0.639885,0.331353,0.921664,-0.201829,0.000000,0.000000,0.000000,-1,-0.268858,-0.181145,-0.143282,-0.065407,0.033505,-0.492873
"2019-04-05 12:10:03.750 +0000",1554466203.749519,1.016547,-1.176470,-0.638197,0.326667,0.923256,-0.202196,0.000000,0.000000,0.000000,-1,-0.026875,-0.539610,-0.174693,-0.121726,0.047097,-0.402037
"2019-04-05 12:10:03.770 +0000",1554466203.769539,0.994271,-1.177866,-0.650638,0.321000,0.923791,-0.208719,0.000000,0.000000,0.000000,-1,0.267588,-0.502626,-0.194460,-0.170457,0.019248,-0.361960
"2019-04-05 12:10:03.790 +0000",1554466203.789527,0.958189,-1.176200,-0.677777,0.314521,0.923152,-0.221047,0.000000,0.000000,0.000000,-1,0.624875,-0.647500,-0.275696,-0.043006,0.367467,-0.417441
"2019-04-05 12:10:03.810 +0000",1554466203.809547,0.888397,-1.170524,-0.734786,0.302403,0.920955,-0.245744,0.000000,0.000000,0.000000,-1,1.347967,-0.893684,-0.513833,0.056255,0.481633,-0.025069
"2019-04-05 12:10:03.830 +0000",1554466203.829536,0.796519,-1.153333,-0.825760,0.289858,0.914120,-0.283481,0.000000,0.000000,0.000000,-1,2.233918,0.029513,-0.527149,0.040495,0.188312,0.535846
"2019-04-05 12:10:03.850 +0000",1554466203.849555,0.723647,-1.117523,-0.922485,0.289947,0.899018,-0.328165,0.000000,0.000000,0.000000,-1,2.945183,1.068832,-0.099029,0.157319,0.356673,0.602350
"2019-04-05 12:10:03.870 +0000",1554466203.869545,0.672129,-1.070241,-1.008531,0.298817,0.877316,-0.375527,0.000000,0.000000,0.000000,-1,3.025361,1.270799,0.026202,0.263164,0.528797,0.536355
"2019-04-05 12:10:03.890 +0000",1554466203.889533,0.639008,-1.031246,-1.072310,0.306398,0.857940,-0.412378,0.000000,0.000000,0.000000,-1,2.092673,0.961015,-0.161441,0.289412,0.373444,0.454370
"2019-04-05 12:10:03.910 +0000",1554466203.909551,0.617194,-1.014178,-1.109443,0.305762,0.849046,-0.430844,0.000000,0.000000,0.000000,-1,0.777815,0.160355,-0.325034,0.291605,0.274229,0.415982
"2019-04-05 12:10:03.930 +0000",1554466203.929540,0.610849,-1.019619,-1.114155,0.300368,0.851909,-0.428984,0.000000,0.000000,0.000000,-1,-0.805459,-0.082944,-0.179156,0.233034,0.186910,0.384749
"2019-04-05 12:10:03.950 +0000",1554466203.949560,0.668611,-1.056593,-1.063720,0.304888,0.870685,-0.385936,0.000000,0.000000,0.000000,-1,-3.157116,1.353013,-0.056804,0.179365,0.219815,0.301372
"2019-04-05 12:10:03.970 +0000",1554466203.969549,0.809677,-1.119204,-0.949584,0.315977,0.899754,-0.300994,0.000000,0.000000,0.000000,-1,-4.322963,1.993850,-0.226362,0.142550,0.349758,0.102356
"2019-04-05 12:10:03.990 +0000",1554466203.989568,0.916626,-1.167593,-0.821228,0.311359,0.919809,-0.238752,0.000000,0.000000,0.000000,-1,-2.818764,-2.674373,0.012437,-0.089817,0.072669,-0.722368
"2019-04-05 12:10:04.010 +0000",1554466204.009557,0.917402,-1.190545,-0.743686,0.294701,0.928571,-0.225615,0.000000,0.000000,0.000000,-1,-1.621958,-2.993174,-0.101043,-0.159310,0.255770,0.043441
"2019-04-05 12:10:04.030 +0000",1554466204.029546,0.962495,-1.208353,-0.684825,0.290953,0.935033,-0.202618,0.000000,0.000000,0.000000,-1,-1.060915,0.944273,-0.022084,-0.176650,0.072749,0.288952
"2019-04-05 12:10:04.050 +0000",1554466204.049566,1.019629,-1.206234,-0.670656,0.303736,0.934280,-0.186710,0.000000,0.000000,0.000000,-1,0.366550,2.662397,0.398830,-0.192301,-0.103988,0.199650
"2019-04-05 12:10:04.070 +0000",1554466204.069554,1.057926,-1.190170,-0.693248,0.323699,0.928432,-0.182286,0.000000,0.000000,0.000000,-1,0.847940,3.073484,0.455440,-0.174148,-0.043636,0.082218
"2019-04-05 12:10:04.090 +0000",1554466204.089573,1.097961,-1.179247,-0.715390,0.339744,0.924319,-0.173792,0.000000,0.000000,0.000000,-1,0.441247,2.922752,0.171014,-0.162650,-0.026248,0.004801
"2019-04-05 12:10:04.110 +0000",1554466204.109562,1.141419,-1.176890,-0.720332,0.348953,0.923417,-0.159774,0.000000,0.000000,0.000000,-1,-0.005242,1.994932,0.017926,-0.124679,-0.113892,-0.051957
"2019-04-05 12:10:04.130 +0000",1554466204.129582,1.172643,-1.178276,-0.713299,0.352590,0.923948,-0.148306,0.000000,0.000000,0.000000,-1,-0.232030,0.810761,-0.024313,-0.082052,-0.142423,-0.053491
"2019-04-05 12:10:04.150 +0000",1554466204.149570,1.197767,-1.182256,-0.694379,0.352777,0.925463,-0.138060,0.000000,0.000000,0.000000,-1,-0.512930,0.209230,-0.053086,-0.057382,-0.132098,-0.019990
"2019-04-05 12:10:04.170 +0000",1554466204.169560,1.229817,-1.187161,-0.663576,0.352738,0.927310,-0.125165,0.000000,0.000000,0.000000,-1,-0.679335,0.223184,-0.016392,-0.060960,-0.148959,-0.014468
"2019-04-05 12:10:04.190 +0000",1554466204.189578,1.273256,-1.190871,-0.625911,0.354549,0.928692,-0.108720,0.000000,0.000000,0.000000,-1,-0.731400,0.531561,0.099825,-0.078869,-0.131375,-0.121093
"2019-04-05 12:10:04.210 +0000",1554466204.209567,1.313984,-1.190358,-0.592524,0.359142,0.928502,-0.094314,0.000000,0.000000,0.000000,-1,-0.432700,0.391028,0.231092,-0.130031,-0.038625,-0.217560
"2019-04-05 12:10:04.230 +0000",1554466204.229587,1.328512,-1.187096,-0.583826,0.363412,0.927286,-0.089814,0.000000,0.000000,0.000000,-1,0.034540,0.364084,0.164874,-0.223444,0.041357,-0.127914
"2019-04-05 12:10:04.250 +0000",1554466204.249576,1.339749,-1.184354,-0.585764,0.366873,0.926256,-0.086306,0.000000,0.000000,0.000000,-1,0.052880,0.828645,0.108488,-0.203497,0.104369,-0.083890
"2019-04-05 12:10:04.270 +0000",1554466204.269541,1.358187,-1.182174,-0.585800,0.370375,0.925432,-0.079954,0.000000,0.000000,0.000000,-1,0.017710,0.903090,0.106638,-0.166350,0.116087,-0.134097
"2019-04-05 12:10:04.290 +0000",1554466204.289561,1.373820,-1.180623,-0.582768,0.372986,0.924843,-0.074435,0.000000,0.000000,0.000000,-1,-0.092429,0.429007,0.075699,-0.146058,0.101188,-0.237928
"2019-04-05 12:10:04.310 +0000",1554466204.309552,1.383138,-1.180140,-0.573167,0.374103,0.924659,-0.071039,0.000000,0.000000,0.000000,-1,-0.187710,-0.214121,0.059200,-0.163440,0.044167,-0.241598
"2019-04-05 12:10:04.330 +0000",1554466204.329569,1.370494,-1.182511,-0.576723,0.371025,0.925560,-0.075327,0.000000,0.000000,0.000000,-1,0.141818,-0.482277,0.059856,-0.214607,0.012001,-0.127538
"2019-04-05 12:10:04.350 +0000",1554466204.349558,1.327877,-1.182644,-0.613633,0.367359,0.925610,-0.091036,0.000000,0.000000,0.000000,-1,0.880188,-0.235131,0.012993,-0.222996,0.142627,0.028887
"2019-04-05 12:10:04.370 +0000",1554466204.369578,1.262269,-1.176045,-0.685765,0.366413,0.923092,-0.116777,0.000000,0.000000,0.000000,-1,1.651764,0.265019,-0.019374,-0.125019,0.368107,0.082186
"2019-04-05 12:10:04.390 +0000",1554466204.389566,1.185612,-1.165753,-0.782450,0.365179,0.919086,-0.148057,0.000000,0.000000,0.000000,-1,2.045583,0.848312,-0.311043,-0.046499,0.585080,0.120149
"2019-04-05 12:10:04.410 +0000",1554466204.409556,1.110250,-1.158545,-0.888052,0.358921,0.916221,-0.178071,0.000000,0.000000,0.000000,-1,2.039185,1.122538,-0.578122,0.059124,0.414605,0.183061
"2019-04-05 12:10:04.430 +0000",1554466204.429574,1.040336,-1.149535,-0.986164,0.352711,0.912574,-0.206878,0.000000,0.000000,0.000000,-1,1.909988,0.886625,-0.555006,0.112956,0.142068,0.233245
"2019-04-05 12:10:04.450 +0000",1554466204.449562,0.971467,-1.141329,-1.075138,0.343811,0.909188,-0.234875,0.000000,0.000000,0.000000,-1,1.664317,0.420063,-0.675259,0.169708,-0.069893,0.239728
"2019-04-05 12:10:04.470 +0000",1554466204.469583,0.909518,-1.135616,-1.146265,0.332705,0.906794,-0.258896,0.000000,0.000000,0.000000,-1,1.173382,-0.016497,-0.593192,0.219709,-0.032908,0.223313
"2019-04-05 12:10:04.490 +0000",1554466204.489572,0.863966,-1.132503,-1.192425,0.322716,0.905477,-0.275609,0.000000,0.000000,0.000000,-1,0.693227,-0.287202,-0.454133,0.143288,0.134638,0.140142
"2019-04-05 12:10:04.510 +0000",1554466204.509591,0.824574,-1.130868,-1.225365,0.312698,0.904782,-0.289110,0.000000,0.000000,0.000000,-1,0.574681,-0.601784,-0.388572,0.009293,0.266055,0.018602
"2019-04-05 12:10:04.530 +0000",1554466204.529580,0.775903,-1.127001,-1.264966,0.300710,0.903129,-0.306476,0.000000,0.000000,0.000000,-1,0.879775,-0.546758,-0.501154,-0.145742,0.284646,0.046710
"2019-04-05 12:10:04.550 +0000",1554466204.549568,0.726445,-1.117351,-1.321426,0.290967,0.898943,-0.327468,0.000000,0.000000,0.000000,-1,1.406252,0.544670,-0.567623,-0.231992,0.224562,0.206878
"2019-04-05 12:10:04.570 +0000",1554466204.569588,0.695780,-1.097448,-1.389285,0.292202,0.890047,-0.349901,0.000000,0.000000,0.000000,-1,1.913824,2.067786,-0.464254,-0.235027,0.056425,0.325227
"2019-04-05 12:10:04.590 +0000",1554466204.589577,0.689707,-1.072033,-1.459545,0.304370,0.878175,-0.369003,0.000000,0.000000,0.000000,-1,2.043454,3.145707,-0.462640,-0.163425,-0.037446,0.336136
"2019-04-05 12:10:04.610 +0000",1554466204.609595,0.697668,-1.049123,-1.525661,0.320142,0.866986,-0.381890,0.000000,0.000000,0.000000,-1,1.805549,3.238357,-0.545087,-0.122220,-0.042813,0.269264
"2019-04-05 12:10:04.630 +0000",1554466204.629584,0.706738,-1.032997,-1.583896,0.332628,0.858838,-0.389553,0.000000,0.000000,0.000000,-1,1.424413,2.793168,-0.630829,-0.107439,-0.025037,0.280086
"2019-04-05 12:10:04.650 +0000",1554466204.649604,0.716055,-1.024175,-1.634414,0.341204,0.854286,-0.392138,0.000000,0.000000,0.000000,-1,1.056192,2.595673,-0.740461,-0.124392,0.009957,0.332018
"2019-04-05 12:10:04.670 +0000",1554466204.669593,0.733082,-1.021151,-1.677558,0.349558,0.852710,-0.388190,0.000000,0.000000,0.000000,-1,0.765006,2.743664,-0.752205,-0.133631,0.042966,0.316779
"2019-04-05 12:10:04.690 +0000",1554466204.689582,0.752545,-1.023113,-1.716189,0.355903,0.853733,-0.380091,0.000000,0.000000,0.000000,-1,0.526913,2.480160,-0.853775,-0.178763,0.061794,0.214350
"2019-04-05 12:10:04.710 +0000",1554466204.709602,0.762063,-1.030340,-1.754254,0.355235,0.857474,-0.372214,0.000000,0.000000,0.000000,-1,0.375025,1.859361,-1.020550,-0.163295,0.073267,0.126440
"2019-04-05 12:10:04.730 +0000",1554466204.729591,0.762396,-1.039935,-1.792211,0.349661,0.862371,-0.366129,0.000000,0.000000,0.000000,-1,0.311980,1.636156,-0.997547,-0.042349,-0.029653,0.186411
"2019-04-05 12:10:04.750 +0000",1554466204.749609,0.768558,-1.046146,-1.827944,0.348180,0.865499,-0.360109,0.000000,0.000000,0.000000,-1,0.506444,1.990094,-0.760105,0.032252,-0.112905,0.238298
"2019-04-05 12:10:04.770 +0000",1554466204.769598,0.778484,-1.045062,-1.865333,0.352396,0.864956,-0.357303,0.000000,0.000000,0.000000,-1,0.784002,2.147277,-0.570346,-0.030420,-0.111965,0.208362
"2019-04-05 12:10:04.790 +0000",1554466204.789618,0.789778,-1.041552,-1.901768,0.358563,0.863189,-0.355436,0.000000,0.000000,0.000000,-1,0.744553,2.124999,-0.498821,-0.095379,-0.063476,0.084440
"2019-04-05 12:10:04.810 +0000",1554466204.809607,0.805703,-1.039824,-1.932455,0.365253,0.862315,-0.350713,0.000000,0.000000,0.000000,-1,0.538663,2.118783,-0.462094,-0.128299,-0.026484,0.048910
"2019-04-05 12:10:04.830 +0000",1554466204.829596,0.825800,-1.039670,-1.957098,0.372324,0.862237,-0.343393,0.000000,0.000000,0.000000,-1,0.468240,2.014670,-0.377919,-0.130381,-0.016519,0.032388
"2019-04-05 12:10:04.850 +0000",1554466204.849614,0.842875,-1.037336,-1.982337,0.379635,0.861053,-0.338323,0.000000,0.000000,0.000000,-1,0.617579,1.912511,-0.320911,-0.128322,-0.010314,0.011587
"2019-04-05 12:10:04.870 +0000",1554466204.869604,0.859001,-1.032665,-2.010077,0.388082,0.858668,-0.334781,0.000000,0.000000,0.000000,-1,0.730776,2.083603,-0.272673,-0.143713,0.059469,-0.020001
"2019-04-05 12:10:04.890 +0000",1554466204.889623,0.879042,-1.028536,-2.037873,0.397440,0.856544,-0.329196,0.000000,0.000000,0.000000,-1,0.628375,2.199541,-0.353225,-0.158930,0.184334,-0.116987
"2019-04-05 12:10:04.910 +0000",1554466204.909612,0.891817,-1.029861,-2.067457,0.400730,0.857227,-0.323379,0.000000,0.000000,0.000000,-1,0.538345,1.643522,-0.623473,-0.132847,0.216168,-0.177994
"2019-04-05 12:10:04.930 +0000",1554466204.929631,0.886688,-1.035647,-2.101125,0.395215,0.860192,-0.322290,0.000000,0.000000,0.000000,-1,0.446136,0.945058,-0.843952,-0.096296,0.169715,-0.177970
"2019-04-05 12:10:04.950 +0000",1554466204.949619,0.873760,-1.046192,-2.133192,0.384039,0.865522,-0.321531,0.000000,0.000000,0.000000,-1,0.198435,0.666677,-0.942340,-0.028982,0.097444,-0.211993
"2019-04-05 12:10:04.970 +0000",1554466204.969609,0.863772,-1.059835,-2.158281,0.371795,0.872275,-0.317650,0.000000,0.000000,0.000000,-1,-0.055512,0.553124,-0.896196,-0.014541,0.047250,-0.210685
"2019-04-05 12:10:04.990 +0000",1554466204.989628,0.858861,-1.074834,-2.176202,0.360285,0.879511,-0.310889,0.000000,0.000000,0.000000,-1,-0.188828,0.541553,-0.799887,-0.013376,0.003088,-0.157006
"2019-04-05 12:10:05.010 +0000",1554466205.009617,0.857278,-1.086349,-2.190611,0.352111,0.884932,-0.304810,0.000000,0.000000,0.000000,-1,-0.041449,0.598913,-0.553553,0.076691,0.149797,-0.156814
"2019-04-05 12:10:05.030 +0000",1554466205.029636,0.860352,-1.091767,-2.205127,0.349406,0.887443,-0.300595,0.000000,0.000000,0.000000,-1,0.174323,0.917745,-0.341867,0.157353,0.394128,-0.001361
"2019-04-05 12:10:05.050 +0000",1554466205.049625,0.855497,-1.087801,-2.232009,0.350597,0.885608,-0.304594,0.000000,0.000000,0.000000,-1,0.945735,0.909763,-0.194222,0.100438,0.144910,0.307111
"2019-04-05 12:10:05.070 +0000",1554466205.069644,0.841575,-1.070714,-2.276622,0.357556,0.877543,-0.319482,0.000000,0.000000,0.000000,-1,1.465796,1.673825,0.039351,0.089221,0.124792,0.441583
"2019-04-05 12:10:05.090 +0000",1554466205.089633,0.858695,-1.052360,-2.311727,0.375103,0.868595,-0.323785,0.000000,0.000000,0.000000,-1,1.067340,2.668180,0.147565,0.057193,-0.022251,0.257516
"2019-04-05 12:10:05.110 +0000",1554466205.109622,0.888518,-1.037430,-2.333541,0.394614,0.861100,-0.320598,0.000000,0.000000,0.000000,-1,0.904994,2.147405,0.304429,-0.187277,-0.107316,0.245403
"2019-04-05 12:10:05.130 +0000",1554466205.129641,0.899924,-1.018753,-2.359201,0.410771,0.851455,-0.326019,0.000000,0.000000,0.000000,-1,1.230013,1.439104,0.262263,-0.289998,0.088746,0.387909
"2019-04-05 12:10:05.150 +0000",1554466205.149630,0.891588,-1.001234,-2.396472,0.419583,0.842137,-0.338751,0.000000,0.000000,0.000000,-1,1.342725,1.006245,-0.057188,-0.337002,0.302104,0.410162
"2019-04-05 12:10:05.170 +0000",1554466205.169650,0.876064,-0.992527,-2.435116,0.419891,0.837410,-0.349905,0.000000,0.000000,0.000000,-1,0.833506,0.797078,-0.499480,-0.373413,0.374611,0.366735
"2019-04-05 12:10:05.190 +0000",1554466205.189638,0.874161,-1.002016,-2.458393,0.413111,0.842558,-0.345589,0.000000,0.000000,0.000000,-1,-0.207866,0.968923,-0.896842,-0.281488,0.243349,0.349465
"2019-04-05 12:10:05.210 +0000",1554466205.209659,0.899532,-1.026227,-2.457091,0.405649,0.855351,-0.322213,0.000000,0.000000,0.000000,-1,-1.111293,1.398038,-0.876557,-0.130243,0.142635,0.324761
"2019-04-05 12:10:05.230 +0000",1554466205.229647,0.961331,-1.056496,-2.427009,0.403354,0.870637,-0.281591,0.000000,0.000000,0.000000,-1,-1.659263,2.001293,-0.682648,0.031735,0.118331,0.283483
"2019-04-05 12:10:05.250 +0000",1554466205.249636,1.039909,-1.086387,-2.385278,0.401585,0.884950,-0.235774,0.000000,0.000000,0.000000,-1,-1.561136,2.042660,-0.772393,0.158535,0.047209,0.188670
"2019-04-05 12:10:05.270 +0000",1554466205.269666,1.104431,-1.113127,-2.347009,0.394668,0.897085,-0.198677,0.000000,0.000000,0.000000,-1,-1.321558,0.994259,-0.657370,0.239044,-0.285863,-0.245232
"2019-04-05 12:10:05.290 +0000",1554466205.289655,1.143628,-1.129566,-2.299377,0.388675,0.904227,-0.176924,0.000000,0.000000,0.000000,-1,-1.247479,-0.795967,-0.071281,0.154629,-0.241919,-0.303743
"2019-04-05 12:10:05.310 +0000",1554466205.309675,1.169745,-1.137827,-2.249460,0.386272,0.907724,-0.163792,0.000000,0.000000,0.000000,-1,-1.008438,-0.768479,0.028568,-0.065334,0.084036,0.065998
"2019-04-05 12:10:05.330 +0000",1554466205.329664,1.195159,-1.143294,-2.223064,0.385687,0.910004,-0.152100,0.000000,0.000000,0.000000,-1,-0.303665,0.603477,-0.057804,-0.228033,0.043548,0.277024
"2019-04-05 12:10:05.350 +0000",1554466205.349683,1.213734,-1.142514,-2.232871,0.389111,0.909680,-0.145159,0.000000,0.000000,0.000000,-1,0.471499,1.782992,0.006669,-0.325054,-0.114224,0.214800
"2019-04-05 12:10:05.370 +0000",1554466205.369671,1.237746,-1.137322,-2.257951,0.396943,0.907512,-0.137317,0.000000,0.000000,0.000000,-1,0.557308,2.630264,0.080309,-0.308854,-0.033488,0.106052
"2019-04-05 12:10:05.390 +0000",1554466205.389660,1.279055,-1.136631,-2.274832,0.402875,0.907222,-0.120987,0.000000,0.000000,0.000000,-1,0.245754,2.811169,-0.160731,-0.165677,0.062810,-0.019150
"2019-04-05 12:10:05.410 +0000",1554466205.409680,1.319050,-1.139572,-2.281514,0.404804,0.908455,-0.104117,0.000000,0.000000,0.000000,-1,0.024444,1.876839,-0.167078,-0.049900,0.033455,-0.148187
"2019-04-05 12:10:05.430 +0000",1554466205.429668,1.342076,-1.143474,-2.280074,0.403639,0.910079,-0.093965,0.000000,0.000000,0.000000,-1,-0.081802,0.641552,-0.185185,0.027590,0.044771,-0.108901
"2019-04-05 12:10:05.450 +0000",1554466205.449688,1.347483,-1.147149,-2.278512,0.400876,0.911596,-0.091040,0.000000,0.000000,0.000000,-1,-0.068211,0.034506,-0.133532,0.006137,0.023005,-0.006098
"2019-04-05 12:10:05.470 +0000",1554466205.469677,1.354489,-1.148852,-2.272077,0.399986,0.912295,-0.087895,0.000000,0.000000,0.000000,-1,-0.193991,0.122873,-0.001750,-0.018639,0.018812,0.024037
"2019-04-05 12:10:05.490 +0000",1554466205.489697,1.379332,-1.149210,-2.252296,0.401726,0.912441,-0.077870,0.000000,0.000000,0.000000,-1,-0.540498,0.462299,0.105610,-0.064369,0.006733,-0.035182
"2019-04-05 12:10:05.510 +0000",1554466205.509686,1.423255,-1.149306,-2.214915,0.404671,0.912480,-0.060143,0.000000,0.000000,0.000000,-1,-0.836023,0.418940,0.141369,-0.157433,0.076838,-0.135765
"2019-04-05 12:10:05.530 +0000",1554466205.529675,1.464608,-1.150038,-2.171566,0.406147,0.912780,-0.043291,0.000000,0.000000,0.000000,-1,-0.861962,-0.137087,0.027846,-0.228001,0.140565,-0.219450
"2019-04-05 12:10:05.550 +0000",1554466205.549693,1.487024,-1.151721,-2.139375,0.405485,0.913465,-0.034048,0.000000,0.000000,0.000000,-1,-0.476974,-0.389350,-0.018533,-0.243238,0.132448,-0.139292
"2019-04-05 12:10:05.570 +0000",1554466205.569681,1.490111,-1.152469,-2.132813,0.404907,0.913770,-0.032741,0.000000,0.000000,0.000000,-1,0.057746,0.068457,-0.034479,-0.223754,0.164798,-0.058400
"2019-04-05 12:10:05.590 +0000",1554466205.589701,1.488763,-1.153016,-2.144252,0.404364,0.913992,-0.033246,0.000000,0.000000,0.000000,-1,0.309805,0.624288,-0.031378,-0.187002,0.136744,-0.092456
"2019-04-05 12:10:05.610 +0000",1554466205.609690,1.481131,-1.154957,-2.165603,0.402331,0.914778,-0.036172,0.000000,0.000000,0.000000,-1,0.315129,0.588141,-0.015482,-0.167757,0.059755,-0.162223
"2019-04-05 12:10:05.630 +0000",1554466205.629709,1.475548,-1.157084,-2.179117,0.400185,0.915635,-0.038233,0.000000,0.000000,0.000000,-1,0.115427,0.193867,-0.018255,-0.215630,0.094085,-0.271399
"2019-04-05 12:10:05.650 +0000",1554466205.649699,1.466340,-1.159247,-2.186432,0.397845,0.916502,-0.041709,0.000000,0.000000,0.000000,-1,0.217535,-0.274027,-0.173441,-0.259417,0.238787,-0.206597
"2019-04-05 12:10:05.670 +0000",1554466205.669935,1.437028,-1.162630,-2.213024,0.393377,0.917850,-0.052938,0.000000,0.000000,0.000000,-1,0.716846,-0.161727,-0.247884,-0.265982,0.316433,-0.015574
"2019-04-05 12:10:05.690 +0000",1554466205.689707,1.388183,-1.165864,-2.268094,0.387402,0.919129,-0.071542,0.000000,0.000000,0.000000,-1,1.230136,0.240780,-0.393056,-0.178112,0.332961,0.081246
"2019-04-05 12:10:05.710 +0000",1554466205.709696,1.326641,-1.169055,-2.343756,0.379421,0.920381,-0.094523,0.000000,0.000000,0.000000,-1,1.525711,0.442531,-0.488138,-0.109096,0.144102,0.086299
"2019-04-05 12:10:05.730 +0000",1554466205.729716,1.251494,-1.169653,-2.432215,0.370731,0.920615,-0.122570,0.000000,0.000000,0.000000,-1,1.712276,0.205304,-0.523359,-0.040440,0.066690,0.059139
"2019-04-05 12:10:05.750 +0000",1554466205.749704,1.165015,-1.168347,-2.528011,0.359864,0.920105,-0.154606,0.000000,0.000000,0.000000,-1,1.817762,0.046791,-0.631813,0.018035,0.001832,0.120488
"2019-04-05 12:10:05.770 +0000",1554466205.769723,1.075722,-1.163963,-2.626837,0.348190,0.918378,-0.187996,0.000000,0.000000,0.000000,-1,1.841270,0.124381,-0.635920,0.138794,0.017764,0.212700
"2019-04-05 12:10:05.790 +0000",1554466205.789711,0.997851,-1.156543,-2.717569,0.338227,0.915417,-0.218201,0.000000,0.000000,0.000000,-1,1.686723,0.354150,-0.569845,0.254974,0.105793,0.262681
"2019-04-05 12:10:05.810 +0000",1554466205.809701,0.936749,-1.148402,-2.794178,0.330265,0.912110,-0.242854,0.000000,0.000000,0.000000,-1,1.398740,0.462813,-0.536885,0.272274,0.170349,0.225948
"2019-04-05 12:10:05.830 +0000",1554466205.829720,0.887675,-1.141044,-2.854001,0.323151,0.909069,-0.262992,0.000000,0.000000,0.000000,-1,1.119085,0.081384,-0.429529,0.161621,0.192127,0.117667
"2019-04-05 12:10:05.850 +0000",1554466205.849709,0.830932,-1.133782,-2.907694,0.312583,0.906020,-0.285339,0.000000,0.000000,0.000000,-1,1.118674,-0.679834,-0.490318,0.023888,0.146074,0.040191
"2019-04-05 12:10:05.870 +0000",1554466205.869728,0.760178,-1.124040,-2.968023,0.297698,0.901853,-0.313105,0.000000,0.000000,0.000000,-1,1.366120,-0.734259,-0.569991,-0.049635,0.046725,0.161921
"2019-04-05 12:10:05.890 +0000",1554466205.889716,0.698258,-1.109042,-3.033814,0.286416,0.895272,-0.341250,0.000000,0.000000,0.000000,-1,1.599218,0.301061,-0.559123,-0.071893,-0.058801,0.331057
"2019-04-05 12:10:05.910 +0000",1554466205.909737,0.663707,-1.088365,-3.096420,0.285802,0.885869,-0.365447,0.000000,0.000000,0.000000,-1,1.760980,1.460862,-0.386616,-0.097005,-0.174260,0.355864
"2019-04-05 12:10:05.930 +0000",1554466205.929725,0.647761,-1.064144,3.127979,0.292802,0.874374,-0.386957,0.000000,0.000000,0.000000,-1,1.820938,1.887134,-0.386642,-0.064302,-0.109435,0.235605
"2019-04-05 12:10:05.950 +0000",1554466205.949714,0.634829,-1.041876,3.072069,0.299248,0.863353,-0.406290,0.000000,0.000000,0.000000,-1,1.653280,1.645908,-0.466966,-0.016503,0.017400,0.115824
"2019-04-05 12:10:05.970 +0000",1554466205.969733,0.619091,-1.026208,3.022469,0.300631,0.855340,-0.421916,0.000000,0.000000,0.000000,-1,1.199562,1.179498,-0.601691,0.055998,0.091773,0.119761
"2019-04-05 12:10:05.990 +0000",1554466205.989722,0.607651,-1.018852,2.983185,0.299369,0.851507,-0.430481,0.000000,0.000000,0.000000,-1,0.735438,1.121369,-0.620018,0.052102,-0.015050,0.258011
"2019-04-05 12:10:06.010 +0000",1554466206.009742,0.608369,-1.016001,2.953975,0.301064,0.850008,-0.432256,0.000000,0.000000,0.000000,-1,0.484918,1.371426,-0.484308,0.008216,-0.066576,0.289800
"2019-04-05 12:10:06.030 +0000",1554466206.029731,0.617635,-1.015284,2.932090,0.305409,0.849630,-0.429945,0.000000,0.000000,0.000000,-1,0.296075,1.326923,-0.455195,-0.071995,-0.100729,0.228621
"2019-04-05 12:10:06.050 +0000",1554466206.049750,0.621805,-1.018132,2.913691,0.305789,0.851129,-0.426699,0.000000,0.000000,0.000000,-1,0.101628,0.776364,-0.460544,-0.096453,-0.209604,0.203081
"2019-04-05 12:10:06.070 +0000",1554466206.069737,0.623453,-1.023470,2.900701,0.303835,0.853919,-0.422500,0.000000,0.000000,0.000000,-1,-0.082994,0.618107,-0.412545,-0.069505,-0.287436,0.241684
"2019-04-05 12:10:06.090 +0000",1554466206.089726,0.630534,-1.031141,2.892928,0.302948,0.857886,-0.415035,0.000000,0.000000,0.000000,-1,-0.227993,0.747933,-0.353170,-0.085159,-0.293494,0.253490
"2019-04-05 12:10:06.110 +0000",1554466206.109747,0.647726,-1.040320,2.890078,0.305274,0.862566,-0.403469,0.000000,0.000000,0.000000,-1,-0.384598,1.167995,-0.324982,-0.086020,-0.247606,0.259716
"2019-04-05 12:10:06.130 +0000",1554466206.129735,0.680756,-1.052102,2.892320,0.312013,0.868467,-0.385243,0.000000,0.000000,0.000000,-1,-0.527239,1.762405,-0.280338,-0.091523,-0.204039,0.148686
"2019-04-05 12:10:06.150 +0000",1554466206.149755,0.725440,-1.062986,2.899456,0.322619,0.873812,-0.363827,0.000000,0.000000,0.000000,-1,-0.500429,1.951644,-0.192372,-0.089877,-0.156954,-0.006474
"2019-04-05 12:10:06.170 +0000",1554466206.169744,0.765172,-1.072046,2.904724,0.331319,0.878181,-0.345000,0.000000,0.000000,0.000000,-1,-0.345929,1.600685,-0.233170,-0.076558,-0.047767,-0.081559
"2019-04-05 12:10:06.190 +0000",1554466206.189763,0.789496,-1.081032,2.902887,0.333996,0.882444,-0.331269,0.000000,0.000000,0.000000,-1,-0.257709,1.121100,-0.412901,-0.066402,0.004367,-0.032119
"2019-04-05 12:10:06.210 +0000",1554466206.209752,0.801819,-1.090680,2.895256,0.331918,0.886941,-0.321192,0.000000,0.000000,0.000000,-1,-0.152232,0.891371,-0.464993,-0.025827,-0.023981,0.005976
"2019-04-05 12:10:06.230 +0000",1554466206.229741,0.810333,-1.098917,2.886245,0.329336,0.890716,-0.313309,0.000000,0.000000,0.000000,-1,-0.153334,0.787193,-0.432197,-0.009588,-0.033843,-0.004852
"2019-04-05 12:10:06.250 +0000",1554466206.249760,0.821600,-1.109945,2.882820,0.325633,0.895674,-0.302870,0.000000,0.000000,0.000000,-1,-0.415853,0.667250,-0.453281,0.009236,-0.038374,-0.015123
"2019-04-05 12:10:06.270 +0000",1554466206.269746,0.836100,-1.123751,2.886658,0.320784,0.901728,-0.289799,0.000000,0.000000,0.000000,-1,-0.551432,0.470677,-0.432176,0.081118,-0.014857,0.022297
"2019-04-05 12:10:06.290 +0000",1554466206.289766,0.850099,-1.135590,2.894731,0.316765,0.906783,-0.278216,0.000000,0.000000,0.000000,-1,-0.484225,0.278245,-0.249311,0.058052,-0.022750,0.044955
"2019-04-05 12:10:06.310 +0000",1554466206.309754,0.868061,-1.145104,2.906941,0.315114,0.910753,-0.266894,0.000000,0.000000,0.000000,-1,-0.537467,0.399503,-0.167755,-0.038792,0.029539,0.024294
"2019-04-05 12:10:06.330 +0000",1554466206.329774,0.897222,-1.155571,2.927147,0.315293,0.915025,-0.251632,0.000000,0.000000,0.000000,-1,-0.743262,0.608034,-0.156047,-0.130646,0.004393,-0.077989
"2019-04-05 12:10:06.350 +0000",1554466206.349763,0.932068,-1.166803,2.953135,0.315596,0.919499,-0.234352,0.000000,0.000000,0.000000,-1,-0.741213,0.442182,-0.159710,-0.128661,0.011196,-0.186669
"2019-04-05 12:10:06.370 +0000",1554466206.369752,0.954684,-1.176284,2.972480,0.313686,0.923184,-0.222108,0.000000,0.000000,0.000000,-1,-0.497082,0.157060,-0.237878,-0.039257,-0.009137,-0.199890
"2019-04-05 12:10:06.390 +0000",1554466206.389770,0.966720,-1.184728,2.980621,0.309910,0.926396,-0.213881,0.000000,0.000000,0.000000,-1,-0.311370,0.320642,-0.245313,0.033505,-0.081502,-0.244753
"2019-04-05 12:10:06.410 +0000",1554466206.409759,0.976322,-1.190389,2.980506,0.307599,0.928513,-0.207954,0.000000,0.000000,0.000000,-1,-0.133006,0.611833,-0.141400,0.084003,0.004974,-0.288002
"2019-04-05 12:10:06.430 +0000",1554466206.429779,0.982233,-1.191547,2.971049,0.307928,0.928943,-0.205535,0.000000,0.000000,0.000000,-1,0.161613,0.881664,-0.080491,0.107355,0.237287,-0.113908
"2019-04-05 12:10:06.450 +0000",1554466206.449768,0.980596,-1.187773,2.946350,0.310501,0.927539,-0.207988,0.000000,0.000000,0.000000,-1,0.714386,1.162979,-0.087359,0.113907,0.323132,0.042278
"2019-04-05 12:10:06.470 +0000",1554466206.469787,0.966736,-1.177390,2.902695,0.315499,0.923608,-0.217730,0.000000,0.000000,0.000000,-1,1.084753,1.409370,-0.003208,0.147132,0.280661,0.103442
"2019-04-05 12:10:06.490 +0000",1554466206.489775,0.949498,-1.163546,2.854568,0.322066,0.918213,-0.230558,0.000000,0.000000,0.000000,-1,1.223396,1.243434,0.064320,0.131654,0.178054,0.185468
"2019-04-05 12:10:06.510 +0000",1554466206.509765,0.921764,-1.146740,2.806933,0.327798,0.911428,-0.248693,0.000000,0.000000,0.000000,-1,1.291319,0.465186,0.129251,0.041862,0.128932,0.250662
"2019-04-05 12:10:06.530 +0000",1554466206.529784,0.878718,-1.130143,2.762534,0.328395,0.904473,-0.272185,0.000000,0.000000,0.000000,-1,1.211845,-0.495851,0.037142,0.038885,0.088828,0.291366
"2019-04-05 12:10:06.550 +0000",1554466206.549773,0.826490,-1.117090,2.727493,0.322395,0.898829,-0.296931,0.000000,0.000000,0.000000,-1,0.834800,-1.330141,-0.012333,0.104012,0.019399,0.307337
"2019-04-05 12:10:06.570 +0000",1554466206.569792,0.780972,-1.111473,2.713655,0.312099,0.896353,-0.314874,0.000000,0.000000,0.000000,-1,0.130476,-1.733600,0.003076,0.227742,0.100824,0.314630
"2019-04-05 12:10:06.590 +0000",1554466206.589782,0.774674,-1.120383,2.733183,0.304511,0.900267,-0.311113,0.000000,0.000000,0.000000,-1,-1.103355,-0.679110,0.009819,0.266061,0.240114,0.342760
"2019-04-05 12:10:06.610 +0000",1554466206.609801,0.832701,-1.142274,2.791607,0.307387,0.909581,-0.279600,0.000000,0.000000,0.000000,-1,-1.819533,0.739669,0.101775,0.157884,0.146816,0.328367
"2019-04-05 12:10:06.630 +0000",1554466206.629789,0.925302,-1.163778,2.864683,0.316224,0.918305,-0.238154,0.000000,0.000000,0.000000,-1,-1.800948,1.571042,0.168053,0.058166,0.014892,0.251689
"2019-04-05 12:10:06.650 +0000",1554466206.649778,1.043139,-1.180234,2.951769,0.328928,0.924695,-0.191691,0.000000,0.000000,0.000000,-1,-1.926575,1.978346,0.285775,0.008139,0.016070,0.026835
