timestamp,timeIntervalSince1970,attitude.roll,attitude.pitch,attitude.yaw,gravity.x,gravity.y,gravity.z,magneticField.x,magneticField.y,magneticField.z,magneticField.accuracy,rotationRate.x,rotationRate.y,rotationRate.z,userAcceleration.x,userAcceleration.y,userAcceleration.z
"2019-05-06 15:55:57.617 +0000",1557158157.616766,0.177786,0.706823,-0.121633,0.134483,-0.649421,-0.748443,0.000000,0.000000,0.000000,-1,-0.504896,-0.952200,-0.624408,0.054955,0.048912,-0.074952
"2019-05-06 15:55:57.637 +0000",1557158157.636726,0.164491,0.695367,-0.134731,0.125730,-0.640667,-0.757455,0.000000,0.000000,0.000000,-1,-0.429172,-1.210477,-0.587577,0.106707,0.068920,-0.079887
"2019-05-06 15:55:57.657 +0000",1557158157.656683,0.148218,0.686378,-0.149388,0.114234,-0.633739,-0.765065,0.000000,0.000000,0.000000,-1,-0.290384,-1.326559,-0.677845,0.136696,0.079510,-0.114024
"2019-05-06 15:55:57.677 +0000",1557158157.676672,0.133426,0.679645,-0.166714,0.103470,-0.628517,-0.770883,0.000000,0.000000,0.000000,-1,-0.188967,-1.204462,-0.722041,0.155609,0.095299,-0.140540
"2019-05-06 15:55:57.697 +0000",1557158157.696630,0.121263,0.675361,-0.183369,0.094412,-0.625179,-0.774750,0.000000,0.000000,0.000000,-1,-0.063098,-1.069382,-0.609968,0.172678,0.118495,-0.152160
"2019-05-06 15:55:57.717 +0000",1557158157.716587,0.111216,0.674862,-0.197191,0.086658,-0.624790,-0.775969,0.000000,0.000000,0.000000,-1,0.146131,-0.782765,-0.472254,0.191159,0.143710,-0.158952
"2019-05-06 15:55:57.737 +0000",1557158157.736577,0.105588,0.678438,-0.208881,0.082053,-0.627577,-0.774218,0.000000,0.000000,0.000000,-1,0.270808,-0.529287,-0.416524,0.184121,0.156523,-0.141507
"2019-05-06 15:55:57.757 +0000",1557158157.756535,0.103739,0.682343,-0.220410,0.080368,-0.630613,-0.771925,0.000000,0.000000,0.000000,-1,0.183717,-0.406783,-0.436790,0.203888,0.140623,-0.116594
"2019-05-06 15:55:57.776 +0000",1557158157.776491,0.104152,0.683496,-0.232438,0.080610,-0.631508,-0.771168,0.000000,0.000000,0.000000,-1,0.039971,-0.281866,-0.484058,0.215517,0.108452,-0.117626
"2019-05-06 15:55:57.796 +0000",1557158157.796451,0.117198,0.676543,-0.245454,0.091175,-0.626102,-0.774393,0.000000,0.000000,0.000000,-1,-0.803127,0.809751,-0.497466,0.214459,0.230304,-0.056647
"2019-05-06 15:55:57.816 +0000",1557158157.816438,0.138913,0.657075,-0.248442,0.109636,-0.610804,-0.784155,0.000000,0.000000,0.000000,-1,-0.906712,1.304792,-0.078805,0.227996,0.208765,-0.109064
"2019-05-06 15:55:57.836 +0000",1557158157.836395,0.165558,0.642547,-0.250143,0.131936,-0.599237,-0.789625,0.000000,0.000000,0.000000,-1,-0.638160,0.821187,-0.444457,0.262397,0.167367,0.036696
"2019-05-06 15:55:57.856 +0000",1557158157.856354,0.177866,0.625379,-0.264488,0.143444,-0.585405,-0.797951,0.000000,0.000000,0.000000,-1,-0.810777,-0.528384,-0.787878,0.031132,0.123735,0.175423
"2019-05-06 15:55:57.876 +0000",1557158157.876344,0.168827,0.617109,-0.274421,0.137034,-0.578679,-0.803960,0.000000,0.000000,0.000000,-1,0.215900,-1.007113,-0.242780,0.038854,0.092809,0.213307
"2019-05-06 15:55:57.896 +0000",1557158157.896300,0.154901,0.623562,-0.285493,0.125247,-0.583931,-0.802084,0.000000,0.000000,0.000000,-1,0.392453,-0.972665,-0.533032,0.187070,0.207252,-0.083597
"2019-05-06 15:55:57.916 +0000",1557158157.916259,0.149206,0.628287,-0.301574,0.120266,-0.587760,-0.800047,0.000000,0.000000,0.000000,-1,0.353449,-0.569612,-0.671636,0.199467,0.079901,-0.113375
"2019-05-06 15:55:57.936 +0000",1557158157.936217,0.166042,0.616362,-0.329018,0.134867,-0.578071,-0.804764,0.000000,0.000000,0.000000,-1,0.549202,-0.465233,-0.579286,0.174765,0.065711,-0.139099
"2019-05-06 15:55:57.956 +0000",1557158157.956207,0.169048,0.626717,-0.343346,0.136270,-0.586489,-0.798412,0.000000,0.000000,0.000000,-1,0.655893,-0.091232,-0.418888,0.126349,0.031939,-0.127202
"2019-05-06 15:55:57.976 +0000",1557158157.976165,0.186876,0.625705,-0.364483,0.150592,-0.585669,-0.796439,0.000000,0.000000,0.000000,-1,0.729743,-0.229122,-0.493692,0.091138,0.007879,-0.229578
"2019-05-06 15:55:57.996 +0000",1557158157.996121,0.190237,0.637580,-0.381382,0.151942,-0.595253,-0.789042,0.000000,0.000000,0.000000,-1,0.618717,-0.386025,-0.688492,0.118230,-0.088753,-0.178319
"2019-05-06 15:55:58.016 +0000",1557158158.016111,0.207477,0.633250,-0.410876,0.166051,-0.591768,-0.788820,0.000000,0.000000,0.000000,-1,0.229880,-0.217635,-1.115199,0.139857,-0.113310,-0.120222
"2019-05-06 15:55:58.036 +0000",1557158158.036069,0.221970,0.629306,-0.443736,0.177978,-0.588584,-0.788602,0.000000,0.000000,0.000000,-1,-0.005963,-0.376891,-1.555266,0.055145,-0.085244,-0.141452
"2019-05-06 15:55:58.056 +0000",1557158158.056028,0.237119,0.613952,-0.487140,0.192005,-0.576103,-0.794506,0.000000,0.000000,0.000000,-1,-0.116772,-1.176795,-1.703731,0.006497,-0.123879,-0.168873
"2019-05-06 15:55:58.076 +0000",1557158158.076015,0.227412,0.602383,-0.524477,0.185774,-0.566608,-0.802772,0.000000,0.000000,0.000000,-1,-0.314374,-1.850369,-1.486187,-0.063322,-0.183026,-0.137184
"2019-05-06 15:55:58.096 +0000",1557158158.095974,0.209003,0.582316,-0.556821,0.173289,-0.549960,-0.817016,0.000000,0.000000,0.000000,-1,-0.653766,-2.122478,-1.265308,-0.031245,-0.216916,-0.079102
"2019-05-06 15:55:58.116 +0000",1557158158.115932,0.177439,0.560702,-0.581954,0.149483,-0.531781,-0.833585,0.000000,0.000000,0.000000,-1,-1.063307,-2.418901,-1.299256,-0.042885,-0.248370,-0.002795
"2019-05-06 15:55:58.136 +0000",1557158158.135892,0.143091,0.530638,-0.610816,0.122993,-0.506084,-0.853670,0.000000,0.000000,0.000000,-1,-1.132434,-2.766162,-1.386508,-0.023643,-0.139195,0.097230
"2019-05-06 15:55:58.156 +0000",1557158158.155878,0.099948,0.505830,-0.637864,0.087286,-0.484534,-0.870407,0.000000,0.000000,0.000000,-1,-1.037549,-2.823216,-1.223864,-0.148367,-0.018411,0.224334
"2019-05-06 15:55:58.176 +0000",1557158158.175837,0.057191,0.481121,-0.663743,0.050671,-0.462773,-0.885028,0.000000,0.000000,0.000000,-1,-0.979507,-2.972077,-1.218843,-0.172985,0.015584,0.322802
"2019-05-06 15:55:58.196 +0000",1557158158.195795,0.005645,0.461951,-0.696051,0.005054,-0.445695,-0.895171,0.000000,0.000000,0.000000,-1,-0.818518,-3.687546,-1.742978,0.022397,0.108781,0.374525
"2019-05-06 15:55:58.216 +0000",1557158158.215785,-0.053874,0.447737,-0.737053,-0.048540,-0.432927,-0.900121,0.000000,0.000000,0.000000,-1,-0.733250,-3.964835,-1.786793,0.012422,0.172887,0.429418
"2019-05-06 15:55:58.236 +0000",1557158158.235741,-0.114546,0.435187,-0.776021,-0.103642,-0.421580,-0.900849,0.000000,0.000000,0.000000,-1,-0.720424,-3.806197,-1.592472,-0.195186,0.124156,0.509736
"2019-05-06 15:55:58.256 +0000",1557158158.255699,-0.176900,0.429244,-0.809768,-0.160014,-0.416183,-0.895090,0.000000,0.000000,0.000000,-1,-0.316296,-3.907772,-1.410055,-0.252095,0.307114,0.474345
"2019-05-06 15:55:58.276 +0000",1557158158.275657,-0.246665,0.432409,-0.844494,-0.221698,-0.419059,-0.880477,0.000000,0.000000,0.000000,-1,-0.076272,-4.653962,-1.886041,-0.096692,0.495308,0.303023
"2019-05-06 15:55:58.296 +0000",1557158158.295647,-0.331474,0.445321,-0.891173,-0.293698,-0.430747,-0.853345,0.000000,0.000000,0.000000,-1,0.147765,-5.803664,-2.424435,-0.006198,0.595725,0.237791
"2019-05-06 15:55:58.316 +0000",1557158158.315605,-0.435418,0.465815,-0.934693,-0.376850,-0.449151,-0.810091,0.000000,0.000000,0.000000,-1,0.289532,-6.354578,-1.839092,-0.321209,0.523324,0.249697
"2019-05-06 15:55:58.336 +0000",1557158158.335562,-0.550667,0.485909,-0.958897,-0.462689,-0.467012,-0.753537,0.000000,0.000000,0.000000,-1,0.493463,-6.324750,-1.086849,-0.468402,0.512926,0.262265
"2019-05-06 15:55:58.356 +0000",1557158158.355550,-0.672112,0.507080,-0.969108,-0.544291,-0.485627,-0.684043,0.000000,0.000000,0.000000,-1,0.711109,-6.296651,-0.965769,-0.292807,0.577622,0.195899
"2019-05-06 15:55:58.376 +0000",1557158158.375510,-0.792973,0.536211,-0.975367,-0.612452,-0.510883,-0.603243,0.000000,0.000000,0.000000,-1,1.138580,-5.990190,-1.500332,-0.051687,0.589740,0.170870
"2019-05-06 15:55:58.395 +0000",1557158158.395467,-0.894042,0.582137,-0.976022,-0.651199,-0.549810,-0.523114,0.000000,0.000000,0.000000,-1,1.889333,-3.814988,-1.843878,-0.070999,0.511267,0.248883
"2019-05-06 15:55:58.415 +0000",1557158158.415425,-0.951582,0.637197,-0.959597,-0.654535,-0.594945,-0.466503,0.000000,0.000000,0.000000,-1,2.415413,-1.216952,-1.781787,-0.395834,0.452504,0.235103
"2019-05-06 15:55:58.435 +0000",1557158158.435414,-0.983115,0.693461,-0.933865,-0.640015,-0.639203,-0.426380,0.000000,0.000000,0.000000,-1,2.351250,-0.695658,-1.634799,-0.565093,0.345303,-0.065670
"2019-05-06 15:55:58.455 +0000",1557158158.455371,-1.018192,0.739863,-0.909162,-0.628634,-0.674186,-0.387675,0.000000,0.000000,0.000000,-1,1.681415,-1.197791,-1.259121,-0.671781,0.152122,-0.295690
"2019-05-06 15:55:58.475 +0000",1557158158.475329,-1.060390,0.771977,-0.889079,-0.625208,-0.697553,-0.350049,0.000000,0.000000,0.000000,-1,1.338316,-1.622497,-0.755032,-0.595510,0.091963,-0.236438
"2019-05-06 15:55:58.495 +0000",1557158158.495318,-1.112985,0.796111,-0.861897,-0.627459,-0.714641,-0.309166,0.000000,0.000000,0.000000,-1,1.547405,-1.571668,-0.600808,-0.377271,0.065288,-0.096916
"2019-05-06 15:55:58.515 +0000",1557158158.515275,-1.163376,0.824162,-0.823878,-0.623580,-0.733979,-0.269117,0.000000,0.000000,0.000000,-1,2.002681,-0.534630,-0.879906,-0.135774,0.001038,0.001615
"2019-05-06 15:55:58.535 +0000",1557158158.535234,-1.191635,0.855857,-0.772751,-0.609010,-0.755133,-0.242654,0.000000,0.000000,0.000000,-1,2.267376,1.388283,-0.624019,-0.187392,-0.051599,0.007745
"2019-05-06 15:55:58.555 +0000",1557158158.555192,-1.201610,0.877558,-0.716331,-0.595974,-0.769180,-0.230599,0.000000,0.000000,0.000000,-1,1.868449,1.625256,-0.099267,-0.251651,-0.094269,-0.246421
"2019-05-06 15:55:58.575 +0000",1557158158.575181,-1.212579,0.888700,-0.670120,-0.590404,-0.776253,-0.221029,0.000000,0.000000,0.000000,-1,1.256534,0.894306,0.027179,-0.065831,-0.113334,-0.434870
"2019-05-06 15:55:58.595 +0000",1557158158.595139,-1.214783,0.897765,-0.642583,-0.584271,-0.781936,-0.217266,0.000000,0.000000,0.000000,-1,0.697662,1.354146,-0.330549,0.247234,-0.090242,-0.364186
"2019-05-06 15:55:58.615 +0000",1557158158.615097,-1.168573,0.912158,-0.638629,-0.563195,-0.790826,-0.239593,0.000000,0.000000,0.000000,-1,0.036147,3.779036,-0.965804,0.503930,-0.054129,-0.171326
"2019-05-06 15:55:58.635 +0000",1557158158.635085,-1.047813,0.926003,-0.689312,-0.520695,-0.799224,-0.300196,0.000000,0.000000,0.000000,-1,-2.010470,4.583982,-1.597064,0.607685,-0.274003,-0.674535
"2019-05-06 15:55:58.655 +0000",1557158158.655044,-0.878447,0.930959,-0.773374,-0.459590,-0.802193,-0.381135,0.000000,0.000000,0.000000,-1,-1.744770,5.193671,-1.522174,0.244716,0.026253,0.079941
"2019-05-06 15:55:58.675 +0000",1557158158.675001,-0.734755,0.934250,-0.834521,-0.398503,-0.804154,-0.441058,0.000000,0.000000,0.000000,-1,-0.679841,4.072515,-1.038412,-0.058894,-0.070678,-0.009595
"2019-05-06 15:55:58.695 +0000",1557158158.694990,-0.639455,0.936877,-0.866154,-0.353464,-0.805712,-0.475280,0.000000,0.000000,0.000000,-1,-0.351885,3.067907,-0.629022,-0.182394,-0.286619,-0.155793
"2019-05-06 15:55:58.715 +0000",1557158158.714948,-0.560505,0.938441,-0.889110,-0.314209,-0.806638,-0.500608,0.000000,0.000000,0.000000,-1,-0.331477,3.192584,-0.669139,0.029174,-0.244739,-0.013979
"2019-05-06 15:55:58.735 +0000",1557158158.734905,-0.461765,0.939390,-0.923595,-0.262987,-0.807198,-0.528459,0.000000,0.000000,0.000000,-1,-0.599095,3.937175,-1.228587,0.309710,0.019524,0.058779
"2019-05-06 15:55:58.755 +0000",1557158158.754865,-0.336391,0.938581,-0.976674,-0.195057,-0.806720,-0.557813,0.000000,0.000000,0.000000,-1,-0.606956,4.307639,-1.566343,0.215595,-0.000790,0.106931
"2019-05-06 15:55:58.775 +0000",1557158158.774853,-0.208908,0.940433,-1.029603,-0.122244,-0.807813,-0.576623,0.000000,0.000000,0.000000,-1,0.050428,4.113750,-1.361490,-0.052652,-0.027849,0.238076
"2019-05-06 15:55:58.795 +0000",1557158158.794810,-0.107911,0.951540,-1.064850,-0.062513,-0.814310,-0.577054,0.000000,0.000000,0.000000,-1,0.566004,3.121491,-0.823058,-0.259493,0.082590,0.025418
"2019-05-06 15:55:58.815 +0000",1557158158.814770,-0.030006,0.960249,-1.088548,-0.017200,-0.819334,-0.573058,0.000000,0.000000,0.000000,-1,0.104430,2.941415,-0.713073,-0.074673,0.179411,-0.119722
"2019-05-06 15:55:58.835 +0000",1557158158.834758,0.058220,0.954969,-1.115870,0.033611,-0.816296,-0.576656,0.000000,0.000000,0.000000,-1,-0.553626,3.694498,-0.875562,0.143437,0.153271,-0.107533
"2019-05-06 15:55:58.855 +0000",1557158158.854715,0.156483,0.942000,-1.142354,0.091664,-0.808736,-0.580985,0.000000,0.000000,0.000000,-1,-0.371582,3.807280,-0.717853,0.021373,-0.065226,0.020285
"2019-05-06 15:55:58.875 +0000",1557158158.874674,0.240688,0.940351,-1.158750,0.140521,-0.807765,-0.572512,0.000000,0.000000,0.000000,-1,0.433418,3.218204,-0.255622,-0.295992,-0.214238,0.150225
"2019-05-06 15:55:58.895 +0000",1557158158.894632,0.303177,0.955178,-1.167699,0.172404,-0.816416,-0.551127,0.000000,0.000000,0.000000,-1,1.041230,2.411204,0.113554,-0.277308,-0.201711,0.049678
"2019-05-06 15:55:58.915 +0000",1557158158.914620,0.354662,0.975294,-1.174622,0.194794,-0.827867,-0.526015,0.000000,0.000000,0.000000,-1,0.998753,2.240720,0.166149,-0.004182,-0.177657,0.012465
"2019-05-06 15:55:58.935 +0000",1557158158.934580,0.406399,0.995125,-1.179155,0.215203,-0.838827,-0.500057,0.000000,0.000000,0.000000,-1,0.919810,2.559618,0.287489,-0.032342,-0.111948,-0.070439
"2019-05-06 15:55:58.955 +0000",1557158158.954597,0.463211,1.009574,-1.183478,0.237809,-0.846605,-0.476137,0.000000,0.000000,0.000000,-1,0.481826,2.601054,0.053111,-0.003403,-0.141905,-0.185805
"2019-05-06 15:55:58.975 +0000",1557158158.974562,0.517597,1.017482,-1.193711,0.260019,-0.850788,-0.456674,0.000000,0.000000,0.000000,-1,0.709150,1.969104,-0.052483,0.086005,-0.153927,-0.027884
"2019-05-06 15:55:58.995 +0000",1557158158.994521,0.560296,1.036061,-1.208271,0.270827,-0.860404,-0.431692,0.000000,0.000000,0.000000,-1,1.294065,0.935778,0.426256,-0.085647,-0.056344,0.050207
"2019-05-06 15:55:59.014 +0000",1557158159.014479,0.583430,1.068678,-1.220807,0.265134,-0.876565,-0.401669,0.000000,0.000000,0.000000,-1,1.826930,0.563416,0.745769,-0.063016,0.097192,0.109158
"2019-05-06 15:55:59.034 +0000",1557158159.034468,0.602131,1.102977,-1.229883,0.255413,-0.892554,-0.371634,0.000000,0.000000,0.000000,-1,1.088484,0.407073,0.774161,0.009312,0.111624,-0.247430
"2019-05-06 15:55:59.054 +0000",1557158159.054428,0.598577,1.119251,-1.221733,0.245873,-0.899774,-0.360491,0.000000,0.000000,0.000000,-1,0.393031,-0.059801,0.266752,0.091270,0.104943,-0.413633
"2019-05-06 15:55:59.074 +0000",1557158159.074384,0.617368,1.118913,-1.257152,0.252779,-0.899626,-0.356055,0.000000,0.000000,0.000000,-1,0.501769,-1.415361,-1.846501,0.324064,0.388808,-0.280709
"2019-05-06 15:55:59.094 +0000",1557158159.094343,0.692118,1.095938,-1.379841,0.291779,-0.889357,-0.352006,0.000000,0.000000,0.000000,-1,1.476805,-1.500460,-3.298269,0.414291,0.782759,-0.462569
"2019-05-06 15:55:59.114 +0000",1557158159.114330,0.786910,1.083122,-1.522760,0.331831,-0.883425,-0.330829,0.000000,0.000000,0.000000,-1,1.885475,-1.700879,-2.121059,-0.001814,0.269686,-0.332607
"2019-05-06 15:55:59.134 +0000",1557158159.134287,0.803593,1.086070,-1.584994,0.335428,-0.884802,-0.323439,0.000000,0.000000,0.000000,-1,0.169689,-1.840834,-0.010870,-0.344187,-0.046853,-0.638811
"2019-05-06 15:55:59.154 +0000",1557158159.154246,0.757704,1.073761,-1.553638,0.327698,-0.879000,-0.346371,0.000000,0.000000,0.000000,-1,-1.696525,-0.450733,0.102900,-0.225541,-0.217191,-0.686329
"2019-05-06 15:55:59.174 +0000",1557158159.174234,0.705777,1.042112,-1.512829,0.327165,-0.863471,-0.383901,0.000000,0.000000,0.000000,-1,-1.506607,-1.065911,-0.852278,-0.022508,-0.172341,-0.191599
"2019-05-06 15:55:59.194 +0000",1557158159.194192,0.689662,1.007475,-1.524974,0.339770,-0.845486,-0.411958,0.000000,0.000000,0.000000,-1,-0.781977,-1.513536,-1.734582,-0.019000,-0.368137,0.081514
"2019-05-06 15:55:59.214 +0000",1557158159.214151,0.690050,0.974290,-1.563588,0.357600,-0.827303,-0.433234,0.000000,0.000000,0.000000,-1,-0.199677,-1.574059,-1.956172,0.059728,-0.426756,0.242072
"2019-05-06 15:55:59.234 +0000",1557158159.234139,0.711558,0.951999,-1.629238,0.378785,-0.814577,-0.439303,0.000000,0.000000,0.000000,-1,1.057451,-1.706059,-2.400815,0.225036,-0.354567,0.422655
"2019-05-06 15:55:59.254 +0000",1557158159.254097,0.764684,0.944317,-1.735981,0.405898,-0.810097,-0.423072,0.000000,0.000000,0.000000,-1,2.637542,-1.477795,-2.635427,0.310151,-0.246513,0.532111
"2019-05-06 15:55:59.274 +0000",1557158159.274056,0.855376,0.951327,-1.872840,0.438250,-0.814187,-0.380838,0.000000,0.000000,0.000000,-1,3.487079,-0.550506,-2.293926,0.289213,-0.072410,0.384271
"2019-05-06 15:55:59.294 +0000",1557158159.294013,0.961110,0.963918,-2.012681,0.467552,-0.821433,-0.326563,0.000000,0.000000,0.000000,-1,3.669135,-0.588874,-1.751240,0.186302,-0.091226,0.153803
"2019-05-06 15:55:59.314 +0000",1557158159.314001,1.064656,0.970636,-2.153521,0.493965,-0.825245,-0.273806,0.000000,0.000000,0.000000,-1,3.444295,-0.607087,-1.958834,0.236184,-0.091625,0.012835
"2019-05-06 15:55:59.334 +0000",1557158159.333960,1.162269,0.962609,-2.289136,0.524360,-0.820685,-0.226986,0.000000,0.000000,0.000000,-1,3.098700,-0.718743,-2.107943,0.125329,-0.055673,-0.069691
"2019-05-06 15:55:59.354 +0000",1557158159.353917,1.249665,0.944804,-2.406596,0.555950,-0.810382,-0.184934,0.000000,0.000000,0.000000,-1,2.629393,-0.069907,-1.932655,0.011265,-0.082471,-0.167269
"2019-05-06 15:55:59.374 +0000",1557158159.373906,1.329751,0.925839,-2.505074,0.583784,-0.799126,-0.143509,0.000000,0.000000,0.000000,-1,2.537120,-0.145848,-1.472476,-0.120664,-0.112434,-0.313797
"2019-05-06 15:55:59.394 +0000",1557158159.393864,1.387723,0.911903,-2.590333,0.602011,-0.790670,-0.111460,0.000000,0.000000,0.000000,-1,2.095118,-0.626026,-1.022871,-0.261847,-0.187296,-0.558340
"2019-05-06 15:55:59.414 +0000",1557158159.413822,1.422319,0.899602,-2.646173,0.615079,-0.783080,-0.092002,0.000000,0.000000,0.000000,-1,1.106026,-0.316882,-0.790139,-0.298154,-0.075166,-0.423287
"2019-05-06 15:55:59.434 +0000",1557158159.433781,1.440701,0.887403,-2.673445,0.626092,-0.775434,-0.081915,0.000000,0.000000,0.000000,-1,0.532837,0.024877,-0.711181,-0.218606,0.047178,-0.348688
"2019-05-06 15:55:59.454 +0000",1557158159.453770,1.452255,0.874173,-2.691125,0.637129,-0.767013,-0.075882,0.000000,0.000000,0.000000,-1,0.552228,-0.276889,-0.676907,-0.130873,0.113418,-0.264099
"2019-05-06 15:55:59.474 +0000",1557158159.473727,1.457777,0.863786,-2.712114,0.645419,-0.760307,-0.073257,0.000000,0.000000,0.000000,-1,0.654428,-0.755616,-0.522907,-0.236545,0.014732,-0.153336
"2019-05-06 15:55:59.494 +0000",1557158159.493686,1.456118,0.856497,-2.730708,0.650785,-0.755553,-0.074960,0.000000,0.000000,0.000000,-1,0.520658,-0.573930,-0.343582,-0.165693,0.030058,-0.108146
"2019-05-06 15:55:59.514 +0000",1557158159.513674,1.463281,0.852595,-2.745115,0.654232,-0.752990,-0.070612,0.000000,0.000000,0.000000,-1,0.419407,0.178463,-0.177280,-0.008404,0.141250,-0.029119
"2019-05-06 15:55:59.534 +0000",1557158159.533631,1.480806,0.847442,-2.761764,0.659225,-0.749590,-0.059485,0.000000,0.000000,0.000000,-1,0.763812,0.162676,-0.497985,0.084306,0.135652,0.009802
"2019-05-06 15:55:59.554 +0000",1557158159.553590,1.496693,0.838155,-2.789693,0.667000,-0.743411,-0.049517,0.000000,0.000000,0.000000,-1,0.990994,-0.682725,-0.550809,-0.115715,-0.088834,0.026736
"2019-05-06 15:55:59.574 +0000",1557158159.573548,1.498415,0.827472,-2.820481,0.674967,-0.736223,-0.048940,0.000000,0.000000,0.000000,-1,1.051148,-1.246193,-0.691803,-0.078410,-0.068007,0.036596
"2019-05-06 15:55:59.594 +0000",1557158159.593536,1.501829,0.814945,-2.856985,0.684277,-0.727688,-0.047268,0.000000,0.000000,0.000000,-1,1.295518,-0.904971,-0.771373,0.131976,-0.022983,0.083660
"2019-05-06 15:55:59.613 +0000",1557158159.613495,1.519587,0.800568,-2.892950,0.695386,-0.717752,-0.035641,0.000000,0.000000,0.000000,-1,1.144886,0.165371,-0.785354,0.269900,-0.054480,0.074322
"2019-05-06 15:55:59.633 +0000",1557158159.633453,1.551153,0.789030,-2.919667,0.704398,-0.709670,-0.013839,0.000000,0.000000,0.000000,-1,0.569299,0.988314,-0.341834,0.162332,-0.019944,-0.042726
"2019-05-06 15:55:59.653 +0000",1557158159.653441,1.574584,0.787536,-2.924022,0.705589,-0.708617,0.002672,0.000000,0.000000,0.000000,-1,-0.170351,0.992274,0.049119,-0.195472,0.241591,-0.321413
"2019-05-06 15:55:59.673 +0000",1557158159.673399,1.577552,0.789850,-2.909301,0.703936,-0.710248,0.004756,0.000000,0.000000,0.000000,-1,-0.814970,0.336841,0.201256,-0.389529,0.184186,-0.367335
"2019-05-06 15:55:59.693 +0000",1557158159.693358,1.557153,0.795801,-2.882364,0.699648,-0.714424,-0.009546,0.000000,0.000000,0.000000,-1,-0.774374,-0.552492,0.399882,-0.418260,0.141182,-0.370108
"2019-05-06 15:55:59.713 +0000",1557158159.713346,1.531900,0.808976,-2.861827,0.689718,-0.723581,-0.026841,0.000000,0.000000,0.000000,-1,-0.775975,-0.377888,0.907120,-0.357626,0.126519,-0.218368
"2019-05-06 15:55:59.733 +0000",1557158159.733304,1.502411,0.824772,-2.831535,0.677138,-0.734393,-0.046378,0.000000,0.000000,0.000000,-1,-0.951317,-0.335338,0.584896,-0.171874,-0.019391,-0.063607
"2019-05-06 15:55:59.753 +0000",1557158159.753262,1.488079,0.827420,-2.818474,0.674463,-0.736188,-0.055917,0.000000,0.000000,0.000000,-1,0.225968,-0.307712,-0.102040,-0.008539,-0.351596,0.179773
"2019-05-06 15:55:59.773 +0000",1557158159.773220,1.487353,0.825986,-2.837902,0.675474,-0.735217,-0.056495,0.000000,0.000000,0.000000,-1,0.978215,-0.987305,-0.141116,0.022677,-0.271100,0.148780
"2019-05-06 15:55:59.793 +0000",1557158159.793209,1.487446,0.825788,-2.861609,0.675625,-0.735082,-0.056445,0.000000,0.000000,0.000000,-1,0.523110,-0.636915,-0.025743,0.041874,-0.142390,-0.032041
"2019-05-06 15:55:59.813 +0000",1557158159.813167,1.488855,0.825989,-2.873183,0.675556,-0.735219,-0.055480,0.000000,0.000000,0.000000,-1,0.308121,-0.111020,-0.001219,0.097256,-0.135890,-0.018464
"2019-05-06 15:55:59.833 +0000",1557158159.833125,1.493727,0.827329,-2.878851,0.674835,-0.736126,-0.052113,0.000000,0.000000,0.000000,-1,0.113802,0.119521,0.087058,-0.045929,-0.044575,0.018803
"2019-05-06 15:55:59.853 +0000",1557158159.853113,1.494413,0.830188,-2.886307,0.672770,-0.738058,-0.051489,0.000000,0.000000,0.000000,-1,0.503095,-0.214788,0.371410,-0.153177,0.228369,-0.080088
"2019-05-06 15:55:59.873 +0000",1557158159.873071,1.550288,0.870850,-2.916256,0.644041,-0.764877,-0.013210,0.000000,0.000000,0.000000,-1,1.381308,3.029983,2.861298,0.220934,0.680343,-0.062473
"2019-05-06 15:55:59.893 +0000",1557158159.893029,1.644814,0.910234,-2.953402,0.611881,-0.789648,0.045373,0.000000,0.000000,0.000000,-1,0.679644,2.374914,0.632883,0.358868,-0.038096,-0.014062
"2019-05-06 15:55:59.913 +0000",1557158159.912987,1.664748,0.911803,-2.948015,0.609621,-0.790609,0.057444,0.000000,0.000000,0.000000,-1,-0.947204,0.402587,0.222228,0.212477,-0.819804,0.172826
"2019-05-06 15:55:59.933 +0000",1557158159.932976,1.647771,0.921071,-2.911326,0.603177,-0.796250,0.046521,0.000000,0.000000,0.000000,-1,-1.031422,1.038229,0.145200,0.078662,-0.405975,-0.134839
"2019-05-06 15:55:59.953 +0000",1557158159.952935,1.654454,0.921049,-2.896073,0.602869,-0.796237,0.050552,0.000000,0.000000,0.000000,-1,0.080792,0.699941,-0.038123,-0.540705,-0.290631,-0.155670
"2019-05-06 15:55:59.973 +0000",1557158159.972888,1.668570,0.924214,-2.904274,0.599585,-0.798147,0.058811,0.000000,0.000000,0.000000,-1,0.377895,0.147329,0.331711,-0.226111,0.022375,-0.090641
"2019-05-06 15:55:59.993 +0000",1557158159.992877,1.674410,0.931965,-2.913520,0.593060,-0.802793,0.061670,0.000000,0.000000,0.000000,-1,0.078891,-0.337482,0.498151,-0.011547,-0.033480,-0.211161
"2019-05-06 15:56:00.013 +0000",1557158160.012837,1.665850,0.943542,-2.918472,0.584275,-0.809642,0.055705,0.000000,0.000000,0.000000,-1,0.177420,-0.838793,0.666499,0.108672,-0.053914,-0.223171
"2019-05-06 15:56:00.033 +0000",1557158160.032794,1.658893,0.957735,-2.932019,0.573143,-0.817890,0.050623,0.000000,0.000000,0.000000,-1,0.422317,-0.961121,0.882627,0.026756,-0.116268,-0.142573
"2019-05-06 15:56:00.053 +0000",1557158160.052751,1.652286,0.980975,-2.948516,0.554367,-0.831040,0.045276,0.000000,0.000000,0.000000,-1,0.297090,-1.037311,1.495176,-0.122085,-0.151657,-0.089755
"2019-05-06 15:56:00.073 +0000",1557158160.072740,1.649954,1.007165,-2.960160,0.532586,-0.845321,0.042247,0.000000,0.000000,0.000000,-1,0.031397,0.068968,0.841458,-0.164727,-0.080918,0.010762
"2019-05-06 15:56:00.093 +0000",1557158160.092698,1.619235,1.018333,-2.943446,0.524170,-0.851234,0.025410,0.000000,0.000000,0.000000,-1,-1.114935,-1.584840,0.562319,0.088043,0.054756,-0.349766
"2019-05-06 15:56:00.113 +0000",1557158160.112656,1.558325,1.028998,-2.892657,0.515637,-0.856783,-0.006431,0.000000,0.000000,0.000000,-1,-1.238563,-0.178122,0.297514,0.041629,-0.011549,0.075279
"2019-05-06 15:56:00.133 +0000",1557158160.132644,1.531933,1.028859,-2.857662,0.515407,-0.856711,-0.020040,0.000000,0.000000,0.000000,-1,-0.417710,0.530636,-0.325589,0.060475,0.073447,0.370443
"2019-05-06 15:56:00.153 +0000",1557158160.152602,1.546278,1.020552,-2.860420,0.522738,-0.852397,-0.012819,0.000000,0.000000,0.000000,-1,0.027471,0.906968,-0.170735,-0.146014,0.007106,0.085253
"2019-05-06 15:56:00.173 +0000",1557158160.172563,1.529882,1.020870,-2.829903,0.522187,-0.852563,-0.021377,0.000000,0.000000,0.000000,-1,-1.285672,0.042858,-0.001557,-0.124649,-0.000235,-0.205887
"2019-05-06 15:56:00.193 +0000",1557158160.192550,1.452698,1.023412,-2.762174,0.516830,-0.853889,-0.061322,0.000000,0.000000,0.000000,-1,-1.852420,-1.543037,0.623191,-0.131363,0.361579,-0.257602
"2019-05-06 15:56:00.213 +0000",1557158160.212508,1.375476,1.028304,-2.699370,0.506456,-0.856425,-0.100198,0.000000,0.000000,0.000000,-1,-1.330794,-0.712439,0.304964,0.109923,-0.064016,0.041513
"2019-05-06 15:56:00.232 +0000",1557158160.232467,1.328615,1.026298,-2.653806,0.502872,-0.855387,-0.124225,0.000000,0.000000,0.000000,-1,-0.935878,-0.108693,0.034120,0.043606,-0.084691,-0.056974
"2019-05-06 15:56:00.252 +0000",1557158160.252425,1.299749,1.021907,-2.624853,0.502692,-0.853104,-0.139691,0.000000,0.000000,0.000000,-1,-0.559055,-0.140180,-0.102871,-0.125022,0.099442,-0.109424
"2019-05-06 15:56:00.272 +0000",1557158160.272412,1.297022,1.016521,-2.614622,0.506726,-0.850282,-0.142302,0.000000,0.000000,0.000000,-1,-0.003474,0.561894,-0.280708,-0.200925,0.304612,0.090406
"2019-05-06 15:56:00.292 +0000",1557158160.292371,1.307194,1.014167,-2.626076,0.510077,-0.849041,-0.137661,0.000000,0.000000,0.000000,-1,0.547439,-0.464435,-0.060218,-0.125770,0.119671,0.095943
"2019-05-06 15:56:00.312 +0000",1557158160.312330,1.307463,1.015706,-2.647665,0.508852,-0.849853,-0.137184,0.000000,0.000000,0.000000,-1,0.413252,-1.177530,-0.107391,-0.033465,0.024536,-0.134331
"2019-05-06 15:56:00.332 +0000",1557158160.332224,1.283180,1.010792,-2.646200,0.509370,-0.847253,-0.150681,0.000000,0.000000,0.000000,-1,-0.503559,-0.835881,-0.429684,0.177642,-0.085731,-0.295898
"2019-05-06 15:56:00.352 +0000",1557158160.352183,1.254610,0.995322,-2.623501,0.517254,-0.838934,-0.169226,0.000000,0.000000,0.000000,-1,-0.947423,-0.298759,-0.583468,0.164173,0.051916,-0.073343
"2019-05-06 15:56:00.372 +0000",1557158160.372140,1.228814,0.973431,-2.602410,0.529894,-0.826821,-0.188626,0.000000,0.000000,0.000000,-1,-0.839455,-0.230087,-1.319022,-0.145083,0.399376,-0.044757
"2019-05-06 15:56:00.392 +0000",1557158160.392129,1.221457,0.935077,-2.593343,0.557893,-0.804645,-0.203230,0.000000,0.000000,0.000000,-1,-0.923572,0.309152,-1.998060,0.121062,0.211673,0.000913
"2019-05-06 15:56:00.412 +0000",1557158160.412086,1.232149,0.889664,-2.588828,0.593911,-0.776860,-0.209185,0.000000,0.000000,0.000000,-1,-0.624315,0.963725,-2.013372,0.075980,0.019139,0.021273
"2019-05-06 15:56:00.432 +0000",1557158160.432046,1.245889,0.858704,-2.594717,0.619232,-0.756996,-0.208585,0.000000,0.000000,0.000000,-1,-0.103541,0.035612,-0.997371,-0.056198,-0.501854,-0.213382
"2019-05-06 15:56:00.452 +0000",1557158160.452003,1.243365,0.847277,-2.597237,0.626854,-0.749480,-0.212916,0.000000,0.000000,0.000000,-1,-0.013636,-0.410159,-0.234359,-0.278267,-0.254212,-0.160635
"2019-05-06 15:56:00.472 +0000",1557158160.471992,1.231782,0.848437,-2.600442,0.623526,-0.750248,-0.219873,0.000000,0.000000,0.000000,-1,0.216595,-0.939240,0.189475,-0.084417,-0.110821,-0.060919
"2019-05-06 15:56:00.492 +0000",1557158160.491950,1.213272,0.856198,-2.607610,0.613876,-0.755356,-0.229331,0.000000,0.000000,0.000000,-1,0.695383,-1.461932,0.303348,0.064346,-0.045532,-0.064705
"2019-05-06 15:56:00.512 +0000",1557158160.511907,1.203838,0.871106,-2.647768,0.601106,-0.765042,-0.231046,0.000000,0.000000,0.000000,-1,2.685965,-2.890207,0.147130,0.001356,0.181851,0.042936
"2019-05-06 15:56:00.532 +0000",1557158160.531896,1.207454,0.898044,-2.765834,0.582458,-0.782110,-0.221465,0.000000,0.000000,0.000000,-1,4.515058,-5.758240,-0.371024,-0.019180,0.564260,0.178664
"2019-05-06 15:56:00.552 +0000",1557158160.551857,1.183093,0.916397,-2.861278,0.563506,-0.793414,-0.230120,0.000000,0.000000,0.000000,-1,1.186236,-2.860332,0.176079,-0.134825,-0.316358,-0.434537
"2019-05-06 15:56:00.572 +0000",1557158160.571814,1.154942,0.923638,-2.842039,0.551536,-0.797800,-0.243563,0.000000,0.000000,0.000000,-1,-1.135621,0.515502,0.908765,-0.109031,-0.279013,-0.349332
"2019-05-06 15:56:00.592 +0000",1557158160.591772,1.121557,0.941610,-2.808762,0.530096,-0.808507,-0.255568,0.000000,0.000000,0.000000,-1,0.156286,-0.923120,1.258669,-0.322241,-0.243587,-0.198915
"2019-05-06 15:56:00.612 +0000",1557158160.611760,1.099017,0.961594,-2.805876,0.509705,-0.820105,-0.260055,0.000000,0.000000,0.000000,-1,0.537154,-0.818316,0.519069,0.057723,-0.157404,0.029068
"2019-05-06 15:56:00.632 +0000",1557158160.631719,1.092356,0.968198,-2.812677,0.503143,-0.823866,-0.260945,0.000000,0.000000,0.000000,-1,-0.024786,-0.226231,-0.063786,-0.015121,-0.032290,-0.195506
"2019-05-06 15:56:00.652 +0000",1557158160.651677,1.087119,0.958468,-2.799900,0.508843,-0.818312,-0.267292,0.000000,0.000000,0.000000,-1,-0.895163,0.873740,-0.489274,-0.069405,-0.101732,-0.124035
"2019-05-06 15:56:00.672 +0000",1557158160.671666,1.096416,0.938975,-2.776364,0.525398,-0.806953,-0.269786,0.000000,0.000000,0.000000,-1,-1.189685,1.251620,0.050556,-0.112159,-0.553109,-0.115834
"2019-05-06 15:56:00.692 +0000",1557158160.691622,1.096862,0.931511,-2.747840,0.530862,-0.802522,-0.272293,0.000000,0.000000,0.000000,-1,-0.318001,0.813594,-0.241085,-0.001733,0.677416,-0.122788
"2019-05-06 15:56:00.712 +0000",1557158160.711581,1.116721,0.925936,-2.757842,0.540177,-0.799184,-0.263655,0.000000,0.000000,0.000000,-1,0.492296,0.558835,-0.438408,0.069976,0.009831,-0.151216
"2019-05-06 15:56:00.732 +0000",1557158160.731569,1.142106,0.923020,-2.778216,0.548812,-0.797427,-0.250827,0.000000,0.000000,0.000000,-1,0.468393,0.572477,-0.379002,0.258759,-0.353024,-0.286038
"2019-05-06 15:56:00.752 +0000",1557158160.751528,1.168007,0.919837,-2.796097,0.557457,-0.795503,-0.237524,0.000000,0.000000,0.000000,-1,0.480430,0.480208,-0.403344,0.176659,-0.160537,-0.319437
"2019-05-06 15:56:00.771 +0000",1557158160.771485,1.187248,0.913622,-2.817384,0.566497,-0.791722,-0.228600,0.000000,0.000000,0.000000,-1,0.612770,-0.195813,-0.706916,0.084565,-0.163768,-0.309547
"2019-05-06 15:56:00.791 +0000",1557158160.791443,1.194493,0.903628,-2.844392,0.575468,-0.785577,-0.227387,0.000000,0.000000,0.000000,-1,0.527650,-1.056715,-0.763033,-0.095427,-0.003333,-0.171341
"2019-05-06 15:56:00.811 +0000",1557158160.811432,1.199129,0.891598,-2.870762,0.585280,-0.778076,-0.228132,0.000000,0.000000,0.000000,-1,0.746461,-0.375801,-1.072853,-0.277709,0.254944,0.051862
"2019-05-06 15:56:00.831 +0000",1557158160.831389,1.213156,0.872293,-2.903147,0.602382,-0.765806,-0.225117,0.000000,0.000000,0.000000,-1,0.356783,-0.848206,-1.501361,-0.367870,0.376737,0.027683
"2019-05-06 15:56:00.851 +0000",1557158160.851347,1.205474,0.840554,-2.923113,0.623030,-0.745013,-0.238304,0.000000,0.000000,0.000000,-1,-0.002164,-1.239570,-1.945965,-0.205931,0.099383,0.062019
"2019-05-06 15:56:00.871 +0000",1557158160.871336,1.199764,0.805653,-2.949742,0.645508,-0.721283,-0.251136,0.000000,0.000000,0.000000,-1,0.549164,-1.264581,-1.817412,-0.137589,-0.187195,0.072868
"2019-05-06 15:56:00.891 +0000",1557158160.891295,1.200989,0.784658,-2.988143,0.659792,-0.706583,-0.255763,0.000000,0.000000,0.000000,-1,1.213063,-1.181868,-1.164561,0.020781,-0.268636,0.054027
"2019-05-06 15:56:00.911 +0000",1557158160.911253,1.213856,0.776162,-3.032001,0.668629,-0.700546,-0.249341,0.000000,0.000000,0.000000,-1,1.329814,-0.694848,-0.835685,0.043544,-0.111909,0.202710
"2019-05-06 15:56:00.931 +0000",1557158160.931211,1.226541,0.768442,-3.070820,0.676809,-0.695016,-0.242658,0.000000,0.000000,0.000000,-1,1.036041,-0.649608,-0.924781,0.046122,0.041238,0.214490
"2019-05-06 15:56:00.951 +0000",1557158160.951201,1.237923,0.756077,-3.101118,0.687597,-0.686073,-0.237729,0.000000,0.000000,0.000000,-1,0.640841,-0.193455,-0.906056,0.028269,0.041999,0.132855
"2019-05-06 15:56:00.971 +0000",1557158160.971133,1.248786,0.745082,-3.118701,0.697253,-0.678032,-0.232619,0.000000,0.000000,0.000000,-1,0.270197,0.078594,-0.595954,-0.005953,-0.081978,0.049483
"2019-05-06 15:56:00.991 +0000",1557158160.991091,1.255788,0.735086,-3.127352,0.705273,-0.670651,-0.229819,0.000000,0.000000,0.000000,-1,0.090926,0.051977,-0.588390,0.082050,-0.035205,0.092124
"2019-05-06 15:56:01.011 +0000",1557158161.011081,1.261609,0.724949,-3.135464,0.713039,-0.663097,-0.227767,0.000000,0.000000,0.000000,-1,0.259993,0.096284,-0.568878,0.177357,0.069164,0.130843
"2019-05-06 15:56:01.031 +0000",1557158161.031037,1.273441,0.717610,3.134548,0.720317,-0.657586,-0.220735,0.000000,0.000000,0.000000,-1,0.475560,0.153243,-0.419495,0.185032,0.137917,-0.033126
"2019-05-06 15:56:01.051 +0000",1557158161.050997,1.284705,0.714813,3.116781,0.724519,-0.655477,-0.213125,0.000000,0.000000,0.000000,-1,0.796658,-0.118575,-0.267286,0.105330,0.205739,-0.065103
"2019-05-06 15:56:01.071 +0000",1557158161.070954,1.298042,0.715737,3.090983,0.726714,-0.656174,-0.203281,0.000000,0.000000,0.000000,-1,1.101792,-0.250334,-0.195098,0.039644,0.207504,-0.007275
"2019-05-06 15:56:01.091 +0000",1557158161.090943,1.311183,0.718804,3.059823,0.727374,-0.658485,-0.193196,0.000000,0.000000,0.000000,-1,1.258580,-0.369558,-0.125778,0.027616,0.145942,-0.031475
"2019-05-06 15:56:01.111 +0000",1557158161.110901,1.325085,0.722922,3.027442,0.727353,-0.661579,-0.182404,0.000000,0.000000,0.000000,-1,1.170476,-0.414951,-0.101634,0.004245,0.084033,0.051560
"2019-05-06 15:56:01.131 +0000",1557158161.130858,1.328429,0.716024,3.003202,0.732372,-0.656390,-0.181063,0.000000,0.000000,0.000000,-1,1.055251,-0.374936,-0.105295,-0.004207,0.024020,0.038515
"2019-05-06 15:56:01.151 +0000",1557158161.150847,1.334071,0.703886,2.980124,0.741072,-0.647185,-0.178782,0.000000,0.000000,0.000000,-1,1.007942,-0.186712,-0.179706,-0.015578,0.006285,0.053813
"2019-05-06 15:56:01.171 +0000",1557158161.170806,1.341295,0.696896,2.959026,0.746732,-0.641840,-0.174449,0.000000,0.000000,0.000000,-1,0.858481,-0.112223,-0.150820,-0.018781,0.013926,0.038295
"2019-05-06 15:56:01.191 +0000",1557158161.190763,1.353170,0.695260,2.938455,0.749775,-0.640585,-0.165796,0.000000,0.000000,0.000000,-1,0.667849,-0.066141,-0.111465,-0.027668,0.004827,-0.021383
"2019-05-06 15:56:01.211 +0000",1557158161.210723,1.364545,0.695981,2.921117,0.751160,-0.641139,-0.157163,0.000000,0.000000,0.000000,-1,0.567981,-0.050703,-0.075368,-0.028732,0.047831,-0.023959
"2019-05-06 15:56:01.231 +0000",1557158161.230710,1.373773,0.697986,2.906468,0.751316,-0.642676,-0.149972,0.000000,0.000000,0.000000,-1,0.465189,-0.045545,-0.062903,0.012387,0.066382,-0.052115
"2019-05-06 15:56:01.251 +0000",1557158161.250668,1.383125,0.698456,2.894007,0.752389,-0.643036,-0.142883,0.000000,0.000000,0.000000,-1,0.420066,0.081686,-0.093905,0.063727,0.079636,-0.032501
"2019-05-06 15:56:01.271 +0000",1557158161.270626,1.385885,0.698648,2.886029,0.752659,-0.643183,-0.140783,0.000000,0.000000,0.000000,-1,0.432757,-0.030889,-0.115072,0.069210,0.093561,-0.042475
"2019-05-06 15:56:01.291 +0000",1557158161.290616,1.384098,0.696058,2.878817,0.754040,-0.641198,-0.142437,0.000000,0.000000,0.000000,-1,0.460336,-0.151966,-0.163718,0.056568,0.082879,0.002224
"2019-05-06 15:56:01.311 +0000",1557158161.310572,1.380153,0.689484,2.871761,0.757596,-0.636139,-0.146206,0.000000,0.000000,0.000000,-1,0.404155,-0.198692,-0.192937,0.030384,0.034485,0.080212
"2019-05-06 15:56:01.331 +0000",1557158161.330531,1.377562,0.678901,2.866520,0.763778,-0.627938,-0.149453,0.000000,0.000000,0.000000,-1,0.140561,-0.101825,-0.193533,0.028718,-0.021781,0.055078
"2019-05-06 15:56:01.351 +0000",1557158161.350519,1.375588,0.666522,2.866044,0.771049,-0.618256,-0.152457,0.000000,0.000000,0.000000,-1,-0.017392,0.018109,-0.203725,0.040002,-0.034683,0.010214
"2019-05-06 15:56:01.370 +0000",1557158161.370477,1.376089,0.655303,2.865895,0.777882,-0.609399,-0.153402,0.000000,0.000000,0.000000,-1,-0.106959,-0.068060,-0.316831,0.099270,0.042291,-0.113123
"2019-05-06 15:56:01.390 +0000",1557158161.390436,1.377093,0.645968,2.863848,0.783584,-0.601972,-0.153710,0.000000,0.000000,0.000000,-1,-0.157109,-0.330471,-0.491096,0.234651,0.039609,-0.159965
"2019-05-06 15:56:01.410 +0000",1557158161.410393,1.369699,0.634921,2.863560,0.788894,-0.593114,-0.160818,0.000000,0.000000,0.000000,-1,-0.121196,-0.548150,-0.613168,0.307252,-0.001674,0.015234
"2019-05-06 15:56:01.430 +0000",1557158161.430382,1.356050,0.621746,2.862850,0.794192,-0.582455,-0.173221,0.000000,0.000000,0.000000,-1,-0.151354,-0.921779,-0.685591,0.257841,-0.035556,0.136279
"2019-05-06 15:56:01.450 +0000",1557158161.450341,1.330365,0.606336,2.866908,0.798104,-0.569861,-0.195675,0.000000,0.000000,0.000000,-1,-0.536142,-1.342232,-0.742542,0.160117,-0.172357,0.036480
"2019-05-06 15:56:01.470 +0000",1557158161.470297,1.295863,0.588479,2.879315,0.800547,-0.555097,-0.225815,0.000000,0.000000,0.000000,-1,-0.909109,-1.400737,-0.705477,0.047750,-0.300693,0.104050
"2019-05-06 15:56:01.490 +0000",1557158161.490286,1.256123,0.568025,2.900549,0.801573,-0.537968,-0.260903,0.000000,0.000000,0.000000,-1,-1.411029,-1.365447,-0.740291,-0.050200,-0.309322,0.138222
"2019-05-06 15:56:01.510 +0000",1557158161.510245,1.218605,0.544975,2.929418,0.802651,-0.518397,-0.294985,0.000000,0.000000,0.000000,-1,-1.544738,-0.807290,-0.610732,-0.120247,-0.220831,0.164675
"2019-05-06 15:56:01.530 +0000",1557158161.530203,1.192740,0.526100,2.953783,0.803705,-0.502165,-0.319200,0.000000,0.000000,0.000000,-1,-0.989013,-0.588954,-0.409847,-0.142786,-0.164782,0.243669
"2019-05-06 15:56:01.550 +0000",1557158161.550163,1.177358,0.516221,2.963005,0.803243,-0.493597,-0.333410,0.000000,0.000000,0.000000,-1,-0.151245,-0.574251,-0.228483,-0.021673,-0.207819,0.165029
"2019-05-06 15:56:01.570 +0000",1557158161.570149,1.160186,0.512928,2.960255,0.798886,-0.490731,-0.347800,0.000000,0.000000,0.000000,-1,0.132384,-1.292519,-0.157153,0.203266,-0.362022,-0.116021
"2019-05-06 15:56:01.590 +0000",1557158161.590107,1.133318,0.511609,2.957896,0.789840,-0.489581,-0.369411,0.000000,0.000000,0.000000,-1,-0.048503,-1.336109,-0.064637,0.306077,-0.425809,-0.106831
"2019-05-06 15:56:01.610 +0000",1557158161.610066,1.110701,0.508968,2.961251,0.782439,-0.487276,-0.387751,0.000000,0.000000,0.000000,-1,-0.293674,-0.797736,-0.091958,0.163255,-0.249555,0.148402
"2019-05-06 15:56:01.630 +0000",1557158161.630055,1.095999,0.502508,2.965251,0.779437,-0.481625,-0.400643,0.000000,0.000000,0.000000,-1,-0.273707,-0.513587,-0.349418,-0.072360,-0.007679,0.248788
"2019-05-06 15:56:01.650 +0000",1557158161.650012,1.087864,0.493103,2.965056,0.780129,-0.473362,-0.409056,0.000000,0.000000,0.000000,-1,-0.155542,-0.298710,-0.420341,-0.236550,0.077778,0.277998
"2019-05-06 15:56:01.670 +0000",1557158161.669970,1.087012,0.485823,2.964867,0.782811,-0.466936,-0.411312,0.000000,0.000000,0.000000,-1,-0.248576,0.365146,-0.171040,-0.325078,0.021578,0.310528
"2019-05-06 15:56:01.690 +0000",1557158161.689929,1.099949,0.479296,2.976006,0.790765,-0.461155,-0.402525,0.000000,0.000000,0.000000,-1,-0.918922,1.423424,-0.009208,-0.393320,-0.040081,0.365538
"2019-05-06 15:56:01.710 +0000",1557158161.709916,1.128075,0.471141,2.996601,0.805144,-0.453903,-0.381726,0.000000,0.000000,0.000000,-1,-0.975745,2.189265,0.114407,-0.418685,0.032883,0.290387
"2019-05-06 15:56:01.730 +0000",1557158161.729875,1.160615,0.467383,3.014768,0.818695,-0.450552,-0.356007,0.000000,0.000000,0.000000,-1,-0.606846,1.715434,0.170540,-0.382630,0.114477,0.150502
"2019-05-06 15:56:01.750 +0000",1557158161.749832,1.179715,0.468093,3.021032,0.825049,-0.451186,-0.340184,0.000000,0.000000,0.000000,-1,0.183664,0.423688,0.074042,-0.349753,0.232634,0.051335
"2019-05-06 15:56:01.770 +0000",1557158161.769821,1.182748,0.472311,3.007227,0.824309,-0.454945,-0.336957,0.000000,0.000000,0.000000,-1,1.051873,-0.645675,-0.144452,-0.406355,0.311924,0.116956
"2019-05-06 15:56:01.790 +0000",1557158161.789780,1.176273,0.479085,2.980102,0.819246,-0.460967,-0.341095,0.000000,0.000000,0.000000,-1,1.338124,-1.159125,-0.116526,-0.514695,0.273421,0.217438
"2019-05-06 15:56:01.810 +0000",1557158161.809737,1.167756,0.487211,2.953949,0.812838,-0.468164,-0.346579,0.000000,0.000000,0.000000,-1,1.091164,-0.750609,-0.092232,-0.527987,0.241387,0.299628
"2019-05-06 15:56:01.830 +0000",1557158161.829726,1.172698,0.491486,2.931388,0.812689,-0.471937,-0.341779,0.000000,0.000000,0.000000,-1,0.942716,0.168836,-0.316526,-0.453176,0.295972,0.279706
"2019-05-06 15:56:01.850 +0000",1557158161.849684,1.191151,0.489987,2.906555,0.819513,-0.470615,-0.326987,0.000000,0.000000,0.000000,-1,1.094159,0.374365,-0.703449,-0.323556,0.264133,0.147300
"2019-05-06 15:56:01.870 +0000",1557158161.869642,1.211000,0.482878,2.872296,0.828952,-0.464330,-0.311827,0.000000,0.000000,0.000000,-1,1.443663,-0.093636,-0.992282,-0.149402,0.124135,-0.011324
"2019-05-06 15:56:01.890 +0000",1557158161.889601,1.217066,0.475307,2.835725,0.834102,-0.457611,-0.308002,0.000000,0.000000,0.000000,-1,1.214534,-0.964179,-0.800249,-0.051311,-0.105926,-0.185193
"2019-05-06 15:56:01.910 +0000",1557158161.909589,1.206406,0.469494,2.813428,0.833243,-0.452435,-0.317818,0.000000,0.000000,0.000000,-1,0.428089,-0.904447,-0.498395,-0.083991,-0.215243,-0.102714
"2019-05-06 15:56:01.930 +0000",1557158161.929546,1.199547,0.461368,2.807237,0.834442,-0.445174,-0.324849,0.000000,0.000000,0.000000,-1,-0.130707,-0.048922,-0.491150,-0.064850,-0.089891,0.145101
"2019-05-06 15:56:01.950 +0000",1557158161.949505,1.205212,0.451943,2.805699,0.840150,-0.436714,-0.321602,0.000000,0.000000,0.000000,-1,0.036093,0.491832,-0.408351,-0.028642,-0.016548,0.088174
"2019-05-06 15:56:01.969 +0000",1557158161.969486,1.219429,0.448537,2.796113,0.846029,-0.433648,-0.310136,0.000000,0.000000,0.000000,-1,0.669435,0.325038,-0.271507,-0.041128,-0.131309,-0.093031
"2019-05-06 15:56:01.989 +0000",1557158161.989442,1.222214,0.448461,2.777648,0.846920,-0.433579,-0.307791,0.000000,0.000000,0.000000,-1,0.685198,-0.925316,-0.297002,-0.025509,-0.289291,-0.104304
"2019-05-06 15:56:02.009 +0000",1557158162.009401,1.201897,0.446434,2.768522,0.841311,-0.431752,-0.325249,0.000000,0.000000,0.000000,-1,0.080696,-1.195902,-0.119820,0.120314,-0.432689,-0.190437
"2019-05-06 15:56:02.029 +0000",1557158162.029359,1.184698,0.448727,2.767916,0.834674,-0.433819,-0.339296,0.000000,0.000000,0.000000,-1,0.165691,-0.540265,0.232944,0.288678,-0.635944,0.326463
"2019-05-06 15:56:02.049 +0000",1557158162.049348,1.171562,0.452577,2.765769,0.828599,-0.437285,-0.349578,0.000000,0.000000,0.000000,-1,0.006530,-1.231776,0.020345,0.580901,-0.662492,0.397964
"2019-05-06 15:56:02.069 +0000",1557158162.069306,1.147701,0.453055,2.765354,0.819832,-0.437714,-0.369163,0.000000,0.000000,0.000000,-1,0.267045,-0.725999,0.094877,0.676216,-0.845443,-0.001092
"2019-05-06 15:56:02.089 +0000",1557158162.089264,1.139011,0.458998,2.756641,0.814217,-0.443050,-0.375177,0.000000,0.000000,0.000000,-1,0.597682,-0.765381,-0.022308,0.657112,-0.407048,0.291300
"2019-05-06 15:56:02.109 +0000",1557158162.109251,1.133100,0.459990,2.742378,0.811586,-0.443940,-0.379797,0.000000,0.000000,0.000000,-1,0.407188,-0.018663,-0.381518,0.146055,0.189972,0.037909
"2019-05-06 15:56:02.129 +0000",1557158162.129210,1.152223,0.447748,2.748593,0.823604,-0.432937,-0.366391,0.000000,0.000000,0.000000,-1,-0.717111,1.365555,-0.519400,-0.048961,0.508788,0.108136
"2019-05-06 15:56:02.149 +0000",1557158162.149168,1.176621,0.441410,2.748973,0.834814,-0.427215,-0.347236,0.000000,0.000000,0.000000,-1,0.282595,1.057893,-0.020417,-0.123068,-0.146729,-0.264169
"2019-05-06 15:56:02.169 +0000",1557158162.169126,1.193654,0.445381,2.738446,0.839024,-0.430802,-0.332339,0.000000,0.000000,0.000000,-1,0.797798,0.089301,-0.029707,0.130001,-0.347687,0.138049
"2019-05-06 15:56:02.189 +0000",1557158162.189115,1.199671,0.453637,2.717596,0.837665,-0.438238,-0.325984,0.000000,0.000000,0.000000,-1,1.225605,-0.369125,0.152345,0.134900,-0.327479,0.278010
"2019-05-06 15:56:02.209 +0000",1557158162.209072,1.199296,0.466795,2.689264,0.832097,-0.450026,-0.324177,0.000000,0.000000,0.000000,-1,1.632823,-0.960349,0.065515,0.152888,0.026992,0.194065
"2019-05-06 15:56:02.229 +0000",1557158162.229031,1.198455,0.477781,2.657422,0.827169,-0.459810,-0.323058,0.000000,0.000000,0.000000,-1,1.118370,-0.273627,-0.068561,-0.059103,0.065919,0.046462
"2019-05-06 15:56:02.249 +0000",1557158162.249020,1.205279,0.480407,2.644780,0.828223,-0.462141,-0.316973,0.000000,0.000000,0.000000,-1,0.110307,0.196249,-0.093332,-0.207313,0.190015,0.085360
"2019-05-06 15:56:02.269 +0000",1557158162.268977,1.207507,0.478835,2.643920,0.829606,-0.460746,-0.315386,0.000000,0.000000,0.000000,-1,0.049377,-0.040382,-0.074597,-0.294068,0.164252,0.108431
"2019-05-06 15:56:02.289 +0000",1557158162.288936,1.206203,0.480140,2.638597,0.828632,-0.461903,-0.316252,0.000000,0.000000,0.000000,-1,0.400235,-0.343174,0.013180,-0.419208,0.120106,0.102522
"2019-05-06 15:56:02.309 +0000",1557158162.308924,1.200409,0.484635,2.630871,0.824841,-0.465886,-0.320293,0.000000,0.000000,0.000000,-1,0.338100,-0.584606,0.165591,-0.428738,0.102559,0.112576
"2019-05-06 15:56:02.329 +0000",1557158162.328882,1.188813,0.490051,2.628647,0.818718,-0.470671,-0.328891,0.000000,0.000000,0.000000,-1,0.016791,-0.611672,0.201496,-0.327034,0.118224,0.176028
"2019-05-06 15:56:02.349 +0000",1557158162.348841,1.178421,0.491913,2.632300,0.814445,-0.472313,-0.337045,0.000000,0.000000,0.000000,-1,-0.213339,-0.257048,0.086646,-0.206733,0.128807,0.203165
"2019-05-06 15:56:02.369 +0000",1557158162.368798,1.171408,0.491334,2.637920,0.812313,-0.471802,-0.342855,0.000000,0.000000,0.000000,-1,-0.262359,-0.246063,0.027150,-0.171643,0.111619,0.228811
"2019-05-06 15:56:02.389 +0000",1557158162.388788,1.163241,0.488942,2.643721,0.810520,-0.469692,-0.349924,0.000000,0.000000,0.000000,-1,-0.324181,-0.255359,-0.034122,-0.215198,0.117778,0.233744
"2019-05-06 15:56:02.409 +0000",1557158162.408745,1.156891,0.485073,2.652678,0.809939,-0.466273,-0.355792,0.000000,0.000000,0.000000,-1,-0.595615,0.087493,-0.064767,-0.304416,0.120708,0.175494
"2019-05-06 15:56:02.429 +0000",1557158162.428704,1.152164,0.477078,2.666227,0.811629,-0.459185,-0.361121,0.000000,0.000000,0.000000,-1,-0.736233,-0.028447,-0.186772,-0.230833,0.171267,0.113028
"2019-05-06 15:56:02.449 +0000",1557158162.448693,1.144221,0.467989,2.673926,0.812501,-0.451092,-0.369267,0.000000,0.000000,0.000000,-1,-0.232227,-0.406981,-0.377747,0.028701,-0.014759,0.164937
"2019-05-06 15:56:02.469 +0000",1557158162.468650,1.134191,0.458126,2.671137,0.812749,-0.442268,-0.379261,0.000000,0.000000,0.000000,-1,-0.059385,-0.695326,-0.635198,0.257915,-0.351952,0.247989
"2019-05-06 15:56:02.489 +0000",1557158162.488609,1.121225,0.446355,2.669534,0.812396,-0.431680,-0.392002,0.000000,0.000000,0.000000,-1,-0.402080,-0.647423,-0.410506,0.547437,-0.746069,0.159153
"2019-05-06 15:56:02.509 +0000",1557158162.508566,1.104095,0.436021,2.681314,0.809502,-0.422336,-0.407846,0.000000,0.000000,0.000000,-1,-1.010281,-0.545806,-0.124018,0.405082,-0.915295,0.112146
"2019-05-06 15:56:02.529 +0000",1557158162.528554,1.088617,0.422811,2.702715,0.807966,-0.410325,-0.422876,0.000000,0.000000,0.000000,-1,-1.280195,-0.054866,-0.193601,0.216799,-0.759413,0.004130
"2019-05-06 15:56:02.549 +0000",1557158162.548513,1.082974,0.407156,2.725519,0.811142,-0.396000,-0.430387,0.000000,0.000000,0.000000,-1,-1.289327,0.314618,-0.190442,0.413986,-0.733807,-0.212054
"2019-05-06 15:56:02.568 +0000",1557158162.568471,1.078640,0.394191,2.749313,0.813726,-0.384061,-0.436288,0.000000,0.000000,0.000000,-1,-1.307816,0.152714,0.046138,0.401988,-0.632266,-0.180869
"2019-05-06 15:56:02.588 +0000",1557158162.588460,1.069868,0.384745,2.775040,0.813013,-0.375323,-0.445131,0.000000,0.000000,0.000000,-1,-1.167111,-0.035137,0.257598,0.193578,-0.345822,0.050905
"2019-05-06 15:56:02.608 +0000",1557158162.608418,1.059853,0.382794,2.795747,0.809152,-0.373514,-0.453609,0.000000,0.000000,0.000000,-1,-0.611051,-0.220625,0.441648,0.130362,-0.076925,0.040111
"2019-05-06 15:56:02.628 +0000",1557158162.628375,1.050605,0.387544,2.806903,0.803374,-0.377915,-0.460185,0.000000,0.000000,0.000000,-1,-0.099544,-0.241054,0.419752,0.219896,0.038026,-0.044194
"2019-05-06 15:56:02.648 +0000",1557158162.648334,1.048229,0.392712,2.809372,0.800575,-0.382695,-0.461112,0.000000,0.000000,0.000000,-1,0.065157,0.118950,0.087014,0.280678,0.086171,-0.015726
"2019-05-06 15:56:02.668 +0000",1557158162.668322,1.053335,0.393716,2.808425,0.802585,-0.383622,-0.456828,0.000000,0.000000,0.000000,-1,0.065547,0.272347,0.021592,0.111005,0.057649,0.013621
"2019-05-06 15:56:02.688 +0000",1557158162.688281,1.057324,0.398211,2.807093,0.802890,-0.387770,-0.452771,0.000000,0.000000,0.000000,-1,0.305060,-0.006588,0.307144,-0.160327,-0.009813,0.070523
"2019-05-06 15:56:02.708 +0000",1557158162.708240,1.059137,0.410500,2.802230,0.799494,-0.399068,-0.448948,0.000000,0.000000,0.000000,-1,0.611717,0.167257,0.495428,-0.306895,-0.019237,0.166919
"2019-05-06 15:56:02.728 +0000",1557158162.728228,1.070608,0.425626,2.796329,0.799203,-0.412891,-0.436802,0.000000,0.000000,0.000000,-1,0.533323,0.694652,0.503079,-0.342309,0.046237,0.250233
"2019-05-06 15:56:02.748 +0000",1557158162.748185,1.088474,0.438045,2.791674,0.802274,-0.424170,-0.420043,0.000000,0.000000,0.000000,-1,0.441440,0.814679,0.380826,-0.314435,0.117789,0.206146
"2019-05-06 15:56:02.768 +0000",1557158162.768142,1.106926,0.447981,2.785582,0.806078,-0.433147,-0.403264,0.000000,0.000000,0.000000,-1,0.503501,0.774045,0.202179,-0.317537,0.175747,0.169606
"2019-05-06 15:56:02.788 +0000",1557158162.788101,1.126164,0.454202,2.775364,0.811238,-0.438745,-0.386516,0.000000,0.000000,0.000000,-1,0.586220,0.675190,-0.039196,-0.322240,0.197412,0.160228
"2019-05-06 15:56:02.808 +0000",1557158162.808089,1.144760,0.457383,2.762105,0.817010,-0.441602,-0.370786,0.000000,0.000000,0.000000,-1,0.604831,0.639592,-0.188327,-0.328531,0.216367,0.120343
"2019-05-06 15:56:02.828 +0000",1557158162.828049,1.165930,0.458257,2.746982,0.824321,-0.442385,-0.353256,0.000000,0.000000,0.000000,-1,0.693667,0.836922,-0.280602,-0.335308,0.191836,0.099883
"2019-05-06 15:56:02.848 +0000",1557158162.848006,1.191784,0.459178,2.728756,0.832799,-0.443211,-0.331677,0.000000,0.000000,0.000000,-1,0.828165,0.888843,-0.253372,-0.335469,0.123860,0.091779
"2019-05-06 15:56:02.868 +0000",1557158162.867995,1.215539,0.462922,2.709043,0.838881,-0.446564,-0.311223,0.000000,0.000000,0.000000,-1,0.969140,0.521680,-0.008292,-0.312635,0.018265,0.044973
"2019-05-06 15:56:02.888 +0000",1557158162.887952,1.230406,0.472050,2.688598,0.839537,-0.454713,-0.297344,0.000000,0.000000,0.000000,-1,1.004074,0.109061,0.174693,-0.194334,-0.063582,0.057750
"2019-05-06 15:56:02.908 +0000",1557158162.907910,1.240928,0.481328,2.671559,0.838592,-0.462957,-0.287115,0.000000,0.000000,0.000000,-1,0.665307,0.244377,0.162582,-0.193267,-0.019297,0.120351
"2019-05-06 15:56:02.928 +0000",1557158162.927899,1.250939,0.486026,2.664007,0.839350,-0.467116,-0.278019,0.000000,0.000000,0.000000,-1,0.097961,0.364270,0.063564,-0.171229,0.052931,0.020237
"2019-05-06 15:56:02.948 +0000",1557158162.947857,1.255601,0.485988,2.666875,0.840654,-0.467082,-0.274109,0.000000,0.000000,0.000000,-1,-0.274149,0.154052,-0.032696,-0.146303,-0.038640,-0.102616
"2019-05-06 15:56:02.968 +0000",1557158162.967816,1.248767,0.482005,2.674185,0.840519,-0.463557,-0.280433,0.000000,0.000000,0.000000,-1,-0.486840,-0.483725,-0.123760,0.025799,-0.296255,-0.194543
"2019-05-06 15:56:02.988 +0000",1557158162.987783,1.237581,0.478892,2.683231,0.838690,-0.460796,-0.290288,0.000000,0.000000,0.000000,-1,-0.228967,-0.056926,0.058129,0.242319,-0.501881,-0.027858
"2019-05-06 15:56:03.008 +0000",1557158163.007770,1.237230,0.479549,2.681763,0.838301,-0.461379,-0.290484,0.000000,0.000000,0.000000,-1,0.282487,-0.259538,-0.058772,0.442003,-0.416977,0.359438
"2019-05-06 15:56:03.028 +0000",1557158163.027728,1.228251,0.482397,2.676291,0.834418,-0.463904,-0.297556,0.000000,0.000000,0.000000,-1,0.180346,-0.782169,0.172122,0.493997,-0.460656,0.158106
"2019-05-06 15:56:03.048 +0000",1557158163.047688,1.211436,0.486205,2.675390,0.827637,-0.467274,-0.310921,0.000000,0.000000,0.000000,-1,0.059855,-0.942998,0.070871,0.111846,-0.175686,-0.209038
"2019-05-06 15:56:03.068 +0000",1557158163.067676,1.203007,0.488416,2.670899,0.824021,-0.469228,-0.317513,0.000000,0.000000,0.000000,-1,0.392002,-0.116412,0.125784,0.527160,-0.621089,-0.080619
"2019-05-06 15:56:03.088 +0000",1557158163.087632,1.197440,0.495821,2.666187,0.818983,-0.475754,-0.320820,0.000000,0.000000,0.000000,-1,0.131898,-0.937788,0.232557,0.472109,-0.492599,0.427173
"2019-05-06 15:56:03.108 +0000",1557158163.107592,1.175490,0.496244,2.665638,0.811558,-0.476126,-0.338640,0.000000,0.000000,0.000000,-1,0.056783,-0.749653,-0.197114,0.217586,0.005347,0.115938
"2019-05-06 15:56:03.128 +0000",1557158163.127551,1.180291,0.496044,2.655460,0.813263,-0.475950,-0.334776,0.000000,0.000000,0.000000,-1,0.744440,0.382799,-0.167267,0.187668,0.192289,-0.138903
"2019-05-06 15:56:03.148 +0000",1557158163.147537,1.198110,0.501052,2.635646,0.816869,-0.480348,-0.319360,0.000000,0.000000,0.000000,-1,0.917333,0.466851,-0.038692,0.183681,-0.116163,-0.082678
"2019-05-06 15:56:03.167 +0000",1557158163.167496,1.215061,0.506897,2.619308,0.819519,-0.485466,-0.304485,0.000000,0.000000,0.000000,-1,0.602987,0.363814,-0.003019,0.071518,-0.266182,0.133068
"2019-05-06 15:56:03.187 +0000",1557158163.187454,1.228664,0.511344,2.606800,0.821542,-0.489350,-0.292583,0.000000,0.000000,0.000000,-1,0.633328,0.425147,0.070561,0.079840,-0.195785,0.173900
"2019-05-06 15:56:03.207 +0000",1557158163.207442,1.244791,0.517437,2.594302,0.823314,-0.494654,-0.278336,0.000000,0.000000,0.000000,-1,0.492708,0.493193,0.070854,0.136524,-0.048376,0.075852
"2019-05-06 15:56:03.227 +0000",1557158163.227402,1.257153,0.521311,2.586385,0.824863,-0.498017,-0.267544,0.000000,0.000000,0.000000,-1,0.324358,0.316394,0.072672,-0.017704,0.001908,0.104976
"2019-05-06 15:56:03.247 +0000",1557158163.247359,1.265220,0.526066,2.578884,0.824727,-0.502135,-0.260166,0.000000,0.000000,0.000000,-1,0.418006,0.142036,0.114239,-0.173542,0.013122,0.143802
"2019-05-06 15:56:03.267 +0000",1557158163.267318,1.273360,0.530889,2.569853,0.824492,-0.506300,-0.252731,0.000000,0.000000,0.000000,-1,0.449184,0.214412,0.117968,-0.251555,0.044035,0.175964
"2019-05-06 15:56:03.287 +0000",1557158163.287306,1.281306,0.536158,2.561486,0.823906,-0.510837,-0.245407,0.000000,0.000000,0.000000,-1,0.348695,0.102293,0.119157,-0.295708,0.119373,0.196869
"2019-05-06 15:56:03.307 +0000",1557158163.307263,1.284617,0.539928,2.556388,0.822861,-0.514074,-0.242133,0.000000,0.000000,0.000000,-1,0.157851,-0.021250,0.109528,-0.320526,0.129324,0.145132
"2019-05-06 15:56:03.327 +0000",1557158163.327222,1.283789,0.542524,2.556489,0.821377,-0.516299,-0.242435,0.000000,0.000000,0.000000,-1,-0.119783,-0.090625,0.096963,-0.309491,0.086444,0.040821
"2019-05-06 15:56:03.347 +0000",1557158163.347211,1.278317,0.543585,2.561610,0.819513,-0.517208,-0.246767,0.000000,0.000000,0.000000,-1,-0.243650,-0.207435,0.134248,-0.271219,0.038250,0.040987
"2019-05-06 15:56:03.367 +0000",1557158163.367167,1.268888,0.545142,2.568949,0.816380,-0.518540,-0.254244,0.000000,0.000000,0.000000,-1,-0.344266,-0.361818,0.139998,-0.257679,0.093659,0.118365
"2019-05-06 15:56:03.387 +0000",1557158163.387126,1.255457,0.544955,2.579149,0.812984,-0.518379,-0.265216,0.000000,0.000000,0.000000,-1,-0.497233,-0.429244,0.107751,-0.284099,0.207802,0.098666
"2019-05-06 15:56:03.407 +0000",1557158163.407115,1.240835,0.543560,2.591776,0.809703,-0.517186,-0.277308,0.000000,0.000000,0.000000,-1,-0.564506,-0.400795,0.078265,-0.270564,0.251713,0.068400
"2019-05-06 15:56:03.427 +0000",1557158163.427072,1.226978,0.541514,2.603741,0.806777,-0.515434,-0.288858,0.000000,0.000000,0.000000,-1,-0.462323,-0.371170,0.056818,-0.232635,0.225532,0.189523
"2019-05-06 15:56:03.447 +0000",1557158163.447031,1.214293,0.539385,2.613048,0.804075,-0.513608,-0.299450,0.000000,0.000000,0.000000,-1,-0.401203,-0.449277,-0.022908,-0.224760,0.289472,0.189098
"2019-05-06 15:56:03.467 +0000",1557158163.466988,1.200639,0.535653,2.621188,0.801693,-0.510403,-0.311092,0.000000,0.000000,0.000000,-1,-0.382147,-0.457630,-0.081530,-0.222591,0.281032,0.093486
"2019-05-06 15:56:03.487 +0000",1557158163.486976,1.188302,0.531921,2.627580,0.799555,-0.507190,-0.321668,0.000000,0.000000,0.000000,-1,-0.284370,-0.486067,-0.077546,-0.203990,0.198047,0.120511
"2019-05-06 15:56:03.507 +0000",1557158163.506935,1.177519,0.528158,2.632359,0.797797,-0.503943,-0.330999,0.000000,0.000000,0.000000,-1,-0.267473,-0.330969,-0.121227,-0.180930,0.180213,0.162466
"2019-05-06 15:56:03.527 +0000",1557158163.526893,1.167771,0.522917,2.636535,0.796952,-0.499409,-0.339792,0.000000,0.000000,0.000000,-1,-0.263302,-0.561062,-0.284080,-0.141724,0.104848,0.169793
"2019-05-06 15:56:03.547 +0000",1557158163.546881,1.155329,0.513047,2.637380,0.797134,-0.490834,-0.351653,0.000000,0.000000,0.000000,-1,-0.234508,-0.500548,-0.575653,0.131547,-0.194499,0.146956
"2019-05-06 15:56:03.567 +0000",1557158163.566839,1.148676,0.499483,2.639012,0.800776,-0.478972,-0.359643,0.000000,0.000000,0.000000,-1,-0.551468,-0.216421,-0.600627,0.334173,-0.525071,0.239618
"2019-05-06 15:56:03.587 +0000",1557158163.586798,1.134499,0.481568,2.651909,0.803246,-0.463169,-0.374526,0.000000,0.000000,0.000000,-1,-1.230157,-0.584353,-0.558787,0.346915,-0.658855,0.057921
"2019-05-06 15:56:03.607 +0000",1557158163.606757,1.110109,0.458383,2.678303,0.803278,-0.442499,-0.398671,0.000000,0.000000,0.000000,-1,-1.943247,-0.606598,-0.540034,0.196264,-0.566962,-0.099253
"2019-05-06 15:56:03.627 +0000",1557158163.626746,1.084721,0.429503,2.715702,0.803866,-0.416419,-0.424728,0.000000,0.000000,0.000000,-1,-2.266865,-0.354193,-0.456513,0.308332,-0.589516,-0.420471
"2019-05-06 15:56:03.647 +0000",1557158163.646702,1.060900,0.404636,2.753444,0.802313,-0.393685,-0.448672,0.000000,0.000000,0.000000,-1,-1.956151,-0.551960,-0.127701,0.529245,-0.616386,-0.373670
"2019-05-06 15:56:03.667 +0000",1557158163.666661,1.037526,0.384220,2.785223,0.798364,-0.374836,-0.471289,0.000000,0.000000,0.000000,-1,-1.627370,-0.547303,-0.275700,0.565696,-0.263042,-0.104608
"2019-05-06 15:56:03.687 +0000",1557158163.686649,1.018946,0.364247,2.806209,0.795687,-0.356246,-0.489868,0.000000,0.000000,0.000000,-1,-1.090631,-0.648958,-0.415791,0.520155,0.016585,-0.088714
"2019-05-06 15:56:03.707 +0000",1557158163.706609,1.001736,0.351993,2.816095,0.790757,-0.344769,-0.505803,0.000000,0.000000,0.000000,-1,-0.342183,-0.606297,-0.146720,0.324706,-0.073276,-0.025737
"2019-05-06 15:56:03.727 +0000",1557158163.726567,0.996534,0.349237,2.816482,0.788910,-0.342181,-0.510424,0.000000,0.000000,0.000000,-1,-0.021863,0.045819,-0.180024,0.278778,-0.152585,-0.050978
"2019-05-06 15:56:03.747 +0000",1557158163.746522,1.002885,0.345912,2.814942,0.793091,-0.339055,-0.506012,0.000000,0.000000,0.000000,-1,-0.017912,0.468906,-0.143850,0.140091,-0.305705,-0.014327
"2019-05-06 15:56:03.767 +0000",1557158163.766511,1.015345,0.346797,2.812102,0.799079,-0.339887,-0.495933,0.000000,0.000000,0.000000,-1,0.268677,0.602828,0.027076,-0.143744,-0.192172,0.186836
"2019-05-06 15:56:03.786 +0000",1557158163.786470,1.030685,0.354422,2.804377,0.804346,-0.347049,-0.482271,0.000000,0.000000,0.000000,-1,0.759957,0.664205,0.249025,-0.359781,0.004489,0.268861
"2019-05-06 15:56:03.806 +0000",1557158163.806428,1.049491,0.371961,2.789924,0.807870,-0.363443,-0.463956,0.000000,0.000000,0.000000,-1,1.209971,0.630425,0.525716,-0.497781,0.124368,0.272779
"2019-05-06 15:56:03.826 +0000",1557158163.826416,1.069177,0.396688,2.771245,0.808718,-0.386365,-0.443506,0.000000,0.000000,0.000000,-1,1.471434,0.648078,0.757409,-0.563448,0.170545,0.230601
"2019-05-06 15:56:03.846 +0000",1557158163.846374,1.088395,0.425232,2.750956,0.806989,-0.412532,-0.422593,0.000000,0.000000,0.000000,-1,1.445352,0.357231,0.810979,-0.472120,0.144985,0.115510
"2019-05-06 15:56:03.866 +0000",1557158163.866332,1.099774,0.450046,2.731244,0.802375,-0.435007,-0.408612,0.000000,0.000000,0.000000,-1,1.257009,-0.027246,0.501921,-0.296180,0.126673,0.073849
"2019-05-06 15:56:03.886 +0000",1557158163.886292,1.106135,0.464924,2.711830,0.799083,-0.448355,-0.400555,0.000000,0.000000,0.000000,-1,0.941174,-0.162583,0.029019,-0.179927,0.166083,0.047680
"2019-05-06 15:56:03.906 +0000",1557158163.906280,1.115482,0.469933,2.693688,0.800765,-0.452827,-0.392076,0.000000,0.000000,0.000000,-1,0.758403,0.398137,-0.286290,-0.225035,0.276893,0.122926
"2019-05-06 15:56:03.926 +0000",1557158163.926236,1.140473,0.469509,2.674979,0.810486,-0.452449,-0.372024,0.000000,0.000000,0.000000,-1,0.714975,1.180992,-0.489933,-0.307419,0.325389,0.233398
"2019-05-06 15:56:03.946 +0000",1557158163.946195,1.175455,0.465264,2.656285,0.824767,-0.448659,-0.344186,0.000000,0.000000,0.000000,-1,0.641056,1.354055,-0.526643,-0.358505,0.307316,0.200082
"2019-05-06 15:56:03.966 +0000",1557158163.966185,1.206847,0.462444,2.639516,0.836343,-0.446137,-0.318579,0.000000,0.000000,0.000000,-1,0.687880,0.950561,-0.271332,-0.339013,0.117966,0.017752
"2019-05-06 15:56:03.986 +0000",1557158163.986109,1.226579,0.464573,2.621938,0.841570,-0.448041,-0.301694,0.000000,0.000000,0.000000,-1,0.821585,0.226997,-0.077278,-0.120653,-0.189028,-0.168658
"2019-05-06 15:56:04.006 +0000",1557158164.006067,1.236191,0.470125,2.607336,0.842068,-0.452998,-0.292769,0.000000,0.000000,0.000000,-1,0.497654,0.236672,0.121064,-0.039456,-0.217092,-0.131303
"2019-05-06 15:56:04.026 +0000",1557158164.026055,1.243404,0.474013,2.605000,0.842485,-0.456460,-0.286119,0.000000,0.000000,0.000000,-1,-0.190613,0.268186,0.135866,-0.128938,-0.021018,-0.058195
"2019-05-06 15:56:04.046 +0000",1557158164.046014,1.239617,0.473789,2.614892,0.841491,-0.456261,-0.289341,0.000000,0.000000,0.000000,-1,-0.574574,-0.210548,0.100934,-0.099532,-0.003883,-0.149074
"2019-05-06 15:56:04.066 +0000",1557158164.065971,1.229867,0.470652,2.624504,0.839975,-0.453467,-0.298009,0.000000,0.000000,0.000000,-1,-0.216396,-0.134223,-0.075740,0.201681,-0.383889,-0.142558
"2019-05-06 15:56:04.086 +0000",1557158164.085928,1.238395,0.473082,2.620687,0.841442,-0.455632,-0.290474,0.000000,0.000000,0.000000,-1,0.523765,0.500686,0.221511,0.471577,-0.583858,0.259834
"2019-05-06 15:56:04.106 +0000",1557158164.105917,1.239696,0.480957,2.616052,0.838399,-0.462628,-0.288204,0.000000,0.000000,0.000000,-1,-0.093924,-0.540950,0.322092,0.664408,-0.814685,0.201961
"2019-05-06 15:56:04.126 +0000",1557158164.125876,1.222794,0.481722,2.626695,0.833076,-0.463306,-0.302212,0.000000,0.000000,0.000000,-1,-0.597792,-0.484573,-0.035051,0.460244,-0.539609,0.099896
"2019-05-06 15:56:04.146 +0000",1557158164.145834,1.214578,0.477041,2.630623,0.832589,-0.459152,-0.309799,0.000000,0.000000,0.000000,-1,0.234904,-0.355186,-0.202594,0.491920,0.008789,0.084427
"2019-05-06 15:56:04.166 +0000",1557158164.165823,1.210969,0.478871,2.614861,0.830677,-0.460777,-0.312505,0.000000,0.000000,0.000000,-1,0.989297,-0.595180,-0.183844,0.381801,-0.036674,-0.014506
"2019-05-06 15:56:04.186 +0000",1557158164.185780,1.214319,0.483778,2.590997,0.829590,-0.465127,-0.308928,0.000000,0.000000,0.000000,-1,1.072862,-0.175672,-0.100483,0.126129,-0.154212,-0.045533
"2019-05-06 15:56:04.206 +0000",1557158164.205738,1.227494,0.490309,2.569016,0.830710,-0.470899,-0.296943,0.000000,0.000000,0.000000,-1,0.952720,0.473943,-0.023496,0.141443,-0.205172,-0.191491
"2019-05-06 15:56:04.226 +0000",1557158164.225698,1.250180,0.497680,2.550003,0.833915,-0.477389,-0.276922,0.000000,0.000000,0.000000,-1,0.871532,0.752202,0.177229,0.246499,-0.312956,-0.089183
"2019-05-06 15:56:04.246 +0000",1557158164.245686,1.269018,0.507258,2.532866,0.834580,-0.485782,-0.259793,0.000000,0.000000,0.000000,-1,0.794420,0.250306,0.123917,0.163544,-0.204647,0.141827
"2019-05-06 15:56:04.266 +0000",1557158164.265644,1.281593,0.512891,2.516729,0.835144,-0.490699,-0.248493,0.000000,0.000000,0.000000,-1,0.724276,0.350881,0.067801,0.104797,-0.054315,0.139347
"2019-05-06 15:56:04.286 +0000",1557158164.285602,1.297954,0.519539,2.502730,0.835938,-0.496480,-0.233913,0.000000,0.000000,0.000000,-1,0.545218,0.491044,0.130992,-0.032517,-0.011470,0.096370
"2019-05-06 15:56:04.306 +0000",1557158164.305590,1.309991,0.523659,2.495174,0.836709,-0.500053,-0.223304,0.000000,0.000000,0.000000,-1,0.218325,0.316956,0.117975,-0.138345,0.006278,0.074760
"2019-05-06 15:56:04.326 +0000",1557158164.325548,1.317059,0.528441,2.492412,0.835943,-0.504188,-0.216782,0.000000,0.000000,0.000000,-1,0.109853,0.224986,0.225743,-0.316335,0.028083,0.118027
"2019-05-06 15:56:04.346 +0000",1557158164.345507,1.319727,0.535343,2.491930,0.833127,-0.510136,-0.213682,0.000000,0.000000,0.000000,-1,0.110811,-0.016131,0.422820,-0.430860,0.025899,0.132780
"2019-05-06 15:56:04.365 +0000",1557158164.365464,1.318074,0.545882,2.491686,0.827521,-0.519172,-0.213702,0.000000,0.000000,0.000000,-1,0.121572,-0.170137,0.495344,-0.468314,0.076393,0.167910
"2019-05-06 15:56:04.385 +0000",1557158164.385452,1.312901,0.554972,2.493890,0.821807,-0.526919,-0.216768,0.000000,0.000000,0.000000,-1,-0.147210,-0.206215,0.416532,-0.439193,0.129291,0.168657
"2019-05-06 15:56:04.405 +0000",1557158164.405412,1.303020,0.561125,2.505093,0.816484,-0.532139,-0.224015,0.000000,0.000000,0.000000,-1,-0.634330,-0.221040,0.358593,-0.334840,0.152180,0.101578
"2019-05-06 15:56:04.425 +0000",1557158164.425368,1.288673,0.562397,2.525070,0.812535,-0.533216,-0.235517,0.000000,0.000000,0.000000,-1,-0.916965,-0.134547,0.227711,-0.305684,0.237531,0.117780
"2019-05-06 15:56:04.445 +0000",1557158164.445357,1.274084,0.561200,2.548260,0.809622,-0.532203,-0.247532,0.000000,0.000000,0.000000,-1,-1.021912,-0.137133,0.194752,-0.322455,0.272239,0.140888
"2019-05-06 15:56:04.465 +0000",1557158164.465316,1.256739,0.558487,2.573839,0.806577,-0.529904,-0.261982,0.000000,0.000000,0.000000,-1,-1.087069,-0.229337,0.187976,-0.356306,0.280285,0.014347
"2019-05-06 15:56:04.485 +0000",1557158164.485272,1.238404,0.555677,2.597302,0.803043,-0.527519,-0.277210,0.000000,0.000000,0.000000,-1,-0.937635,-0.400717,0.146101,-0.246494,0.251091,-0.009457
"2019-05-06 15:56:04.505 +0000",1557158164.505262,1.219078,0.551311,2.618817,0.799691,-0.523805,-0.293468,0.000000,0.000000,0.000000,-1,-0.908651,-0.323324,0.041908,-0.048699,0.208360,-0.054692
"2019-05-06 15:56:04.525 +0000",1557158164.525220,1.206355,0.546128,2.635265,0.798419,-0.519382,-0.304582,0.000000,0.000000,0.000000,-1,-0.585491,-0.180103,-0.060327,0.098691,0.185596,0.072481
"2019-05-06 15:56:04.545 +0000",1557158164.545179,1.196145,0.541937,2.643561,0.797286,-0.515796,-0.313512,0.000000,0.000000,0.000000,-1,-0.225913,-0.437380,-0.059938,0.138871,0.217136,0.060582
"2019-05-06 15:56:04.565 +0000",1557158164.565136,1.186000,0.540166,2.642335,0.794909,-0.514279,-0.321926,0.000000,0.000000,0.000000,-1,0.247558,-0.638774,-0.189770,0.012159,0.290737,0.103848
"2019-05-06 15:56:04.585 +0000",1557158164.585125,1.176757,0.538045,2.631134,0.792906,-0.512458,-0.329678,0.000000,0.000000,0.000000,-1,0.470099,-0.887458,-0.409298,-0.063917,0.231910,0.218823
"2019-05-06 15:56:04.605 +0000",1557158164.605082,1.163998,0.529392,2.620841,0.792678,-0.505008,-0.341509,0.000000,0.000000,0.000000,-1,-0.149270,-0.772056,-0.714185,0.143235,-0.121365,0.126971
"2019-05-06 15:56:04.625 +0000",1557158164.625042,1.155249,0.513239,2.626232,0.797019,-0.491002,-0.351678,0.000000,0.000000,0.000000,-1,-0.860652,0.094137,-0.554586,0.294640,-0.586040,0.176904
"2019-05-06 15:56:04.645 +0000",1557158164.645030,1.148714,0.495243,2.642053,0.802636,-0.475245,-0.360442,0.000000,0.000000,0.000000,-1,-1.061016,-0.135743,-0.596350,0.334327,-0.752568,0.046217
"2019-05-06 15:56:04.665 +0000",1557158164.664987,1.135531,0.476255,2.657544,0.805853,-0.458454,-0.374729,0.000000,0.000000,0.000000,-1,-1.058963,-0.448499,-0.502361,0.376597,-0.749096,-0.093487
"2019-05-06 15:56:04.685 +0000",1557158164.684946,1.118494,0.460132,2.679462,0.805896,-0.444066,-0.391583,0.000000,0.000000,0.000000,-1,-1.428230,-0.171454,-0.158241,0.543210,-0.752574,-0.413379
"2019-05-06 15:56:04.705 +0000",1557158164.704904,1.106079,0.447595,2.707947,0.805886,-0.432799,-0.404021,0.000000,0.000000,0.000000,-1,-1.368645,-0.009393,0.126151,0.454414,-0.721590,-0.173280
"2019-05-06 15:56:04.725 +0000",1557158164.724892,1.089282,0.439963,2.733149,0.801891,-0.425906,-0.419018,0.000000,0.000000,0.000000,-1,-1.012776,-0.680974,0.148429,0.310414,-0.316282,0.027767
"2019-05-06 15:56:04.745 +0000",1557158164.744850,1.065723,0.435960,2.748664,0.793283,-0.422281,-0.438613,0.000000,0.000000,0.000000,-1,-0.412640,-0.900598,0.159056,0.163382,0.084253,0.098158
"2019-05-06 15:56:04.765 +0000",1557158164.764808,1.049322,0.436148,2.754019,0.785914,-0.422451,-0.451524,0.000000,0.000000,0.000000,-1,-0.158080,-0.523562,0.010297,0.143941,0.248257,0.028703
"2019-05-06 15:56:04.785 +0000",1557158164.784797,1.041628,0.433325,2.756027,0.783443,-0.419891,-0.458158,0.000000,0.000000,0.000000,-1,-0.122415,-0.173708,-0.127823,0.255436,0.100265,-0.048541
"2019-05-06 15:56:04.805 +0000",1557158164.804755,1.042666,0.431133,2.755091,0.784711,-0.417900,-0.457807,0.000000,0.000000,0.000000,-1,0.042718,0.142693,-0.155098,0.167178,-0.072456,-0.016436
"2019-05-06 15:56:04.825 +0000",1557158164.824713,1.048445,0.430228,2.749916,0.787672,-0.417078,-0.453453,0.000000,0.000000,0.000000,-1,0.329567,0.194832,-0.153318,-0.021924,-0.054465,0.078362
"2019-05-06 15:56:04.845 +0000",1557158164.844671,1.057682,0.433110,2.739377,0.790776,-0.419695,-0.445566,0.000000,0.000000,0.000000,-1,0.565019,0.245422,-0.108065,-0.191258,0.015658,0.220530
"2019-05-06 15:56:04.865 +0000",1557158164.864660,1.069807,0.438605,2.726111,0.794085,-0.424676,-0.434831,0.000000,0.000000,0.000000,-1,0.764540,0.447163,0.004816,-0.355151,0.093149,0.319765
"2019-05-06 15:56:04.885 +0000",1557158164.884617,1.089453,0.448220,2.709419,0.798818,-0.433362,-0.417238,0.000000,0.000000,0.000000,-1,0.938671,0.725564,0.080054,-0.464940,0.156873,0.307710
"2019-05-06 15:56:04.905 +0000",1557158164.904575,1.112242,0.459291,2.692838,0.803766,-0.443313,-0.396779,0.000000,0.000000,0.000000,-1,0.834132,0.807140,0.240379,-0.525385,0.140121,0.165211
"2019-05-06 15:56:04.925 +0000",1557158164.924565,1.134588,0.470247,2.680988,0.807981,-0.453107,-0.376646,0.000000,0.000000,0.000000,-1,0.575726,0.797473,0.183550,-0.509778,0.117810,0.046522
"2019-05-06 15:56:04.945 +0000",1557158164.944521,1.151077,0.476292,2.670733,0.811565,-0.458487,-0.362150,0.000000,0.000000,0.000000,-1,0.535976,0.360402,0.022919,-0.442775,0.168463,0.109861
"2019-05-06 15:56:04.964 +0000",1557158164.964482,1.162351,0.481522,2.658535,0.813384,-0.463129,-0.352020,0.000000,0.000000,0.000000,-1,0.654958,0.301456,-0.013889,-0.427398,0.274240,0.218475
"2019-05-06 15:56:04.984 +0000",1557158164.984478,1.180026,0.486161,2.641906,0.817484,-0.467235,-0.336767,0.000000,0.000000,0.000000,-1,0.885183,0.691186,-0.155079,-0.400202,0.331889,0.193548
"2019-05-06 15:56:05.004 +0000",1557158165.004436,1.207176,0.489127,2.620584,0.825026,-0.469855,-0.313957,0.000000,0.000000,0.000000,-1,0.922655,0.943569,-0.240540,-0.300627,0.240775,0.067893
"2019-05-06 15:56:05.024 +0000",1557158165.024395,1.230585,0.493177,2.598965,0.830347,-0.473427,-0.293922,0.000000,0.000000,0.000000,-1,0.999245,0.268727,-0.038318,-0.212092,-0.074715,0.018501
"2019-05-06 15:56:05.044 +0000",1557158165.044353,1.239161,0.500300,2.579464,0.829628,-0.479689,-0.285685,0.000000,0.000000,0.000000,-1,0.791948,-0.270972,0.110548,-0.083946,-0.174883,-0.118016
"2019-05-06 15:56:05.064 +0000",1557158165.064341,1.238945,0.506567,2.568803,0.826708,-0.485179,-0.284879,0.000000,0.000000,0.000000,-1,0.244930,-0.165227,0.149442,-0.048677,-0.108373,-0.180117
"2019-05-06 15:56:05.084 +0000",1557158165.084300,1.238067,0.508827,2.569693,0.825419,-0.487153,-0.285246,0.000000,0.000000,0.000000,-1,-0.199728,0.056235,0.061164,-0.012675,0.031480,-0.013826
"2019-05-06 15:56:05.104 +0000",1557158165.104257,1.235720,0.506645,2.575555,0.825749,-0.485246,-0.287531,0.000000,0.000000,0.000000,-1,-0.315215,-0.131535,-0.133247,-0.007115,0.047441,-0.114156
"2019-05-06 15:56:05.124 +0000",1557158165.124247,1.227229,0.500851,2.580487,0.825911,-0.480172,-0.295474,0.000000,0.000000,0.000000,-1,-0.208341,-0.168381,-0.229528,0.204286,-0.397116,-0.286267
"2019-05-06 15:56:05.144 +0000",1557158165.144204,1.232407,0.498891,2.578338,0.828317,-0.478452,-0.291506,0.000000,0.000000,0.000000,-1,0.249002,0.280625,-0.015383,0.462760,-0.487079,0.221422
"2019-05-06 15:56:05.164 +0000",1557158165.164161,1.230269,0.503013,2.575213,0.825825,-0.482067,-0.292615,0.000000,0.000000,0.000000,-1,0.012698,-0.709357,0.242238,0.614864,-0.511509,0.259732
"2019-05-06 15:56:05.184 +0000",1557158165.184120,1.213610,0.504364,2.580264,0.820225,-0.483251,-0.306103,0.000000,0.000000,0.000000,-1,-0.187415,-0.452322,0.034700,0.440440,-0.327083,-0.061359
"2019-05-06 15:56:05.204 +0000",1557158165.204109,1.210221,0.504886,2.574924,0.818947,-0.483708,-0.308792,0.000000,0.000000,0.000000,-1,0.711508,-0.365714,-0.204301,0.333030,0.003239,-0.253372
"2019-05-06 15:56:05.224 +0000",1557158165.224066,1.212364,0.507958,2.553193,0.818211,-0.486394,-0.306514,0.000000,0.000000,0.000000,-1,0.926189,-0.369570,-0.114161,0.534480,-0.348475,0.126353
"2019-05-06 15:56:05.244 +0000",1557158165.244025,1.209162,0.512045,2.538610,0.815360,-0.489961,-0.308426,0.000000,0.000000,0.000000,-1,0.376970,-0.735030,-0.105516,0.270669,-0.317549,0.243347
"2019-05-06 15:56:05.264 +0000",1557158165.264013,1.205151,0.509875,2.530982,0.815107,-0.488068,-0.312074,0.000000,0.000000,0.000000,-1,0.281408,0.140037,-0.276504,-0.011686,-0.011688,-0.074584
"2019-05-06 15:56:05.284 +0000",1557158165.283971,1.218577,0.509879,2.519869,0.819221,-0.488072,-0.301102,0.000000,0.000000,0.000000,-1,0.578285,0.485507,-0.071305,0.068535,-0.055507,-0.278687
"2019-05-06 15:56:05.304 +0000",1557158165.303929,1.235685,0.515645,2.506931,0.821581,-0.493096,-0.286113,0.000000,0.000000,0.000000,-1,0.621482,0.528866,0.220307,0.090513,-0.205314,0.123103
"2019-05-06 15:56:05.324 +0000",1557158165.323887,1.248952,0.524524,2.496182,0.821119,-0.500801,-0.273791,0.000000,0.000000,0.000000,-1,0.535801,0.222081,0.213478,0.021288,-0.108330,0.247134
"2019-05-06 15:56:05.344 +0000",1557158165.343876,1.257601,0.531824,2.485177,0.819956,-0.507107,-0.265547,0.000000,0.000000,0.000000,-1,0.569183,0.121579,0.201449,-0.069712,0.006847,0.231046
"2019-05-06 15:56:05.364 +0000",1557158165.363834,1.264673,0.538541,2.476405,0.818547,-0.512884,-0.258708,0.000000,0.000000,0.000000,-1,0.270793,0.101426,0.160751,-0.088643,0.088766,0.104274
"2019-05-06 15:56:05.384 +0000",1557158165.383792,1.267808,0.542802,2.474530,0.817261,-0.516537,-0.255487,0.000000,0.000000,0.000000,-1,0.056389,0.110250,0.190259,-0.197846,0.118756,0.082284
"2019-05-06 15:56:05.404 +0000",1557158165.403780,1.269828,0.547845,2.474635,0.815277,-0.520849,-0.253060,0.000000,0.000000,0.000000,-1,0.059935,0.028444,0.266971,-0.303879,0.077077,0.110147
"2019-05-06 15:56:05.424 +0000",1557158165.423738,1.268802,0.553998,2.475934,0.811942,-0.526091,-0.252939,0.000000,0.000000,0.000000,-1,-0.026636,-0.057014,0.324855,-0.370063,0.057998,0.085275
"2019-05-06 15:56:05.444 +0000",1557158165.443696,1.263544,0.559822,2.482654,0.807667,-0.531035,-0.256273,0.000000,0.000000,0.000000,-1,-0.419722,-0.118881,0.344806,-0.301319,0.149291,0.040850
"2019-05-06 15:56:05.464 +0000",1557158165.463686,1.253054,0.561962,2.498773,0.803852,-0.532848,-0.264376,0.000000,0.000000,0.000000,-1,-0.768047,-0.091211,0.267447,-0.228611,0.246532,-0.013716
"2019-05-06 15:56:05.484 +0000",1557158165.483643,1.241337,0.561749,2.517787,0.800807,-0.532667,-0.273813,0.000000,0.000000,0.000000,-1,-0.748676,-0.110340,0.186783,-0.170146,0.260786,0.044443
"2019-05-06 15:56:05.504 +0000",1557158165.503602,1.230524,0.560061,2.533695,0.798646,-0.531238,-0.282756,0.000000,0.000000,0.000000,-1,-0.574027,-0.115921,0.095053,-0.145921,0.282169,0.057475
"2019-05-06 15:56:05.524 +0000",1557158165.523559,1.222260,0.558180,2.545113,0.797220,-0.529643,-0.289686,0.000000,0.000000,0.000000,-1,-0.458722,-0.135340,0.028470,-0.160074,0.276363,0.065580
"2019-05-06 15:56:05.544 +0000",1557158165.543549,1.213897,0.555245,2.555356,0.796223,-0.527152,-0.296885,0.000000,0.000000,0.000000,-1,-0.461237,-0.147011,0.003575,-0.149219,0.232169,0.012248
"2019-05-06 15:56:05.564 +0000",1557158165.563505,1.206178,0.552591,2.564718,0.795212,-0.524894,-0.303521,0.000000,0.000000,0.000000,-1,-0.416976,-0.158693,0.000724,-0.092605,0.170677,0.028588
"2019-05-06 15:56:05.583 +0000",1557158165.583464,1.198397,0.549535,2.574473,0.794316,-0.522291,-0.310281,0.000000,0.000000,0.000000,-1,-0.459207,-0.133266,0.015459,-0.014073,0.125212,0.005349
"2019-05-06 15:56:05.603 +0000",1557158165.603452,1.188572,0.548828,2.581965,0.791572,-0.521688,-0.318207,0.000000,0.000000,0.000000,-1,-0.119548,-0.583893,0.144178,-0.015754,0.130605,0.110047
"2019-05-06 15:56:05.623 +0000",1557158165.623412,1.171965,0.551016,2.581558,0.785125,-0.523553,-0.330864,0.000000,0.000000,0.000000,-1,0.135696,-0.977120,-0.065151,-0.018966,0.106210,0.215569
"2019-05-06 15:56:05.643 +0000",1557158165.643368,1.155727,0.545300,2.579056,0.782375,-0.518675,-0.344770,0.000000,0.000000,0.000000,-1,-0.282472,-0.808773,-0.506166,0.220265,-0.110796,0.201948
"2019-05-06 15:56:05.663 +0000",1557158165.663326,1.136212,0.530018,2.588245,0.782597,-0.505549,-0.363267,0.000000,0.000000,0.000000,-1,-1.075703,-0.619942,-0.511863,0.350719,-0.462805,0.188005
"2019-05-06 15:56:05.683 +0000",1557158165.683315,1.117855,0.509538,2.610937,0.784943,-0.487774,-0.382022,0.000000,0.000000,0.000000,-1,-1.569717,-0.184595,-0.576716,0.305252,-0.742054,0.068958
"2019-05-06 15:56:05.703 +0000",1557158165.703274,1.102448,0.482668,2.638942,0.790377,-0.464144,-0.399844,0.000000,0.000000,0.000000,-1,-1.799852,0.052582,-0.668475,0.197187,-0.801100,-0.219175
"2019-05-06 15:56:05.723 +0000",1557158165.723230,1.091493,0.458651,2.669349,0.795613,-0.442739,-0.413500,0.000000,0.000000,0.000000,-1,-1.666215,0.058121,-0.204069,0.215633,-0.658823,-0.230161
"2019-05-06 15:56:05.743 +0000",1557158165.743220,1.075371,0.447447,2.694510,0.793158,-0.432665,-0.428604,0.000000,0.000000,0.000000,-1,-0.769282,-0.579597,0.230883,0.243127,-0.219603,-0.089447
"2019-05-06 15:56:05.763 +0000",1557158165.763178,1.058230,0.450287,2.704915,0.784621,-0.435224,-0.441532,0.000000,0.000000,0.000000,-1,-0.084121,-0.628110,0.370997,0.260576,0.097578,0.031452
"2019-05-06 15:56:05.783 +0000",1557158165.783136,1.045145,0.456767,2.708960,0.776320,-0.441049,-0.450336,0.000000,0.000000,0.000000,-1,0.064103,-0.497805,0.380357,0.281602,0.082162,0.089771
"2019-05-06 15:56:05.803 +0000",1557158165.803095,1.040517,0.465430,2.708970,0.770903,-0.448807,-0.451974,0.000000,0.000000,0.000000,-1,0.376987,0.033071,0.284575,0.232164,0.041245,0.110818
"2019-05-06 15:56:05.823 +0000",1557158165.823082,1.049108,0.473671,2.699555,0.771524,-0.456156,-0.443477,0.000000,0.000000,0.000000,-1,0.729735,0.386634,0.017902,0.088629,0.036219,0.112148
"2019-05-06 15:56:05.843 +0000",1557158165.843040,1.068544,0.481014,2.682824,0.777041,-0.462678,-0.426775,0.000000,0.000000,0.000000,-1,0.842506,0.693009,-0.128186,-0.071673,-0.008819,0.102449
"2019-05-06 15:56:05.863 +0000",1557158165.863000,1.091166,0.486686,2.666583,0.784155,-0.467700,-0.407871,0.000000,0.000000,0.000000,-1,0.652617,0.831648,0.001952,-0.256918,0.014529,0.067905
"2019-05-06 15:56:05.883 +0000",1557158165.882987,1.115492,0.494385,2.656751,0.790586,-0.474491,-0.387082,0.000000,0.000000,0.000000,-1,0.473157,1.073248,0.268540,-0.401792,0.059558,-0.003543
"2019-05-06 15:56:05.903 +0000",1557158165.902945,1.138874,0.506179,2.649399,0.794282,-0.484839,-0.366124,0.000000,0.000000,0.000000,-1,0.675920,0.814223,0.483766,-0.505250,0.103339,0.004887
"2019-05-06 15:56:05.923 +0000",1557158165.922903,1.156192,0.522423,2.634208,0.793190,-0.498981,-0.349096,0.000000,0.000000,0.000000,-1,1.176432,0.124357,0.367571,-0.428611,0.212025,0.077932
"2019-05-06 15:56:05.943 +0000",1557158165.942892,1.166107,0.536709,2.609238,0.789978,-0.511310,-0.338373,0.000000,0.000000,0.000000,-1,1.254644,-0.278715,0.101003,-0.244431,0.280430,0.033060
"2019-05-06 15:56:05.963 +0000",1557158165.962850,1.174044,0.544960,2.586434,0.788721,-0.518384,-0.330450,0.000000,0.000000,0.000000,-1,0.790583,-0.100733,-0.156947,-0.158517,0.271772,-0.080332
"2019-05-06 15:56:05.983 +0000",1557158165.982787,1.185355,0.543503,2.572020,0.793107,-0.517137,-0.321792,0.000000,0.000000,0.000000,-1,0.345021,0.638922,-0.400097,-0.082612,0.213564,-0.010666
"2019-05-06 15:56:06.003 +0000",1557158166.002746,1.209621,0.538764,2.559736,0.802965,-0.513076,-0.303316,0.000000,0.000000,0.000000,-1,0.564735,0.852994,-0.432637,-0.021517,0.093718,0.201113
"2019-05-06 15:56:06.023 +0000",1557158166.022732,1.228779,0.538520,2.538542,0.808746,-0.512866,-0.287920,0.000000,0.000000,0.000000,-1,1.145868,-0.068813,-0.177939,0.066849,-0.058224,0.034701
"2019-05-06 15:56:06.043 +0000",1557158166.042691,1.237091,0.547355,2.510585,0.806799,-0.520431,-0.279693,0.000000,0.000000,0.000000,-1,1.265781,-0.420644,0.172788,-0.057745,-0.260361,-0.194352
"2019-05-06 15:56:06.063 +0000",1557158166.062649,1.242891,0.557346,2.489010,0.803444,-0.528936,-0.273321,0.000000,0.000000,0.000000,-1,0.701754,-0.031606,0.146153,-0.055229,-0.102152,-0.088526
"2019-05-06 15:56:06.083 +0000",1557158166.082638,1.251000,0.561508,2.483682,0.803537,-0.532463,-0.266102,0.000000,0.000000,0.000000,-1,-0.151549,0.471460,0.064319,-0.072062,0.112419,-0.029018
"2019-05-06 15:56:06.103 +0000",1557158166.102597,1.253639,0.560099,2.492297,0.804949,-0.531270,-0.264214,0.000000,0.000000,0.000000,-1,-0.398574,0.163881,0.076376,-0.143816,-0.011012,-0.149223
"2019-05-06 15:56:06.123 +0000",1557158166.122555,1.250408,0.562551,2.494118,0.802852,-0.533346,-0.266403,0.000000,0.000000,0.000000,-1,0.362393,-0.347002,0.139288,-0.098354,-0.100962,0.035629
"2019-05-06 15:56:06.143 +0000",1557158166.142512,1.250468,0.569236,2.480163,0.799466,-0.538989,-0.265226,0.000000,0.000000,0.000000,-1,0.888350,-0.399107,0.125964,0.045535,-0.134031,0.363645
"2019-05-06 15:56:06.163 +0000",1557158166.162501,1.249409,0.576872,2.459759,0.795257,-0.545405,-0.264765,0.000000,0.000000,0.000000,-1,0.876718,-0.936338,-0.023688,0.111360,-0.137823,0.409754
"2019-05-06 15:56:06.182 +0000",1557158166.182459,1.238114,0.579957,2.441414,0.790621,-0.547988,-0.273180,0.000000,0.000000,0.000000,-1,0.722057,-1.009040,-0.151254,0.130796,-0.056398,0.211778
"2019-05-06 15:56:06.202 +0000",1557158166.202417,1.233121,0.581754,2.422958,0.788317,-0.549490,-0.276797,0.000000,0.000000,0.000000,-1,0.712196,-0.653559,-0.228979,-0.047900,0.167914,-0.011335
"2019-05-06 15:56:06.222 +0000",1557158166.222404,1.220903,0.576045,2.412831,0.787811,-0.544712,-0.287478,0.000000,0.000000,0.000000,-1,-0.224434,-0.873710,-0.610590,-0.001754,0.035022,-0.436658
"2019-05-06 15:56:06.242 +0000",1557158166.242362,1.217434,0.564166,2.418251,0.792824,-0.534711,-0.292428,0.000000,0.000000,0.000000,-1,-0.445942,0.671522,-0.258596,0.462669,-0.378268,0.067788
"2019-05-06 15:56:06.262 +0000",1557158166.262321,1.221230,0.560298,2.423714,0.795865,-0.531439,-0.290123,0.000000,0.000000,0.000000,-1,-0.107398,-0.258119,-0.019591,0.507968,-0.244135,0.045707
"2019-05-06 15:56:06.282 +0000",1557158166.282280,1.213301,0.562262,2.420437,0.792561,-0.533101,-0.296058,0.000000,0.000000,0.000000,-1,0.463506,-0.472106,0.040353,0.118328,0.039525,-0.094995
"2019-05-06 15:56:06.302 +0000",1557158166.302269,1.217091,0.568960,2.402450,0.790310,-0.538756,-0.291809,0.000000,0.000000,0.000000,-1,1.126545,-0.124540,0.109324,0.129032,0.085082,-0.028641
"2019-05-06 15:56:06.322 +0000",1557158166.322227,1.230070,0.580220,2.380060,0.788263,-0.548208,-0.279482,0.000000,0.000000,0.000000,-1,0.836809,0.110648,0.263276,0.074942,-0.037135,0.009279
"2019-05-06 15:56:06.342 +0000",1557158166.342185,1.235275,0.588962,2.371015,0.785151,-0.555498,-0.273787,0.000000,0.000000,0.000000,-1,0.239578,-0.119399,0.302802,0.100850,0.002016,-0.001055
"2019-05-06 15:56:06.362 +0000",1557158166.362173,1.234457,0.595482,2.367555,0.781492,-0.560908,-0.273228,0.000000,0.000000,0.000000,-1,0.300696,-0.104093,0.169850,0.147479,0.115183,-0.061016
"2019-05-06 15:56:06.382 +0000",1557158166.382132,1.238515,0.599702,2.359192,0.780349,-0.564397,-0.269280,0.000000,0.000000,0.000000,-1,0.444131,0.000137,0.001968,0.234894,0.139989,-0.176140
"2019-05-06 15:56:06.402 +0000",1557158166.402089,1.243196,0.600946,2.350129,0.780936,-0.565423,-0.265397,0.000000,0.000000,0.000000,-1,0.276813,-0.095788,-0.122031,0.200632,0.153543,-0.134642
"2019-05-06 15:56:06.422 +0000",1557158166.422077,1.242145,0.601109,2.342394,0.780570,-0.565557,-0.266188,0.000000,0.000000,0.000000,-1,0.357082,-0.530773,-0.060674,0.054880,0.199758,0.034209
"2019-05-06 15:56:06.442 +0000",1557158166.442036,1.231742,0.600894,2.334617,0.777873,-0.565380,-0.274335,0.000000,0.000000,0.000000,-1,0.206576,-0.818176,-0.095983,-0.084727,0.271542,0.034894
"2019-05-06 15:56:06.462 +0000",1557158166.461994,1.218586,0.598661,2.331966,0.775379,-0.563537,-0.284980,0.000000,0.000000,0.000000,-1,-0.047690,-0.696100,-0.176385,-0.143803,0.287139,-0.002664
"2019-05-06 15:56:06.482 +0000",1557158166.481951,1.202682,0.595094,2.332055,0.772620,-0.560587,-0.297996,0.000000,0.000000,0.000000,-1,-0.085864,-0.984839,-0.160019,-0.169318,0.188654,0.104713
"2019-05-06 15:56:06.502 +0000",1557158166.501940,1.180942,0.592402,2.331425,0.767353,-0.558355,-0.315293,0.000000,0.000000,0.000000,-1,0.052323,-1.140164,-0.096612,-0.258182,0.128729,0.204804
"2019-05-06 15:56:06.522 +0000",1557158166.521899,1.160924,0.591121,2.329539,0.761543,-0.557292,-0.330875,0.000000,0.000000,0.000000,-1,-0.083195,-0.985306,-0.154483,-0.420066,0.093471,0.385379
"2019-05-06 15:56:06.542 +0000",1557158166.541858,1.137222,0.583203,2.335787,0.757468,-0.550700,-0.350673,0.000000,0.000000,0.000000,-1,-0.784030,-1.130968,-0.337808,-0.426383,0.036937,0.355571
"2019-05-06 15:56:06.562 +0000",1557158166.561845,1.100333,0.565917,2.358490,0.752393,-0.536190,-0.382629,0.000000,0.000000,0.000000,-1,-1.685192,-1.151021,-0.358326,-0.438261,-0.016926,0.231231
"2019-05-06 15:56:06.582 +0000",1557158166.581803,1.066095,0.541179,2.393884,0.750237,-0.515147,-0.414448,0.000000,0.000000,0.000000,-1,-2.011527,-0.502336,-0.479380,-0.404702,-0.178945,0.146703
"2019-05-06 15:56:06.602 +0000",1557158166.601762,1.040985,0.512743,2.425596,0.751935,-0.490569,-0.440381,0.000000,0.000000,0.000000,-1,-1.786222,-0.490365,-0.579937,-0.084165,-0.318131,0.063351
"2019-05-06 15:56:06.622 +0000",1557158166.621719,1.015488,0.488889,2.451690,0.750195,-0.469645,-0.465446,0.000000,0.000000,0.000000,-1,-1.404216,-0.798118,-0.276451,0.254642,-0.392431,0.069939
"2019-05-06 15:56:06.642 +0000",1557158166.641707,0.989288,0.472064,2.469620,0.744243,-0.454725,-0.489211,0.000000,0.000000,0.000000,-1,-0.772089,-1.020827,-0.414473,0.679463,-0.306154,-0.042741
"2019-05-06 15:56:06.662 +0000",1557158166.661666,0.972275,0.458117,2.467142,0.740981,-0.442260,-0.505325,0.000000,0.000000,0.000000,-1,0.111618,-0.559921,-0.793969,0.905595,-0.047730,-0.176727
"2019-05-06 15:56:06.682 +0000",1557158166.681624,0.977216,0.448748,2.454444,0.746870,-0.433838,-0.503954,0.000000,0.000000,0.000000,-1,0.140622,0.401896,-0.580243,0.689928,-0.210297,-0.361250
"2019-05-06 15:56:06.702 +0000",1557158166.701613,0.993469,0.442493,2.448973,0.757221,-0.428194,-0.493220,0.000000,0.000000,0.000000,-1,-0.031707,0.828861,-0.241727,0.287502,-0.441771,-0.361501
"2019-05-06 15:56:06.722 +0000",1557158166.721571,1.006271,0.442583,2.446887,0.763441,-0.428275,-0.483466,0.000000,0.000000,0.000000,-1,0.284711,0.218807,0.142689,0.005740,-0.220925,-0.204568
"2019-05-06 15:56:06.742 +0000",1557158166.741528,1.005632,0.454493,2.436759,0.758770,-0.439007,-0.481187,0.000000,0.000000,0.000000,-1,1.197895,-0.665862,0.315391,0.113163,0.147076,-0.050780
"2019-05-06 15:56:06.761 +0000",1557158166.761487,1.002738,0.479207,2.410799,0.747998,-0.461076,-0.477397,0.000000,0.000000,0.000000,-1,1.954639,-0.704186,0.534816,0.252643,0.276506,-0.057760
"2019-05-06 15:56:06.781 +0000",1557158166.781476,1.005785,0.509745,2.378050,0.737210,-0.487954,-0.467356,0.000000,0.000000,0.000000,-1,2.037734,-0.525408,0.403067,0.280277,0.141076,-0.216542
"2019-05-06 15:56:06.801 +0000",1557158166.801434,1.016266,0.532322,2.342550,0.732514,-0.507535,-0.453687,0.000000,0.000000,0.000000,-1,1.703567,-0.243479,-0.155331,0.219162,0.079846,-0.183444
"2019-05-06 15:56:06.821 +0000",1557158166.821391,1.029291,0.541802,2.310291,0.734204,-0.515681,-0.441608,0.000000,0.000000,0.000000,-1,1.200333,-0.099686,-0.395431,0.041034,0.119685,0.012119
"2019-05-06 15:56:06.841 +0000",1557158166.841380,1.044974,0.547274,2.281725,0.738588,-0.520361,-0.428616,0.000000,0.000000,0.000000,-1,1.260963,0.196294,-0.378828,-0.187608,0.293295,0.124402
"2019-05-06 15:56:06.861 +0000",1557158166.861337,1.070096,0.555107,2.248583,0.745523,-0.527034,-0.407960,0.000000,0.000000,0.000000,-1,1.568555,0.592773,-0.315549,-0.383874,0.373515,0.121338
"2019-05-06 15:56:06.881 +0000",1557158166.881297,1.102069,0.565490,2.213387,0.753261,-0.535829,-0.381426,0.000000,0.000000,0.000000,-1,1.437494,0.635912,-0.123298,-0.506404,0.368242,0.100298
"2019-05-06 15:56:06.901 +0000",1557158166.901253,1.124362,0.575458,2.187006,0.756720,-0.544219,-0.362216,0.000000,0.000000,0.000000,-1,1.015358,0.129600,-0.065173,-0.397422,0.295348,0.096011
"2019-05-06 15:56:06.921 +0000",1557158166.921243,1.134326,0.578119,2.167530,0.758977,-0.546449,-0.354044,0.000000,0.000000,0.000000,-1,0.582590,-0.168360,-0.387434,-0.125020,0.268648,0.060480
"2019-05-06 15:56:06.941 +0000",1557158166.941201,1.140646,0.574162,2.150428,0.763158,-0.543132,-0.350140,0.000000,0.000000,0.000000,-1,0.609848,-0.092721,-0.543364,-0.203008,0.193003,0.092937
"2019-05-06 15:56:06.961 +0000",1557158166.961159,1.148612,0.568847,2.131459,0.768546,-0.538661,-0.345227,0.000000,0.000000,0.000000,-1,0.580652,-0.200417,-0.613259,-0.321860,0.250865,0.124188
"2019-05-06 15:56:06.981 +0000",1557158166.981138,1.149742,0.560865,2.112906,0.772835,-0.531919,-0.346105,0.000000,0.000000,0.000000,-1,0.595754,-0.758815,-0.754053,-0.432839,0.456067,0.126317
"2019-05-06 15:56:07.001 +0000",1557158167.001097,1.143155,0.554007,2.087330,0.773840,-0.526099,-0.352693,0.000000,0.000000,0.000000,-1,1.174366,-1.295222,-0.692161,-0.477331,0.319922,0.193177
"2019-05-06 15:56:07.021 +0000",1557158167.021055,1.122784,0.556846,2.053477,0.765146,-0.528511,-0.367734,0.000000,0.000000,0.000000,-1,1.495105,-2.470345,-0.329338,-0.140420,-0.114189,0.279080
"2019-05-06 15:56:07.041 +0000",1557158167.041043,1.102788,0.562643,2.010957,0.754893,-0.533423,-0.381570,0.000000,0.000000,0.000000,-1,2.117676,-1.337646,-0.830868,0.400731,-0.328881,0.557168
"2019-05-06 15:56:07.061 +0000",1557158167.061003,1.111727,0.568083,1.952659,0.755661,-0.538017,-0.373516,0.000000,0.000000,0.000000,-1,2.250368,-1.376936,-0.637124,0.777283,-0.548622,0.575710
"2019-05-06 15:56:07.081 +0000",1557158167.080959,1.104844,0.577042,1.915003,0.748736,-0.545547,-0.376527,0.000000,0.000000,0.000000,-1,0.919955,-1.163902,-0.245118,1.067823,-1.082123,0.089051
"2019-05-06 15:56:07.101 +0000",1557158167.100918,1.106224,0.574839,1.890783,0.750327,-0.543700,-0.376031,0.000000,0.000000,0.000000,-1,1.146485,0.071952,-0.817091,0.657769,-0.205782,0.065698
"2019-05-06 15:56:07.121 +0000",1557158167.120907,1.127935,0.576792,1.846601,0.757353,-0.545338,-0.359198,0.000000,0.000000,0.000000,-1,2.216887,-0.517868,-0.583784,0.458788,0.136845,-0.064188
"2019-05-06 15:56:07.141 +0000",1557158167.140864,1.153299,0.590295,1.788932,0.759418,-0.556606,-0.336859,0.000000,0.000000,0.000000,-1,2.539267,0.009277,-0.156640,0.357403,-0.165257,0.208548
"2019-05-06 15:56:07.161 +0000",1557158167.160823,1.184029,0.608891,1.739578,0.759691,-0.571958,-0.309408,0.000000,0.000000,0.000000,-1,1.795927,0.163649,0.238062,0.320479,-0.410586,0.223196
"2019-05-06 15:56:07.181 +0000",1557158167.180812,1.202440,0.624196,1.711388,0.757003,-0.584445,-0.292183,0.000000,0.000000,0.000000,-1,1.016972,0.010492,0.257513,0.336701,-0.632993,0.170891
"2019-05-06 15:56:07.201 +0000",1557158167.200770,1.214896,0.634355,1.691759,0.754979,-0.592659,-0.280648,0.000000,0.000000,0.000000,-1,0.891357,0.142739,0.188568,0.316494,-0.576745,0.078301
"2019-05-06 15:56:07.221 +0000",1557158167.220727,1.233206,0.645479,1.670350,0.753723,-0.601581,-0.264578,0.000000,0.000000,0.000000,-1,1.121152,0.355397,0.267206,0.294663,-0.252560,0.048392
"2019-05-06 15:56:07.241 +0000",1557158167.240685,1.256118,0.658449,1.644514,0.752104,-0.611891,-0.244805,0.000000,0.000000,0.000000,-1,1.183683,0.387236,0.288443,0.252306,0.058165,0.116936
"2019-05-06 15:56:07.261 +0000",1557158167.260674,1.279971,0.670287,1.618299,0.750736,-0.621211,-0.224704,0.000000,0.000000,0.000000,-1,1.132892,0.340130,0.238362,0.143810,0.277552,0.036166
"2019-05-06 15:56:07.281 +0000",1557158167.280632,1.302403,0.681451,1.593226,0.748854,-0.629920,-0.205957,0.000000,0.000000,0.000000,-1,1.068911,0.313825,0.291188,0.047151,0.284156,0.018533
"2019-05-06 15:56:07.301 +0000",1557158167.300591,1.325054,0.693909,1.568078,0.745656,-0.639547,-0.187019,0.000000,0.000000,0.000000,-1,1.096789,0.388075,0.431457,-0.047445,0.221548,-0.011116
"2019-05-06 15:56:07.321 +0000",1557158167.320578,1.347982,0.708256,1.545010,0.740722,-0.650510,-0.167830,0.000000,0.000000,0.000000,-1,0.910094,0.360763,0.547822,-0.085433,0.141645,-0.047822
"2019-05-06 15:56:07.341 +0000",1557158167.340536,1.365868,0.723069,1.527121,0.734090,-0.661689,-0.152578,0.000000,0.000000,0.000000,-1,0.742114,0.270608,0.594157,-0.082464,0.171866,-0.005473
"2019-05-06 15:56:07.360 +0000",1557158167.360494,1.382539,0.735986,1.511702,0.728074,-0.671318,-0.138708,0.000000,0.000000,0.000000,-1,0.636761,0.335848,0.456330,-0.034562,0.321236,0.031133
"2019-05-06 15:56:07.380 +0000",1557158167.380453,1.397473,0.745871,1.497147,0.723492,-0.678612,-0.126669,0.000000,0.000000,0.000000,-1,0.613940,0.115917,0.334360,0.020847,0.469734,0.014822
"2019-05-06 15:56:07.400 +0000",1557158167.400441,1.408366,0.753606,1.481236,0.719627,-0.684273,-0.117928,0.000000,0.000000,0.000000,-1,0.649584,-0.130925,0.248204,0.091683,0.501213,-0.022590
"2019-05-06 15:56:07.420 +0000",1557158167.420398,1.416756,0.759408,1.462205,0.716656,-0.688492,-0.111275,0.000000,0.000000,0.000000,-1,0.830484,-0.323876,0.100193,0.093708,0.404236,-0.038597
"2019-05-06 15:56:07.440 +0000",1557158167.440357,1.425326,0.762531,1.437572,0.715452,-0.690754,-0.104818,0.000000,0.000000,0.000000,-1,0.914889,-0.562175,-0.021201,0.031679,0.279545,-0.057093
"2019-05-06 15:56:07.460 +0000",1557158167.460347,1.429466,0.763831,1.412743,0.714991,-0.691693,-0.101728,0.000000,0.000000,0.000000,-1,0.882078,-0.738257,-0.098741,-0.002802,0.200863,-0.138827
"2019-05-06 15:56:07.480 +0000",1557158167.480304,1.429698,0.764122,1.388560,0.714815,-0.691904,-0.101534,0.000000,0.000000,0.000000,-1,0.807085,-0.932626,-0.071512,0.050322,0.178613,-0.136930
"2019-05-06 15:56:07.500 +0000",1557158167.500262,1.423215,0.765101,1.368814,0.713471,-0.692610,-0.106066,0.000000,0.000000,0.000000,-1,0.616555,-1.125504,-0.083060,0.150726,0.260741,-0.038206
"2019-05-06 15:56:07.520 +0000",1557158167.520250,1.408587,0.762333,1.353049,0.713733,-0.690611,-0.116801,0.000000,0.000000,0.000000,-1,0.452058,-1.428202,-0.346523,0.278851,0.341963,0.067057
"2019-05-06 15:56:07.540 +0000",1557158167.540208,1.388037,0.754302,1.338983,0.716613,-0.684780,-0.132445,0.000000,0.000000,0.000000,-1,0.457640,-1.606395,-0.616043,0.430802,0.315304,0.102889
"2019-05-06 15:56:07.560 +0000",1557158167.560167,1.366906,0.741705,1.320307,0.722045,-0.675546,-0.149293,0.000000,0.000000,0.000000,-1,0.588025,-1.745056,-0.827098,0.395386,0.073281,0.168214
"2019-05-06 15:56:07.580 +0000",1557158167.580124,1.344565,0.726899,1.303078,0.728198,-0.664556,-0.167611,0.000000,0.000000,0.000000,-1,0.280527,-1.719539,-0.853134,0.279889,-0.200282,0.256585
"2019-05-06 15:56:07.600 +0000",1557158167.600113,1.311051,0.709830,1.296148,0.733030,-0.651705,-0.194802,0.000000,0.000000,0.000000,-1,-0.184988,-2.134801,-0.956575,0.065142,-0.284926,0.269860
"2019-05-06 15:56:07.620 +0000",1557158167.620072,1.266479,0.687364,1.296774,0.737407,-0.634502,-0.231600,0.000000,0.000000,0.000000,-1,-0.441024,-2.197664,-1.150041,-0.007792,-0.212284,0.348116
"2019-05-06 15:56:07.640 +0000",1557158167.640028,1.230610,0.663043,1.297385,0.742957,-0.615518,-0.262967,0.000000,0.000000,0.000000,-1,-0.320390,-1.239205,-1.077814,0.115350,-0.170019,0.312619
"2019-05-06 15:56:07.660 +0000",1557158167.660017,1.216746,0.645307,1.290836,0.749363,-0.601444,-0.276984,0.000000,0.000000,0.000000,-1,0.256415,-0.831940,-0.732413,0.366008,-0.164380,0.134436
"2019-05-06 15:56:07.680 +0000",1557158167.679976,1.203798,0.637724,1.271524,0.749950,-0.595369,-0.288291,0.000000,0.000000,0.000000,-1,0.858351,-1.657863,-0.590414,0.584752,-0.170302,-0.073525
"2019-05-06 15:56:07.700 +0000",1557158167.699934,1.182762,0.633498,1.243347,0.746042,-0.591968,-0.304952,0.000000,0.000000,0.000000,-1,1.021695,-2.082991,-0.647537,0.595022,-0.076078,-0.073405
"2019-05-06 15:56:07.720 +0000",1557158167.719892,1.155595,0.628539,1.213868,0.740160,-0.587964,-0.326285,0.000000,0.000000,0.000000,-1,0.983733,-2.338840,-0.728825,0.397856,0.099957,0.038305
"2019-05-06 15:56:07.740 +0000",1557158167.739881,1.129149,0.622924,1.182625,0.734247,-0.583412,-0.347148,0.000000,0.000000,0.000000,-1,1.111579,-2.065067,-0.840773,0.218787,0.159020,0.187846
"2019-05-06 15:56:07.760 +0000",1557158167.759838,1.113094,0.617698,1.146053,0.731304,-0.579160,-0.360233,0.000000,0.000000,0.000000,-1,1.336215,-1.720116,-0.885301,0.120899,0.152936,0.259846
"2019-05-06 15:56:07.780 +0000",1557158167.779796,1.104725,0.615071,1.105620,0.729620,-0.577017,-0.367023,0.000000,0.000000,0.000000,-1,1.499203,-1.470948,-0.791030,0.041483,0.133505,0.282688
"2019-05-06 15:56:07.800 +0000",1557158167.799785,1.100930,0.616981,1.063290,0.727238,-0.578575,-0.369290,0.000000,0.000000,0.000000,-1,1.664500,-1.426771,-0.599562,-0.021947,0.047890,0.262692
"2019-05-06 15:56:07.820 +0000",1557158167.819743,1.095988,0.622090,1.019771,0.722766,-0.582735,-0.371523,0.000000,0.000000,0.000000,-1,1.696665,-1.631135,-0.599184,-0.005771,0.018801,0.197299
"2019-05-06 15:56:07.840 +0000",1557158167.839701,1.088032,0.625923,0.976536,0.717804,-0.585845,-0.376222,0.000000,0.000000,0.000000,-1,1.585001,-1.716918,-0.646973,0.025253,0.061874,0.162385
"2019-05-06 15:56:07.860 +0000",1557158167.859658,1.076806,0.627945,0.934276,0.712491,-0.587483,-0.383694,0.000000,0.000000,0.000000,-1,1.564815,-1.829733,-0.775218,0.000827,0.164815,0.197063
"2019-05-06 15:56:07.880 +0000",1557158167.879648,1.068471,0.628727,0.889595,0.708865,-0.588116,-0.389398,0.000000,0.000000,0.000000,-1,1.650458,-1.658681,-0.856233,-0.026370,0.182736,0.313211
"2019-05-06 15:56:07.900 +0000",1557158167.899606,1.064235,0.631019,0.841404,0.706029,-0.589968,-0.391742,0.000000,0.000000,0.000000,-1,1.884863,-1.678044,-0.795906,-0.098988,0.135561,0.358142
"2019-05-06 15:56:07.920 +0000",1557158167.919563,1.059270,0.637365,0.790459,0.700796,-0.595080,-0.393402,0.000000,0.000000,0.000000,-1,1.949823,-1.839567,-0.641647,-0.153418,0.101718,0.321517
"2019-05-06 15:56:07.940 +0000",1557158167.939552,1.055374,0.645772,0.741685,0.694880,-0.601815,-0.393650,0.000000,0.000000,0.000000,-1,1.859621,-1.384460,-0.539198,-0.189463,0.103783,0.265812
"2019-05-06 15:56:07.960 +0000",1557158167.959511,1.059626,0.654860,0.697433,0.691749,-0.609048,-0.387999,0.000000,0.000000,0.000000,-1,1.604846,-1.021211,-0.353274,-0.209480,0.121896,0.135710
"2019-05-06 15:56:07.979 +0000",1557158167.979457,1.061868,0.664458,0.661578,0.687481,-0.616632,-0.383581,0.000000,0.000000,0.000000,-1,1.406872,-0.922996,-0.224670,-0.076854,0.216089,0.116034
"2019-05-06 15:56:07.999 +0000",1557158167.999415,1.065688,0.674813,0.626191,0.683316,-0.624751,-0.377843,0.000000,0.000000,0.000000,-1,1.534676,-0.990112,-0.204528,0.014453,0.257838,0.116017
"2019-05-06 15:56:08.019 +0000",1557158168.019404,1.067175,0.685951,0.587651,0.677741,-0.633409,-0.373444,0.000000,0.000000,0.000000,-1,1.567362,-1.354207,-0.283481,0.040658,0.308214,0.088837
"2019-05-06 15:56:08.039 +0000",1557158168.039363,1.058073,0.693333,0.550347,0.670220,-0.639104,-0.377294,0.000000,0.000000,0.000000,-1,1.257902,-1.946520,-0.437676,0.115623,0.313161,0.101842
"2019-05-06 15:56:08.059 +0000",1557158168.059322,1.037902,0.694388,0.519014,0.661893,-0.639915,-0.390392,0.000000,0.000000,0.000000,-1,0.864598,-1.987736,-0.712670,0.115450,0.157310,0.017849
"2019-05-06 15:56:08.079 +0000",1557158168.079309,1.019299,0.685487,0.491760,0.659342,-0.633050,-0.405606,0.000000,0.000000,0.000000,-1,0.458082,-1.626233,-1.098754,0.149222,0.007196,-0.150165
"2019-05-06 15:56:08.099 +0000",1557158168.099268,1.008665,0.667689,0.467473,0.664420,-0.619173,-0.418534,0.000000,0.000000,0.000000,-1,0.281875,-0.926875,-1.379083,0.275842,-0.063215,-0.180527
"2019-05-06 15:56:08.119 +0000",1557158168.119225,1.012912,0.647790,0.439090,0.676512,-0.603426,-0.422148,0.000000,0.000000,0.000000,-1,0.601993,-0.518911,-1.430027,0.173738,-0.041472,-0.138170
"2019-05-06 15:56:08.139 +0000",1557158168.139244,1.021182,0.633061,0.405376,0.687485,-0.591615,-0.421136,0.000000,0.000000,0.000000,-1,0.849260,-0.706741,-1.196010,-0.001267,0.094331,-0.142478
"2019-05-06 15:56:08.159 +0000",1557158168.159202,1.022935,0.625023,0.373440,0.692260,-0.585116,-0.422393,0.000000,0.000000,0.000000,-1,0.908878,-0.946832,-0.774197,-0.155578,0.276064,-0.167115
"2019-05-06 15:56:08.179 +0000",1557158168.179190,1.022851,0.625893,0.346207,0.691789,-0.585821,-0.422187,0.000000,0.000000,0.000000,-1,1.090232,-0.658708,-0.334262,-0.193925,0.374182,-0.261194
"2019-05-06 15:56:08.199 +0000",1557158168.199149,1.024929,0.635082,0.316664,0.688035,-0.593244,-0.417936,0.000000,0.000000,0.000000,-1,1.416518,-1.045461,-0.109815,-0.066575,0.452024,-0.383425
"2019-05-06 15:56:08.219 +0000",1557158168.219108,1.015685,0.648390,0.283695,0.677372,-0.603904,-0.420080,0.000000,0.000000,0.000000,-1,1.428780,-1.964504,-0.222211,0.081402,0.400214,-0.521403
"2019-05-06 15:56:08.239 +0000",1557158168.239065,0.988689,0.654264,0.250246,0.662812,-0.608575,-0.436253,0.000000,0.000000,0.000000,-1,1.240038,-2.463939,-0.724999,0.285934,0.083642,-0.150234
"2019-05-06 15:56:08.259 +0000",1557158168.259053,0.974540,0.654737,0.210846,0.656335,-0.608951,-0.445425,0.000000,0.000000,0.000000,-1,1.245860,-1.230454,-0.762863,0.677299,-0.338727,0.501501
"2019-05-06 15:56:08.279 +0000",1557158168.279012,0.984254,0.658137,0.176352,0.658902,-0.611644,-0.437880,0.000000,0.000000,0.000000,-1,1.351542,-0.207786,-0.705197,1.421420,-1.257924,0.540343
"2019-05-06 15:56:08.299 +0000",1557158168.298971,1.001518,0.650912,0.129817,0.670069,-0.605912,-0.428811,0.000000,0.000000,0.000000,-1,1.100527,-1.091493,-1.753386,0.907797,-0.539794,0.377770
"2019-05-06 15:56:08.319 +0000",1557158168.318959,1.002128,0.629477,0.088879,0.681119,-0.588722,-0.435297,0.000000,0.000000,0.000000,-1,0.719094,-1.065903,-1.619791,-0.154660,0.254875,0.115122
"2019-05-06 15:56:08.339 +0000",1557158168.338917,1.000380,0.622436,0.052694,0.683829,-0.583016,-0.438714,0.000000,0.000000,0.000000,-1,1.489794,-1.223690,-0.437967,-0.511847,0.629677,0.199518
"2019-05-06 15:56:08.359 +0000",1557158168.358874,1.004813,0.642439,0.016312,0.675787,-0.599150,-0.429338,0.000000,0.000000,0.000000,-1,1.971099,-0.444227,0.409328,-0.218938,0.193526,0.490083
"2019-05-06 15:56:08.379 +0000",1557158168.378833,1.024917,0.672415,-0.025388,0.668626,-0.622877,-0.406157,0.000000,0.000000,0.000000,-1,2.241798,-0.383969,0.305053,0.190688,-0.122164,0.737700
"2019-05-06 15:56:08.399 +0000",1557158168.398821,1.029262,0.690584,-0.060349,0.660577,-0.636988,-0.397348,0.000000,0.000000,0.000000,-1,0.998413,-0.967645,-0.318055,0.216575,-0.474844,0.162836
"2019-05-06 15:56:08.419 +0000",1557158168.418779,1.046956,0.687780,-0.092555,0.669047,-0.634824,-0.386490,0.000000,0.000000,0.000000,-1,1.223061,0.462998,-1.015300,0.317312,-0.495303,0.141190
"2019-05-06 15:56:08.439 +0000",1557158168.438739,1.085048,0.685574,-0.137609,0.684518,-0.633117,-0.361383,0.000000,0.000000,0.000000,-1,1.553860,0.248286,-0.732773,0.344245,-0.192978,0.173227
"2019-05-06 15:56:08.462 +0000",1557158168.461656,1.110718,0.685016,-0.179806,0.693884,-0.632685,-0.343852,0.000000,0.000000,0.000000,-1,0.967530,-0.048459,-0.664993,0.265467,0.134776,-0.009007
"2019-05-06 15:56:08.482 +0000",1557158168.481643,1.136203,0.683601,-0.211409,0.703232,-0.631589,-0.326435,0.000000,0.000000,0.000000,-1,1.304354,0.460809,-0.456275,0.109573,0.294446,-0.013440
"2019-05-06 15:56:08.502 +0000",1557158168.501601,1.167240,0.693343,-0.252890,0.707331,-0.639112,-0.302024,0.000000,0.000000,0.000000,-1,1.992512,-0.009385,0.036903,-0.198465,0.099332,0.061134
"2019-05-06 15:56:08.522 +0000",1557158168.521558,1.196048,0.710959,-0.304467,0.705149,-0.652561,-0.277361,0.000000,0.000000,0.000000,-1,2.194831,-0.543222,0.032357,-0.242503,0.190830,0.291460
"2019-05-06 15:56:08.542 +0000",1557158168.541516,1.212610,0.722983,-0.354214,0.702246,-0.661624,-0.262874,0.000000,0.000000,0.000000,-1,1.660562,-0.921866,-0.202378,-0.184699,0.256397,0.183223
"2019-05-06 15:56:08.562 +0000",1557158168.561505,1.222479,0.727947,-0.387784,0.701711,-0.665339,-0.254807,0.000000,0.000000,0.000000,-1,0.829547,-0.306957,-0.183713,-0.190297,0.166849,0.068253
"2019-05-06 15:56:08.581 +0000",1557158168.581464,1.229527,0.727541,-0.402152,0.703744,-0.665035,-0.249946,0.000000,0.000000,0.000000,-1,0.252636,-0.011464,-0.167607,-0.101007,0.161907,-0.038812
"2019-05-06 15:56:08.601 +0000",1557158168.601421,1.234240,0.727352,-0.409421,0.705033,-0.664894,-0.246668,0.000000,0.000000,0.000000,-1,0.300960,-0.097744,-0.012866,-0.078766,0.079079,0.034403
"2019-05-06 15:56:08.621 +0000",1557158168.621410,1.237430,0.729810,-0.419863,0.704269,-0.666728,-0.243882,0.000000,0.000000,0.000000,-1,0.495323,-0.262837,-0.017989,-0.071350,0.125789,0.079682
"2019-05-06 15:56:08.641 +0000",1557158168.641368,1.239531,0.732413,-0.432584,0.703137,-0.668666,-0.241837,0.000000,0.000000,0.000000,-1,0.403324,-0.419231,-0.005614,-0.126843,0.269343,0.112335
"2019-05-06 15:56:08.661 +0000",1557158168.661327,1.234899,0.733937,-0.439044,0.701046,-0.669799,-0.244754,0.000000,0.000000,0.000000,-1,0.105603,-0.449700,0.002769,-0.212413,0.336852,0.018970
"2019-05-06 15:56:08.681 +0000",1557158168.681315,1.228858,0.734782,-0.440313,0.699021,-0.670425,-0.248795,0.000000,0.000000,0.000000,-1,0.015756,-0.284300,0.091610,-0.299119,0.233932,0.047028
"2019-05-06 15:56:08.701 +0000",1557158168.701274,1.221174,0.736371,-0.437506,0.696087,-0.671604,-0.253794,0.000000,0.000000,0.000000,-1,-0.200997,-0.312262,0.116753,-0.252972,0.178760,0.083811
"2019-05-06 15:56:08.721 +0000",1557158168.721231,1.208785,0.735600,-0.427350,0.693374,-0.671032,-0.262581,0.000000,0.000000,0.000000,-1,-0.578164,-0.266032,0.101088,-0.146834,0.221859,0.125221
"2019-05-06 15:56:08.741 +0000",1557158168.741190,1.191221,0.730507,-0.405646,0.691820,-0.667248,-0.275981,0.000000,0.000000,0.000000,-1,-1.097516,0.033183,0.008767,-0.102907,0.320339,-0.041204
"2019-05-06 15:56:08.761 +0000",1557158168.761178,1.178603,0.721572,-0.376580,0.693765,-0.660566,-0.286956,0.000000,0.000000,0.000000,-1,-1.170328,0.567222,0.003740,-0.023675,0.297574,-0.159928
"2019-05-06 15:56:08.781 +0000",1557158168.781136,1.176759,0.712285,-0.352352,0.698869,-0.653565,-0.290577,0.000000,0.000000,0.000000,-1,-0.863188,0.732445,-0.159902,0.065245,0.223984,-0.098736
"2019-05-06 15:56:08.801 +0000",1557158168.801095,1.173753,0.703599,-0.335520,0.703201,-0.646966,-0.294861,0.000000,0.000000,0.000000,-1,-0.717648,0.040266,-0.090332,-0.002304,0.219476,-0.031250
"2019-05-06 15:56:08.821 +0000",1557158168.821083,1.163023,0.696013,-0.319232,0.704482,-0.641163,-0.304327,0.000000,0.000000,0.000000,-1,-0.695241,-0.041334,-0.131637,-0.063415,0.263325,-0.158854
"2019-05-06 15:56:08.841 +0000",1557158168.841040,1.152686,0.687364,-0.308255,0.706340,-0.634502,-0.313833,0.000000,0.000000,0.000000,-1,-0.370674,-0.255787,-0.331745,0.135808,0.252376,-0.067927
"2019-05-06 15:56:08.861 +0000",1557158168.861000,1.148028,0.678806,-0.311426,0.709797,-0.627864,-0.319335,0.000000,0.000000,0.000000,-1,0.245475,-0.487025,-0.533435,0.352459,0.207683,0.222213
"2019-05-06 15:56:08.881 +0000",1557158168.880958,1.143611,0.669697,-0.327197,0.713555,-0.620748,-0.324824,0.000000,0.000000,0.000000,-1,0.318190,-0.917711,-0.815463,0.330436,0.031012,0.275324
"2019-05-06 15:56:08.901 +0000",1557158168.900945,1.130773,0.650875,-0.336230,0.719771,-0.605883,-0.338874,0.000000,0.000000,0.000000,-1,-0.511359,-0.847729,-1.124005,0.259431,-0.360563,0.122428
"2019-05-06 15:56:08.921 +0000",1557158168.920904,1.114915,0.624827,-0.328293,0.728233,-0.584957,-0.357074,0.000000,0.000000,0.000000,-1,-1.175393,-0.246654,-0.869710,0.260277,-0.843555,0.042697
"2019-05-06 15:56:08.941 +0000",1557158168.940861,1.100843,0.597691,-0.303512,0.737021,-0.562735,-0.374338,0.000000,0.000000,0.000000,-1,-1.900432,0.180214,-0.656537,0.185556,-0.970208,0.023859
"2019-05-06 15:56:08.961 +0000",1557158168.960850,1.084463,0.568737,-0.262435,0.744886,-0.538569,-0.393812,0.000000,0.000000,0.000000,-1,-2.353208,0.398180,-0.307652,0.072100,-0.721044,-0.095903
"2019-05-06 15:56:08.981 +0000",1557158168.980798,1.068993,0.544184,-0.223918,0.750075,-0.517720,-0.411526,0.000000,0.000000,0.000000,-1,-1.506146,-0.222641,-0.318456,0.254640,-0.420604,-0.104267
"2019-05-06 15:56:09.001 +0000",1557158169.000754,1.045264,0.531288,-0.207007,0.745813,-0.506644,-0.432521,0.000000,0.000000,0.000000,-1,-0.541622,-1.093054,-0.077109,0.470632,-0.201562,-0.035177
"2019-05-06 15:56:09.021 +0000",1557158169.020714,1.021897,0.524612,-0.196546,0.738373,-0.500877,-0.451583,0.000000,0.000000,0.000000,-1,-0.678625,-0.644205,-0.089927,0.336853,-0.084862,-0.000825
"2019-05-06 15:56:09.041 +0000",1557158169.040702,1.008637,0.513179,-0.184465,0.737117,-0.490949,-0.464356,0.000000,0.000000,0.000000,-1,-0.748297,-0.124371,-0.323906,0.321080,0.051984,-0.141448
"2019-05-06 15:56:09.061 +0000",1557158169.060660,1.007914,0.499541,-0.178650,0.742376,-0.479022,-0.468419,0.000000,0.000000,0.000000,-1,-0.370795,0.306550,-0.521049,0.388270,0.153964,-0.039226
"2019-05-06 15:56:09.081 +0000",1557158169.080619,1.017578,0.489134,-0.182007,0.751068,-0.469862,-0.463817,0.000000,0.000000,0.000000,-1,0.046838,0.447870,-0.484786,0.316253,0.175764,-0.011830
"2019-05-06 15:56:09.101 +0000",1557158169.100607,1.030832,0.483796,-0.192511,0.759291,-0.465143,-0.455104,0.000000,0.000000,0.000000,-1,0.476561,0.330551,-0.465176,0.107119,0.151270,0.001750
"2019-05-06 15:56:09.121 +0000",1557158169.120565,1.043893,0.482809,-0.210544,0.765566,-0.464269,-0.445379,0.000000,0.000000,0.000000,-1,0.789564,0.153472,-0.380497,-0.162066,0.033910,0.074102
"2019-05-06 15:56:09.141 +0000",1557158169.140524,1.055798,0.485578,-0.228901,0.769692,-0.466720,-0.435599,0.000000,0.000000,0.000000,-1,0.711642,0.183969,-0.187664,-0.379098,0.051025,0.140204
"2019-05-06 15:56:09.160 +0000",1557158169.160481,1.066727,0.490322,-0.241837,0.772459,-0.470910,-0.426087,0.000000,0.000000,0.000000,-1,0.532615,0.323534,0.079855,-0.480818,0.120691,0.155930
"2019-05-06 15:56:09.180 +0000",1557158169.180470,1.080447,0.499490,-0.251223,0.774391,-0.478978,-0.413399,0.000000,0.000000,0.000000,-1,0.682178,0.529867,0.311027,-0.481346,0.170781,0.225502
"2019-05-06 15:56:09.200 +0000",1557158169.200428,1.095910,0.512960,-0.264410,0.774882,-0.490758,-0.398389,0.000000,0.000000,0.000000,-1,0.946601,0.326801,0.349077,-0.346034,0.205526,0.286573
"2019-05-06 15:56:09.220 +0000",1557158169.220386,1.110300,0.527110,-0.282242,0.774236,-0.503038,-0.384073,0.000000,0.000000,0.000000,-1,1.052594,0.257717,0.198034,-0.256429,0.250642,0.238550
"2019-05-06 15:56:09.240 +0000",1557158169.240374,1.128468,0.538255,-0.305147,0.775970,-0.512638,-0.367521,0.000000,0.000000,0.000000,-1,1.216819,0.346207,-0.028980,-0.221802,0.286656,0.107603
"2019-05-06 15:56:09.260 +0000",1557158169.260332,1.149364,0.547113,-0.333906,0.779306,-0.520224,-0.349356,0.000000,0.000000,0.000000,-1,1.383553,0.282284,-0.185683,-0.212366,0.277227,0.094412
"2019-05-06 15:56:09.280 +0000",1557158169.280290,1.175206,0.553793,-0.366921,0.784848,-0.525917,-0.327756,0.000000,0.000000,0.000000,-1,1.428777,0.601549,-0.302044,-0.233808,0.282112,0.132139
"2019-05-06 15:56:09.300 +0000",1557158169.300280,1.207447,0.556891,-0.399454,0.793479,-0.528549,-0.301706,0.000000,0.000000,0.000000,-1,1.210479,0.802919,-0.422174,-0.327003,0.293304,0.074975
"2019-05-06 15:56:09.320 +0000",1557158169.320237,1.234429,0.556340,-0.425154,0.801605,-0.528082,-0.280285,0.000000,0.000000,0.000000,-1,0.835274,0.447958,-0.301900,-0.404220,0.227133,0.015499
"2019-05-06 15:56:09.340 +0000",1557158169.340195,1.250887,0.558447,-0.442010,0.805051,-0.529870,-0.266704,0.000000,0.000000,0.000000,-1,0.599392,0.392234,-0.003871,-0.441571,0.086327,0.023250
"2019-05-06 15:56:09.360 +0000",1557158169.360153,1.261222,0.561784,-0.454279,0.806075,-0.532697,-0.257830,0.000000,0.000000,0.000000,-1,0.491183,-0.134169,-0.026267,-0.176086,-0.094881,-0.023588
"2019-05-06 15:56:09.380 +0000",1557158169.380143,1.262912,0.561576,-0.465008,0.806616,-0.532521,-0.256501,0.000000,0.000000,0.000000,-1,0.361362,-0.023460,-0.264943,-0.017248,0.030980,0.008607
"2019-05-06 15:56:09.400 +0000",1557158169.400100,1.276359,0.558546,-0.472779,0.811532,-0.529953,-0.246099,0.000000,0.000000,0.000000,-1,0.157821,0.886644,-0.140730,-0.042306,0.152359,0.064245
"2019-05-06 15:56:09.420 +0000",1557158169.420058,1.297261,0.557468,-0.474633,0.817048,-0.529039,-0.229238,0.000000,0.000000,0.000000,-1,-0.023491,0.869909,-0.076436,-0.044038,0.151567,-0.196651
"2019-05-06 15:56:09.440 +0000",1557158169.440046,1.300477,0.554237,-0.472344,0.819424,-0.526295,-0.227064,0.000000,0.000000,0.000000,-1,-0.299251,-0.526481,-0.105946,0.103092,-0.099056,-0.442538
"2019-05-06 15:56:09.460 +0000",1557158169.460005,1.277617,0.551601,-0.461905,0.815345,-0.524051,-0.246135,0.000000,0.000000,0.000000,-1,-0.531598,-0.821916,0.090470,0.273934,-0.442181,-0.395543
"2019-05-06 15:56:09.480 +0000",1557158169.479964,1.268275,0.551283,-0.451715,0.813169,-0.523780,-0.253791,0.000000,0.000000,0.000000,-1,-0.342442,0.180328,0.165310,0.535677,-0.512887,0.149787
"2019-05-06 15:56:09.500 +0000",1557158169.499921,1.267142,0.550667,-0.443221,0.813189,-0.523256,-0.254808,0.000000,0.000000,0.000000,-1,-0.339515,0.140905,0.022135,0.803861,-0.659529,0.195955
"2019-05-06 15:56:09.520 +0000",1557158169.519909,1.260354,0.548952,-0.438754,0.812294,-0.521793,-0.260596,0.000000,0.000000,0.000000,-1,-0.007964,-0.566201,-0.053215,0.344627,-0.310101,0.109137
"2019-05-06 15:56:09.540 +0000",1557158169.539867,1.251406,0.550404,-0.448275,0.809209,-0.523032,-0.267616,0.000000,0.000000,0.000000,-1,0.778109,-0.940517,-0.095006,0.156596,0.266165,-0.206932
"2019-05-06 15:56:09.560 +0000",1557158169.559827,1.244030,0.552925,-0.465532,0.805962,-0.525179,-0.273153,0.000000,0.000000,0.000000,-1,0.546266,-0.458740,-0.040313,0.402732,-0.067732,-0.193354
"2019-05-06 15:56:09.580 +0000",1557158169.579813,1.243644,0.556731,-0.475191,0.803958,-0.528414,-0.272820,0.000000,0.000000,0.000000,-1,0.469943,-0.370051,0.048270,0.415586,-0.390242,0.196114
"2019-05-06 15:56:09.600 +0000",1557158169.599773,1.243535,0.560361,-0.489306,0.802106,-0.531492,-0.272289,0.000000,0.000000,0.000000,-1,0.785461,-0.185855,-0.004977,0.316043,-0.206057,-0.031117
"2019-05-06 15:56:09.620 +0000",1557158169.619730,1.255653,0.567384,-0.508004,0.801778,-0.537428,-0.261386,0.000000,0.000000,0.000000,-1,0.867101,0.318509,0.153633,0.242091,-0.349123,-0.146558
"2019-05-06 15:56:09.640 +0000",1557158169.639688,1.273609,0.574361,-0.523372,0.802738,-0.543299,-0.245844,0.000000,0.000000,0.000000,-1,0.520555,0.637779,0.111506,0.158246,-0.287680,-0.060293
"2019-05-06 15:56:09.660 +0000",1557158169.659678,1.291879,0.578751,-0.530870,0.804794,-0.546979,-0.230479,0.000000,0.000000,0.000000,-1,0.299466,0.678651,0.158165,0.099335,-0.166476,0.032695
"2019-05-06 15:56:09.680 +0000",1557158169.679635,1.309627,0.584846,-0.538469,0.805522,-0.552071,-0.215295,0.000000,0.000000,0.000000,-1,0.461190,0.650827,0.277566,0.027501,-0.002540,0.033273
"2019-05-06 15:56:09.700 +0000",1557158169.699593,1.325315,0.593143,-0.546722,0.804329,-0.558970,-0.201512,0.000000,0.000000,0.000000,-1,0.368932,0.447402,0.344793,-0.005135,0.135310,-0.024440
"2019-05-06 15:56:09.720 +0000",1557158169.719582,1.335636,0.601830,-0.552412,0.801614,-0.566152,-0.192061,0.000000,0.000000,0.000000,-1,0.324453,0.280999,0.396991,-0.075830,0.197988,-0.032976
"2019-05-06 15:56:09.740 +0000",1557158169.739538,1.344116,0.611555,-0.558400,0.797811,-0.574141,-0.184011,0.000000,0.000000,0.000000,-1,0.369905,0.219450,0.433195,-0.177236,0.176451,0.015630
"2019-05-06 15:56:09.759 +0000",1557158169.759498,1.351848,0.621330,-0.565064,0.793693,-0.582117,-0.176609,0.000000,0.000000,0.000000,-1,0.375899,0.162728,0.415067,-0.234443,0.208094,0.031529
"2019-05-06 15:56:09.779 +0000",1557158169.779455,1.359291,0.630299,-0.572796,0.789849,-0.589387,-0.169594,0.000000,0.000000,0.000000,-1,0.406830,0.116375,0.314083,-0.279839,0.245560,0.093865
"2019-05-06 15:56:09.799 +0000",1557158169.799443,1.364754,0.635957,-0.578888,0.787487,-0.593948,-0.164591,0.000000,0.000000,0.000000,-1,0.110713,0.060621,0.169189,-0.281673,0.268554,0.002467
"2019-05-06 15:56:09.819 +0000",1557158169.819402,1.362608,0.638177,-0.574496,0.785840,-0.595732,-0.166008,0.000000,0.000000,0.000000,-1,-0.386278,-0.017742,0.125812,-0.233731,0.202452,-0.143349
"2019-05-06 15:56:09.839 +0000",1557158169.839359,1.354156,0.638025,-0.562420,0.784497,-0.595610,-0.172664,0.000000,0.000000,0.000000,-1,-0.505753,-0.139098,0.090798,-0.224118,0.200056,-0.082311
"2019-05-06 15:56:09.859 +0000",1557158169.859349,1.342554,0.637829,-0.551173,0.782555,-0.595453,-0.181780,0.000000,0.000000,0.000000,-1,-0.388548,-0.388533,0.105866,-0.267204,0.279215,0.088396
"2019-05-06 15:56:09.879 +0000",1557158169.879307,1.326258,0.638020,-0.540778,0.779379,-0.595606,-0.194480,0.000000,0.000000,0.000000,-1,-0.467576,-0.573007,0.116965,-0.341467,0.406550,0.040854
"2019-05-06 15:56:09.899 +0000",1557158169.899264,1.308448,0.637290,-0.526939,0.776211,-0.595020,-0.208442,0.000000,0.000000,0.000000,-1,-0.587928,-0.386662,0.081490,-0.298626,0.443668,-0.118829
"2019-05-06 15:56:09.919 +0000",1557158169.919252,1.293845,0.635534,-0.514765,0.774089,-0.593607,-0.220039,0.000000,0.000000,0.000000,-1,-0.359855,-0.393117,0.016091,-0.146815,0.327204,0.010200
"2019-05-06 15:56:09.939 +0000",1557158169.939211,1.282928,0.633998,-0.511017,0.772514,-0.592370,-0.228736,0.000000,0.000000,0.000000,-1,-0.005565,-0.526524,-0.073838,-0.091834,0.308740,0.208884
