timestamp,timeIntervalSince1970,attitude.roll,attitude.pitch,attitude.yaw,gravity.x,gravity.y,gravity.z,magneticField.x,magneticField.y,magneticField.z,magneticField.accuracy,rotationRate.x,rotationRate.y,rotationRate.z,userAcceleration.x,userAcceleration.y,userAcceleration.z
"2019-03-26 10:54:41.345 +0000",1553597681.345448,-0.020064,0.368743,0.008061,-0.018714,-0.360443,-0.932593,0.000000,0.000000,0.000000,-1,-0.369601,-3.737412,1.475107,-0.398950,0.233887,0.142844
"2019-03-26 10:54:41.368 +0000",1553597681.367742,-0.121401,0.353579,0.052076,-0.113611,-0.346258,-0.931235,0.000000,0.000000,0.000000,-1,-0.574431,-3.773476,2.031312,-0.248007,0.189672,0.170004
"2019-03-26 10:54:41.390 +0000",1553597681.390050,-0.229071,0.335136,0.108127,-0.214440,-0.328898,-0.919697,0.000000,0.000000,0.000000,-1,-0.280183,-4.392338,2.930121,-0.002860,0.264063,0.311664
"2019-03-26 10:54:41.412 +0000",1553597681.412330,-0.352668,0.319959,0.184878,-0.327873,-0.314527,-0.890826,0.000000,0.000000,0.000000,-1,0.824097,-4.113688,3.610417,-0.271690,0.084288,-0.135053
"2019-03-26 10:54:41.435 +0000",1553597681.434631,-0.463205,0.320429,0.285306,-0.424075,-0.314974,-0.849089,0.000000,0.000000,0.000000,-1,2.105011,-3.177431,3.817271,-0.084073,0.400057,-0.061266
"2019-03-26 10:54:41.457 +0000",1553597681.456945,-0.533566,0.318876,0.370784,-0.482968,-0.313499,-0.817594,0.000000,0.000000,0.000000,-1,1.227104,-0.856564,2.844798,-0.061985,0.452904,-0.107393
"2019-03-26 10:54:41.479 +0000",1553597681.479251,-0.517461,0.300641,0.420018,-0.472487,-0.296132,-0.830097,0.000000,0.000000,0.000000,-1,-0.099051,2.545484,1.888588,-0.296220,0.409398,-0.078884
"2019-03-26 10:54:41.502 +0000",1553597681.501537,-0.464234,0.280658,0.452762,-0.430220,-0.276988,-0.859179,0.000000,0.000000,0.000000,-1,0.172274,2.570593,1.671386,-0.940081,-0.047231,0.357608
"2019-03-26 10:54:41.524 +0000",1553597681.523839,-0.421303,0.252152,0.481103,-0.396018,-0.249489,-0.883700,0.000000,0.000000,0.000000,-1,-1.220500,2.162620,1.937406,-0.795984,-0.073143,0.269045
"2019-03-26 10:54:41.546 +0000",1553597681.546144,-0.378960,0.215202,0.510287,-0.361420,-0.213544,-0.907620,0.000000,0.000000,0.000000,-1,-0.928815,2.416715,1.445262,-0.514129,-0.229662,0.081128
"2019-03-26 10:54:41.568 +0000",1553597681.568422,-0.328586,0.188017,0.516585,-0.317018,-0.186912,-0.929819,0.000000,0.000000,0.000000,-1,-1.225368,2.610368,0.351745,-0.434416,-0.227090,0.205637
"2019-03-26 10:54:41.591 +0000",1553597681.590731,-0.272097,0.154971,0.511480,-0.265531,-0.154351,-0.951666,0.000000,0.000000,0.000000,-1,-1.527188,2.131285,0.241739,-0.524905,-0.104179,0.171866
"2019-03-26 10:54:41.613 +0000",1553597681.613037,-0.248036,0.134642,0.516544,-0.243279,-0.134235,-0.960623,0.000000,0.000000,0.000000,-1,-0.271250,0.568393,0.587374,-0.404212,-0.131252,0.263540
"2019-03-26 10:54:41.635 +0000",1553597681.635324,-0.245921,0.140481,0.534572,-0.241052,-0.140020,-0.960359,0.000000,0.000000,0.000000,-1,0.733947,0.177094,0.767435,-0.147636,0.183233,-0.103774
"2019-03-26 10:54:41.658 +0000",1553597681.657624,-0.245315,0.158598,0.562140,-0.239814,-0.157934,-0.957886,0.000000,0.000000,0.000000,-1,1.373952,-0.010495,1.177512,-0.200509,0.290548,-0.279800
"2019-03-26 10:54:41.680 +0000",1553597681.679933,-0.273737,0.190558,0.596818,-0.265438,-0.189407,-0.945340,0.000000,0.000000,0.000000,-1,1.838192,-1.538182,0.851364,-0.215183,0.418319,-0.371585
"2019-03-26 10:54:41.702 +0000",1553597681.702240,-0.311738,0.220046,0.608022,-0.299317,-0.218274,-0.928852,0.000000,0.000000,0.000000,-1,1.034420,-1.372142,-0.342614,-0.266234,0.415448,-0.165005
"2019-03-26 10:54:41.725 +0000",1553597681.724516,-0.333773,0.233210,0.601269,-0.318741,-0.231101,-0.919237,0.000000,0.000000,0.000000,-1,0.210746,-0.908614,-0.314828,-0.846450,0.108497,0.236879
"2019-03-26 10:54:41.747 +0000",1553597681.746826,-0.354881,0.227534,0.620246,-0.338522,-0.225576,-0.913520,0.000000,0.000000,0.000000,-1,-0.595253,-0.413297,1.889834,-0.839487,0.095479,0.353064
"2019-03-26 10:54:41.769 +0000",1553597681.769134,-0.327436,0.197060,0.652116,-0.315392,-0.195787,-0.928545,0.000000,0.000000,0.000000,-1,-0.769096,1.862571,2.247922,-0.382713,0.285554,0.306993
"2019-03-26 10:54:41.791 +0000",1553597681.791428,-0.272825,0.179210,0.681051,-0.265138,-0.178252,-0.947591,0.000000,0.000000,0.000000,-1,0.265556,2.306756,1.204849,-0.106414,0.448348,-0.261531
"2019-03-26 10:54:41.814 +0000",1553597681.813718,-0.256443,0.187341,0.711531,-0.249203,-0.186247,-0.950373,0.000000,0.000000,0.000000,-1,0.586247,0.534989,1.399352,-0.224643,0.246230,-0.172384
"2019-03-26 10:54:41.836 +0000",1553597681.836026,-0.259911,0.181446,0.757735,-0.252776,-0.180452,-0.950548,0.000000,0.000000,0.000000,-1,0.161011,-0.002556,2.410020,-0.143663,0.171236,-0.320860
"2019-03-26 10:54:41.858 +0000",1553597681.858332,-0.297694,0.168276,0.824945,-0.289174,-0.167483,-0.942511,0.000000,0.000000,0.000000,-1,0.307683,-1.989300,3.338275,0.136845,0.330676,0.233359
"2019-03-26 10:54:41.881 +0000",1553597681.880611,-0.369749,0.147395,0.907842,-0.357463,-0.146862,-0.922308,0.000000,0.000000,0.000000,-1,0.408190,-2.973864,3.850717,0.248988,0.358959,0.134466
"2019-03-26 10:54:41.903 +0000",1553597681.902919,-0.444090,0.135146,0.974295,-0.425718,-0.134735,-0.894768,0.000000,0.000000,0.000000,-1,0.631101,-2.709593,2.178699,0.209410,0.279220,0.302300
"2019-03-26 10:54:41.925 +0000",1553597681.925226,-0.503110,0.119203,1.008383,-0.478731,-0.118921,-0.869870,0.000000,0.000000,0.000000,-1,-0.302254,-2.131034,1.743937,-0.175917,0.345530,0.115552
"2019-03-26 10:54:41.948 +0000",1553597681.947503,-0.555347,0.085516,1.044294,-0.525312,-0.085412,-0.846612,0.000000,0.000000,0.000000,-1,-0.459413,-2.731455,2.370710,-0.753283,0.061074,0.481271
"2019-03-26 10:54:41.970 +0000",1553597681.969813,-0.649840,0.053838,1.095224,-0.604182,-0.053812,-0.795027,0.000000,0.000000,0.000000,-1,0.520433,-4.737162,2.757374,-0.283788,0.033335,0.494475
"2019-03-26 10:54:41.992 +0000",1553597681.992121,-0.762711,0.027082,1.151895,-0.690631,-0.027078,-0.722700,0.000000,0.000000,0.000000,-1,0.678160,-4.748463,2.680629,0.163821,0.304666,-0.005663
"2019-03-26 10:54:42.014 +0000",1553597682.014405,-0.850042,-0.018252,1.198259,-0.751183,0.018251,-0.659841,0.000000,0.000000,0.000000,-1,-0.231142,-3.401461,3.093787,-0.171348,0.043226,-0.069529
"2019-03-26 10:54:42.037 +0000",1553597682.036704,-0.910995,-0.093817,1.241759,-0.786639,0.093680,-0.610264,0.000000,0.000000,0.000000,-1,-0.877037,-2.638422,4.527006,0.067538,0.049524,0.312230
"2019-03-26 10:54:42.059 +0000",1553597682.059014,-0.972215,-0.212860,1.302886,-0.807491,0.211256,-0.550754,0.000000,0.000000,0.000000,-1,-0.404983,-3.868578,6.067715,0.235255,0.020113,0.324298
"2019-03-26 10:54:42.081 +0000",1553597682.081315,-1.035332,-0.283448,1.358200,-0.825714,0.279668,-0.489881,0.000000,0.000000,0.000000,-1,0.094107,-2.912915,3.103236,0.895767,0.533565,0.307767
"2019-03-26 10:54:42.104 +0000",1553597682.103600,-1.064087,-0.362940,1.372692,-0.817389,0.355025,-0.453689,0.000000,0.000000,0.000000,-1,-1.852703,-0.600231,3.313854,0.143576,0.675279,-0.256471
"2019-03-26 10:54:42.126 +0000",1553597682.125907,-1.076606,-0.443262,1.370194,-0.795274,0.428888,-0.428479,0.000000,0.000000,0.000000,-1,-1.648689,-0.810744,2.932483,-1.382751,-0.516092,-0.083453
"2019-03-26 10:54:42.148 +0000",1553597682.148214,-1.096353,-0.513445,1.376681,-0.774847,0.491181,-0.397937,0.000000,0.000000,0.000000,-1,-1.010527,-0.993933,2.889723,0.055227,0.054046,0.347003
"2019-03-26 10:54:42.171 +0000",1553597682.170523,-1.118711,-0.569072,1.400541,-0.757772,0.538850,-0.367997,0.000000,0.000000,0.000000,-1,0.070704,-2.190802,2.471584,0.403952,0.136489,0.370286
"2019-03-26 10:54:42.193 +0000",1553597682.192801,-1.154660,-0.611236,1.426507,-0.749049,0.573880,-0.331039,0.000000,0.000000,0.000000,-1,-0.167058,-1.773533,1.924421,0.582057,0.306033,0.431229
"2019-03-26 10:54:42.215 +0000",1553597682.215107,-1.166572,-0.651250,1.431650,-0.731229,0.606181,-0.312807,0.000000,0.000000,0.000000,-1,-0.584666,-0.132433,1.670250,0.439039,0.556417,-0.090849
"2019-03-26 10:54:42.237 +0000",1553597682.237392,-1.153983,-0.686445,1.445387,-0.707280,0.633791,-0.313152,0.000000,0.000000,0.000000,-1,0.130483,0.308142,1.638113,0.017964,0.290556,0.260555
"2019-03-26 10:54:42.260 +0000",1553597682.259693,-1.122102,-0.714438,1.476284,-0.680682,0.655193,-0.327711,0.000000,0.000000,0.000000,-1,0.513699,0.600310,1.438438,0.178103,0.241078,0.310805
"2019-03-26 10:54:42.282 +0000",1553597682.282000,-1.096834,-0.729848,1.496320,-0.663122,0.666756,-0.340156,0.000000,0.000000,0.000000,-1,0.047274,0.607795,0.561109,0.325201,0.055763,0.350776
"2019-03-26 10:54:42.304 +0000",1553597682.304310,-1.064339,-0.736402,1.496331,-0.647885,0.671627,-0.359393,0.000000,0.000000,0.000000,-1,0.030306,0.983387,0.028057,0.226040,-0.200771,0.417208
"2019-03-26 10:54:42.327 +0000",1553597682.326616,-1.071133,-0.723897,1.495656,-0.657632,0.662310,-0.358979,0.000000,0.000000,0.000000,-1,0.439761,-0.666791,-0.793244,0.303598,-0.142397,0.126786
"2019-03-26 10:54:42.349 +0000",1553597682.348894,-1.100971,-0.695437,1.501377,-0.684584,0.640721,-0.347595,0.000000,0.000000,0.000000,-1,0.701958,-1.823385,-1.204649,0.377577,0.072353,0.099441
"2019-03-26 10:54:42.371 +0000",1553597682.371202,-1.136860,-0.666800,1.494637,-0.712975,0.618475,-0.330388,0.000000,0.000000,0.000000,-1,0.177531,-0.900340,-1.373142,0.290367,0.361796,0.071996
"2019-03-26 10:54:42.394 +0000",1553597682.393512,-1.160481,-0.617056,1.478724,-0.747888,0.578636,-0.325336,0.000000,0.000000,0.000000,-1,0.539669,-0.800792,-2.711173,0.155328,0.827186,0.207996
"2019-03-26 10:54:42.416 +0000",1553597682.415788,-1.211021,-0.558114,1.456504,-0.793947,0.529587,-0.298640,0.000000,0.000000,0.000000,-1,0.095396,-2.593605,-2.467190,0.191316,0.785553,0.182658
"2019-03-26 10:54:42.438 +0000",1553597682.438096,-1.260545,-0.552296,1.463324,-0.810678,0.524643,-0.259907,0.000000,0.000000,0.000000,-1,0.395171,-1.629027,1.675226,0.520547,0.412262,-0.029782
"2019-03-26 10:54:42.460 +0000",1553597682.460402,-1.247550,-0.619188,1.486676,-0.772174,0.580374,-0.258676,0.000000,0.000000,0.000000,-1,-0.394154,0.638231,3.056573,0.338077,-0.333090,0.108209
"2019-03-26 10:54:42.483 +0000",1553597682.482712,-1.237785,-0.639108,1.490772,-0.758534,0.596480,-0.262372,0.000000,0.000000,0.000000,-1,-0.010375,0.102803,-0.250754,0.765583,0.386690,0.522549
"2019-03-26 10:54:42.505 +0000",1553597682.504989,-1.243959,-0.634330,1.487789,-0.762830,0.592638,-0.258595,0.000000,0.000000,0.000000,-1,0.007491,-0.237433,-0.118710,0.216718,1.159224,0.222233
"2019-03-26 10:54:42.527 +0000",1553597682.527298,-1.247032,-0.635225,1.490283,-0.763117,0.593359,-0.256081,0.000000,0.000000,0.000000,-1,0.091151,-0.162810,0.082872,0.016276,1.083445,-0.068596
"2019-03-26 10:54:42.550 +0000",1553597682.549605,-1.248369,-0.636709,1.491989,-0.762623,0.594553,-0.254781,0.000000,0.000000,0.000000,-1,-0.015235,-0.051991,0.121540,0.402927,0.130301,0.040395
"2019-03-26 10:54:42.572 +0000",1553597682.571883,-1.248817,-0.641219,1.489833,-0.760186,0.598172,-0.253589,0.000000,0.000000,0.000000,-1,-0.100799,0.048526,0.038735,0.373666,0.184253,0.103320
"2019-03-26 10:54:42.594 +0000",1553597682.594190,-1.251832,-0.639355,1.485718,-0.762005,0.596678,-0.251644,0.000000,0.000000,0.000000,-1,-0.170668,-0.021181,-0.165365,0.353832,0.332705,0.073025
"2019-03-26 10:54:42.616 +0000",1553597682.616498,-1.253352,-0.634713,1.481910,-0.765009,0.592947,-0.251348,0.000000,0.000000,0.000000,-1,0.093415,0.043534,-0.319653,0.343408,0.278071,0.091070
"2019-03-26 10:54:42.639 +0000",1553597682.638806,-1.252204,-0.650856,1.479075,-0.755530,0.605868,-0.249195,0.000000,0.000000,0.000000,-1,-0.407332,0.249439,0.812159,0.361289,0.247984,0.072636
"2019-03-26 10:54:42.661 +0000",1553597682.661083,-1.259678,-0.669853,1.467649,-0.746279,0.620870,-0.239974,0.000000,0.000000,0.000000,-1,-0.954988,-0.126467,0.688726,0.373827,0.198099,0.079925
"2019-03-26 10:54:42.683 +0000",1553597682.683385,-1.279458,-0.692738,1.439287,-0.737074,0.638646,-0.221027,0.000000,0.000000,0.000000,-1,-1.378631,-0.043970,0.754801,0.280378,0.070231,0.095127
"2019-03-26 10:54:42.706 +0000",1553597682.705699,-1.287092,-0.720969,1.424739,-0.721139,0.660113,-0.210262,0.000000,0.000000,0.000000,-1,-0.202449,0.171208,1.237206,0.300210,0.021513,0.141979
"2019-03-26 10:54:42.728 +0000",1553597682.728007,-1.273109,-0.738751,1.449530,-0.706793,0.673365,-0.216847,0.000000,0.000000,0.000000,-1,0.782186,-0.308997,0.696052,0.317862,-0.036524,0.176442
"2019-03-26 10:54:42.750 +0000",1553597682.750284,-1.272522,-0.737120,1.467616,-0.707715,0.672158,-0.217584,0.000000,0.000000,0.000000,-1,0.445492,-0.501295,-0.324591,0.466931,-0.424371,0.024042
"2019-03-26 10:54:42.773 +0000",1553597682.772591,-1.311995,-0.725775,1.447714,-0.723075,0.663715,-0.191426,0.000000,0.000000,0.000000,-1,-1.210861,-2.154793,-0.505388,0.357627,-0.179478,0.218846
"2019-03-26 10:54:42.795 +0000",1553597682.794899,-1.447980,-0.726486,1.392135,-0.741882,0.664247,-0.091576,0.000000,0.000000,0.000000,-1,-1.631095,-5.755660,-0.829639,0.286667,-0.236009,-0.003044
"2019-03-26 10:54:42.817 +0000",1553597682.817177,-1.605670,-0.762058,1.383915,-0.722977,0.690412,0.025223,0.000000,0.000000,0.000000,-1,1.333188,-6.467684,3.047198,0.402450,-0.091611,-0.263077
"2019-03-26 10:54:42.839 +0000",1553597682.839486,-1.658575,-0.847576,1.505766,-0.659254,0.749678,0.058017,0.000000,0.000000,0.000000,-1,4.467386,-5.267022,3.666837,0.765837,-0.202956,-0.626972
"2019-03-26 10:54:42.862 +0000",1553597682.861786,-1.640794,-0.926825,1.567320,-0.598906,0.799718,0.041991,0.000000,0.000000,0.000000,-1,0.330642,0.559656,3.016643,0.577528,0.569850,0.064363
"2019-03-26 10:54:42.884 +0000",1553597682.884102,-1.703090,-0.941468,1.483880,-0.583459,0.808423,0.077642,0.000000,0.000000,0.000000,-1,-2.154909,-1.483513,-0.501827,0.634484,0.437625,0.310145
"2019-03-26 10:54:42.906 +0000",1553597682.906375,-1.735197,-0.938661,1.503458,-0.582902,0.806768,0.096702,0.000000,0.000000,0.000000,-1,1.370497,-1.337574,-0.048814,-0.594451,2.392222,-0.513496
"2019-03-26 10:54:42.929 +0000",1553597682.928686,-1.717044,-0.937224,1.521122,-0.585708,0.805918,0.086274,0.000000,0.000000,0.000000,-1,-0.262824,0.737925,-0.129965,-0.159409,2.843893,-0.864930
"2019-03-26 10:54:42.951 +0000",1553597682.950996,-1.727505,-0.934568,1.492156,-0.586885,0.804342,0.092730,0.000000,0.000000,0.000000,-1,-0.710213,0.401283,0.027900,0.724565,0.565729,0.395002
"2019-03-26 10:54:42.973 +0000",1553597682.973272,-1.728929,-0.933452,1.483561,-0.587639,0.803679,0.093707,0.000000,0.000000,0.000000,-1,-0.064536,0.232840,-0.019950,0.378365,0.131777,0.532498
"2019-03-26 10:54:42.996 +0000",1553597682.995581,-1.723445,-0.932929,1.483428,-0.588559,0.803367,0.090547,0.000000,0.000000,0.000000,-1,0.033346,0.220629,-0.007395,0.392209,0.116783,-0.339738
"2019-03-26 10:54:43.018 +0000",1553597683.017888,-1.717590,-0.933660,1.485842,-0.588498,0.803802,0.087014,0.000000,0.000000,0.000000,-1,0.069902,0.170411,0.045170,0.366132,0.122727,-0.270638
"2019-03-26 10:54:43.040 +0000",1553597683.040196,-1.711112,-0.934442,1.488678,-0.588426,0.804268,0.083112,0.000000,0.000000,0.000000,-1,0.078573,0.204733,0.012615,0.417345,0.112877,-0.124524
"2019-03-26 10:54:43.062 +0000",1553597683.062492,-1.705798,-0.935578,1.490696,-0.587955,0.804942,0.079861,0.000000,0.000000,0.000000,-1,0.033683,0.147186,0.087539,0.391513,0.108342,-0.011730
"2019-03-26 10:54:43.085 +0000",1553597683.084782,-1.700956,-0.938133,1.491011,-0.586293,0.806455,0.076745,0.000000,0.000000,0.000000,-1,0.045044,0.234544,0.090490,0.382543,0.192095,-0.028650
"2019-03-26 10:54:43.107 +0000",1553597683.107088,-1.693849,-0.940150,1.493555,-0.585208,0.807647,0.072377,0.000000,0.000000,0.000000,-1,0.134036,0.225913,0.075718,0.397311,0.198915,-0.043615
"2019-03-26 10:54:43.129 +0000",1553597683.129367,-1.682441,-0.941381,1.500874,-0.585008,0.808372,0.065585,0.000000,0.000000,0.000000,-1,0.209060,0.265060,0.010894,0.344361,0.180490,-0.067325
"2019-03-26 10:54:43.152 +0000",1553597683.151674,-1.672153,-0.941986,1.507584,-0.585164,0.808728,0.059514,0.000000,0.000000,0.000000,-1,0.157595,0.170343,0.017916,0.334615,0.164951,-0.070485
"2019-03-26 10:54:43.174 +0000",1553597683.173983,-1.665486,-0.942833,1.512697,-0.584866,0.809226,0.055547,0.000000,0.000000,0.000000,-1,0.127492,0.094111,0.030985,0.338665,0.181909,-0.028935
"2019-03-26 10:54:43.196 +0000",1553597683.196290,-1.659398,-0.943956,1.516658,-0.584287,0.809885,0.051905,0.000000,0.000000,0.000000,-1,0.096226,0.159342,0.042798,0.373396,0.185568,-0.025614
"2019-03-26 10:54:43.219 +0000",1553597683.218566,-1.651614,-0.945351,1.520099,-0.583548,0.810702,0.047264,0.000000,0.000000,0.000000,-1,0.101364,0.251661,0.056867,0.394918,0.160626,-0.012031
"2019-03-26 10:54:43.241 +0000",1553597683.240875,-1.643252,-0.946626,1.524106,-0.582890,0.811449,0.042308,0.000000,0.000000,0.000000,-1,0.118831,0.207322,0.041141,0.389027,0.155791,-0.012614
"2019-03-26 10:54:43.263 +0000",1553597683.263164,-1.635158,-0.947391,1.528957,-0.582595,0.811895,0.037549,0.000000,0.000000,0.000000,-1,0.130016,0.180182,0.020298,0.353759,0.159434,-0.070325
"2019-03-26 10:54:43.285 +0000",1553597683.285491,-1.628245,-0.948392,1.532959,-0.582029,0.812479,0.033474,0.000000,0.000000,0.000000,-1,0.096250,0.156906,0.049022,0.336103,0.138754,-0.061535
"2019-03-26 10:54:43.308 +0000",1553597683.307762,-1.621919,-0.949841,1.535928,-0.581053,0.813323,0.029731,0.000000,0.000000,0.000000,-1,0.076293,0.190197,0.071048,0.341902,0.136491,-0.045692
"2019-03-26 10:54:43.330 +0000",1553597683.330071,-1.615412,-0.951150,1.538266,-0.580170,0.814084,0.025902,0.000000,0.000000,0.000000,-1,0.054867,0.212220,0.042311,0.363678,0.146427,-0.019982
"2019-03-26 10:54:43.352 +0000",1553597683.352378,-1.609886,-0.951499,1.539369,-0.580020,0.814287,0.022685,0.000000,0.000000,0.000000,-1,0.012061,0.200987,0.005176,0.341220,0.188246,-0.038462
"2019-03-26 10:54:43.375 +0000",1553597683.374660,-1.605845,-0.951349,1.539140,-0.580229,0.814200,0.020345,0.000000,0.000000,0.000000,-1,-0.014399,0.183708,-0.010774,0.337995,0.188104,-0.043767
"2019-03-26 10:54:43.397 +0000",1553597683.396970,-1.602967,-0.951142,1.537912,-0.580453,0.814079,0.018680,0.000000,0.000000,0.000000,-1,-0.036963,0.173877,-0.005734,0.342553,0.177345,-0.052951
"2019-03-26 10:54:43.419 +0000",1553597683.419277,-1.599774,-0.951084,1.537399,-0.580558,0.814045,0.016828,0.000000,0.000000,0.000000,-1,0.005676,0.145612,-0.002984,0.356696,0.158291,-0.044721
"2019-03-26 10:54:43.442 +0000",1553597683.441585,-1.597293,-0.951028,1.538184,-0.580643,0.814013,0.015388,0.000000,0.000000,0.000000,-1,0.023155,0.042276,-0.005781,0.337356,0.144666,-0.036156
"2019-03-26 10:54:43.464 +0000",1553597683.463882,-1.596028,-0.950948,1.539582,-0.580727,0.813967,0.014656,0.000000,0.000000,0.000000,-1,0.041941,-0.010606,-0.004063,0.313621,0.155088,-0.054527
"2019-03-26 10:54:43.486 +0000",1553597683.486170,-1.595561,-0.950982,1.541119,-0.580706,0.813986,0.014384,0.000000,0.000000,0.000000,-1,0.031921,-0.042560,0.004900,0.304919,0.172418,-0.049647
"2019-03-26 10:54:43.508 +0000",1553597683.508456,-1.595619,-0.951189,1.542517,-0.580536,0.814107,0.014413,0.000000,0.000000,0.000000,-1,0.046969,-0.064685,0.007584,0.337189,0.156856,-0.040750
"2019-03-26 10:54:43.531 +0000",1553597683.530757,-1.596304,-0.951409,1.544493,-0.580348,0.814234,0.014807,0.000000,0.000000,0.000000,-1,0.049443,-0.117579,0.008055,0.342799,0.152502,-0.043752
"2019-03-26 10:54:43.553 +0000",1553597683.553062,-1.597749,-0.951430,1.546547,-0.580308,0.814247,0.015644,0.000000,0.000000,0.000000,-1,0.056905,-0.153288,-0.001549,0.343721,0.145333,-0.065419
"2019-03-26 10:54:43.575 +0000",1553597683.575356,-1.570781,-1.071283,1.573147,-0.478999,0.877816,-0.000007,0.000000,0.000000,0.000000,-1,0.031594,-0.180529,-0.008192,0.240687,0.073066,-0.039589
"2019-03-26 10:54:43.598 +0000",1553597683.597681,-1.543211,-1.174170,1.601485,-0.386161,0.922370,-0.010655,0.000000,0.000000,0.000000,-1,0.030187,-0.149922,-0.011695,0.160286,0.046090,-0.016689
"2019-03-26 10:54:43.620 +0000",1553597683.619958,-1.545828,-1.173701,1.602253,-0.386621,0.922188,-0.009655,0.000000,0.000000,0.000000,-1,0.005034,-0.149995,-0.027833,0.163217,0.068489,-0.014453
"2019-03-26 10:54:43.642 +0000",1553597683.642267,-1.549424,-1.172867,1.602093,-0.387421,0.921866,-0.008281,0.000000,0.000000,0.000000,-1,-0.001303,-0.164812,-0.041350,0.164216,0.069742,-0.024464
"2019-03-26 10:54:43.665 +0000",1553597683.664574,-1.544302,-1.202294,1.610296,-0.360092,0.932868,-0.009543,0.000000,0.000000,0.000000,-1,-0.021464,-0.173508,-0.051056,0.144318,0.048913,-0.016230
"2019-03-26 10:54:43.687 +0000",1553597683.686874,-1.545926,-1.225338,1.612061,-0.338524,0.940920,-0.008421,0.000000,0.000000,0.000000,-1,-0.045366,-0.180956,-0.057083,0.135612,0.044401,-0.007311
"2019-03-26 10:54:43.709 +0000",1553597683.709158,-1.553720,-1.224093,1.608175,-0.339750,0.940498,-0.005802,0.000000,0.000000,0.000000,-1,-0.059174,-0.180971,-0.059570,0.135542,0.050072,-0.004757
"2019-03-26 10:54:43.731 +0000",1553597683.731474,-1.540910,-1.257035,1.623224,-0.308501,0.951179,-0.009223,0.000000,0.000000,0.000000,-1,-0.022857,-0.131837,-0.072210,0.113814,0.030663,-0.018029
"2019-03-26 10:54:43.754 +0000",1553597683.753774,-1.544591,-1.255430,1.621681,-0.310058,0.950683,-0.008127,0.000000,0.000000,0.000000,-1,-0.019062,-0.067879,-0.075257,0.119628,0.033875,-0.021383
"2019-03-26 10:54:43.776 +0000",1553597683.776052,-1.547337,-1.253968,1.619099,-0.311469,0.950228,-0.007308,0.000000,0.000000,0.000000,-1,-0.037761,0.002297,-0.058521,0.129203,0.034727,-0.015641
"2019-03-26 10:54:43.798 +0000",1553597683.798368,-1.546699,-1.270581,1.619860,-0.295640,0.955273,-0.007126,0.000000,0.000000,0.000000,-1,-0.048904,-0.061492,-0.005764,0.134736,0.039432,-0.009445
"2019-03-26 10:54:43.821 +0000",1553597683.820668,-1.537889,-1.293402,1.630215,-0.273703,0.961772,-0.009010,0.000000,0.000000,0.000000,-1,-0.021279,-0.097105,0.013302,0.091299,0.025121,-0.015572
"2019-03-26 10:54:43.843 +0000",1553597683.842976,-1.542271,-1.293760,1.628723,-0.273395,0.961870,-0.007801,0.000000,0.000000,0.000000,-1,-0.011281,-0.153686,0.013808,0.053928,-0.010881,-0.010876
"2019-03-26 10:54:43.865 +0000",1553597683.865253,-1.545953,-1.293641,1.628732,-0.273536,0.961838,-0.006797,0.000000,0.000000,0.000000,-1,-0.006418,-0.173500,-0.020749,0.056221,0.005402,-0.002282
"2019-03-26 10:54:43.888 +0000",1553597683.887568,-1.543715,-1.302027,1.634261,-0.265448,0.964098,-0.007191,0.000000,0.000000,0.000000,-1,0.008490,-0.133062,-0.060741,0.042319,0.019163,-0.018917
"2019-03-26 10:54:43.910 +0000",1553597683.909869,-1.548290,-1.300833,1.631895,-0.266629,0.963781,-0.006002,0.000000,0.000000,0.000000,-1,-0.051630,-0.082600,-0.047569,0.037335,0.008601,-0.020823
"2019-03-26 10:54:43.932 +0000",1553597683.932146,-1.554384,-1.299903,1.626943,-0.267556,0.963532,-0.004392,0.000000,0.000000,0.000000,-1,-0.065385,-0.064125,-0.040296,0.053613,0.014098,-0.007129
"2019-03-26 10:54:43.954 +0000",1553597683.954460,-1.561252,-1.299102,1.621618,-0.268352,0.963318,-0.002561,0.000000,0.000000,0.000000,-1,-0.064111,-0.080087,-0.032710,0.053966,0.035141,-0.000307
"2019-03-26 10:54:43.977 +0000",1553597683.976761,-1.566924,-1.298644,1.617718,-0.268804,0.963194,-0.001041,0.000000,0.000000,0.000000,-1,-0.037709,-0.087394,-0.016507,0.049596,0.028795,-0.008725
"2019-03-26 10:54:43.999 +0000",1553597683.999070,-1.570655,-1.298369,1.615398,-0.269070,0.963121,-0.000038,0.000000,0.000000,0.000000,-1,-0.028878,-0.049233,-0.010639,0.048672,0.001754,-0.013847
"2019-03-26 10:54:44.021 +0000",1553597684.021348,-1.572443,-1.298110,1.614461,-0.269320,0.963051,0.000443,0.000000,0.000000,0.000000,-1,-0.002531,-0.032005,-0.012021,0.037020,-0.001640,-0.020646
"2019-03-26 10:54:44.044 +0000",1553597684.043656,-1.574308,-1.302683,1.613341,-0.264911,0.964272,0.000930,0.000000,0.000000,0.000000,-1,0.018740,-0.029584,-0.023170,0.025165,-0.005639,0.004975
"2019-03-26 10:54:44.066 +0000",1553597684.065963,-1.572168,-1.301971,1.615897,-0.265598,0.964084,0.000364,0.000000,0.000000,0.000000,-1,0.035024,-0.017304,-0.030715,0.020832,0.001615,-0.001707
"2019-03-26 10:54:44.088 +0000",1553597684.088241,-1.571105,-1.301679,1.618708,-0.265881,0.964006,0.000082,0.000000,0.000000,0.000000,-1,0.036309,-0.102100,-0.008873,0.015713,0.003996,0.007288
"2019-03-26 10:54:44.111 +0000",1553597684.110549,-1.570192,-1.301619,1.621966,-0.265939,0.963990,-0.000161,0.000000,0.000000,0.000000,-1,0.037603,-0.095915,-0.000243,0.027505,-0.005189,0.020241
"2019-03-26 10:54:44.133 +0000",1553597684.132856,-1.569427,-1.301466,1.624880,-0.266086,0.963949,-0.000364,0.000000,0.000000,0.000000,-1,0.037571,-0.089798,-0.008981,0.017276,0.005213,0.016539
"2019-03-26 10:54:44.155 +0000",1553597684.155165,-1.568027,-1.300965,1.628255,-0.266568,0.963816,-0.000738,0.000000,0.000000,0.000000,-1,0.040006,-0.080033,-0.028916,0.014752,0.005850,0.030005
"2019-03-26 10:54:44.177 +0000",1553597684.177457,-1.572816,-1.304322,1.625753,-0.263331,0.964705,0.000532,0.000000,0.000000,0.000000,-1,0.007393,-0.100938,-0.022518,0.016154,0.003205,0.001681
"2019-03-26 10:54:44.200 +0000",1553597684.199750,-1.574032,-1.303549,1.626621,-0.264076,0.964502,0.000855,0.000000,0.000000,0.000000,-1,0.009910,-0.072654,-0.025249,0.016792,0.007117,0.002213
"2019-03-26 10:54:44.222 +0000",1553597684.222058,-1.577677,-1.303353,1.624898,-0.264260,0.964450,0.001818,0.000000,0.000000,0.000000,-1,-0.032680,-0.100893,-0.006409,0.024850,0.011625,0.001493
"2019-03-26 10:54:44.244 +0000",1553597684.244334,-1.581605,-1.302907,1.623052,-0.264681,0.964332,0.002861,0.000000,0.000000,0.000000,-1,-0.012686,-0.077599,-0.028937,0.057619,0.025521,-0.002632
"2019-03-26 10:54:44.267 +0000",1553597684.266644,-1.570579,-1.313017,1.634176,-0.254934,0.966959,-0.000055,0.000000,0.000000,0.000000,-1,-0.011464,-0.001420,-0.051867,0.046712,0.020651,-0.024450
"2019-03-26 10:54:44.289 +0000",1553597684.288934,-1.570719,-1.311935,1.633915,-0.255980,0.966682,-0.000020,0.000000,0.000000,0.000000,-1,0.009878,0.003524,-0.048180,0.031187,0.006539,-0.029124
"2019-03-26 10:54:44.311 +0000",1553597684.311257,-1.570187,-1.311360,1.634482,-0.256536,0.966535,-0.000156,0.000000,0.000000,0.000000,-1,0.001245,0.004890,-0.012220,0.044470,-0.011685,-0.029354
"2019-03-26 10:54:44.334 +0000",1553597684.333536,-1.570346,-1.311473,1.633997,-0.256427,0.966564,-0.000116,0.000000,0.000000,0.000000,-1,-0.002430,0.007430,0.008845,0.061115,0.016316,-0.019095
"2019-03-26 10:54:44.356 +0000",1553597684.355845,-1.569827,-1.311657,1.634441,-0.256249,0.966611,-0.000248,0.000000,0.000000,0.000000,-1,0.005100,0.006208,0.010100,0.053460,0.027194,-0.013545
"2019-03-26 10:54:44.378 +0000",1553597684.378151,-1.569316,-1.311855,1.634815,-0.256057,0.966662,-0.000379,0.000000,0.000000,0.000000,-1,0.007734,0.006359,0.009540,0.029098,0.014341,-0.025531
"2019-03-26 10:54:44.400 +0000",1553597684.400434,-1.561323,-1.315077,1.642604,-0.252930,0.967482,-0.002396,0.000000,0.000000,0.000000,-1,0.021557,0.006385,0.014524,0.014160,0.001177,-0.005508
"2019-03-26 10:54:44.423 +0000",1553597684.422737,-1.556105,-1.316521,1.647251,-0.251517,0.967846,-0.003695,0.000000,0.000000,0.000000,-1,0.021519,0.021099,0.001995,0.014945,0.004093,-0.007230
"2019-03-26 10:54:44.445 +0000",1553597684.445045,-1.553845,-1.316680,1.648562,-0.251354,0.967886,-0.004261,0.000000,0.000000,0.000000,-1,0.000271,0.075253,0.011429,0.010570,0.003916,-0.000713
"2019-03-26 10:54:44.467 +0000",1553597684.467353,-1.554183,-1.316860,1.646231,-0.251182,0.967931,-0.004173,0.000000,0.000000,0.000000,-1,-0.046154,0.101037,0.003737,0.020026,-0.008138,0.005852
"2019-03-26 10:54:44.490 +0000",1553597684.489632,-1.571094,-1.323242,1.626790,-0.245033,0.969515,0.000073,0.000000,0.000000,0.000000,-1,-0.093808,0.115794,0.008576,0.038826,0.006956,0.016773
"2019-03-26 10:54:44.512 +0000",1553597684.511930,-1.578116,-1.325166,1.618847,-0.243161,0.969984,0.001780,0.000000,0.000000,0.000000,-1,-0.048848,-0.026977,-0.014938,0.028028,-0.008253,0.003820
"2019-03-26 10:54:44.534 +0000",1553597684.534245,-1.578753,-1.324242,1.619159,-0.244056,0.969759,0.001942,0.000000,0.000000,0.000000,-1,0.016251,-0.012317,-0.048535,0.015846,-0.021547,-0.014653
"2019-03-26 10:54:44.557 +0000",1553597684.556555,-1.576964,-1.323287,1.620559,-0.244985,0.969526,0.001511,0.000000,0.000000,0.000000,-1,0.013822,0.023408,-0.035207,-0.043253,0.032183,-0.061951
"2019-03-26 10:54:44.579 +0000",1553597684.578832,-1.576266,-1.322877,1.621573,-0.245384,0.969425,0.001342,0.000000,0.000000,0.000000,-1,0.011373,-0.031857,-0.011148,-0.016076,0.044018,-0.004165
"2019-03-26 10:54:44.601 +0000",1553597684.601138,-1.576090,-1.322790,1.621901,-0.245469,0.969404,0.001299,0.000000,0.000000,0.000000,-1,-0.002349,0.007549,0.000902,0.026413,0.023486,-0.003497
"2019-03-26 10:54:44.623 +0000",1553597684.623438,-1.576842,-1.325412,1.620870,-0.242925,0.970044,0.001469,0.000000,0.000000,0.000000,-1,0.017744,0.016186,0.005810,0.032476,-0.019101,0.012051
"2019-03-26 10:54:44.646 +0000",1553597684.645724,-1.575289,-1.325493,1.621978,-0.242848,0.970064,0.001091,0.000000,0.000000,0.000000,-1,0.012719,0.021095,0.003283,0.029957,-0.011659,0.011009
"2019-03-26 10:54:44.668 +0000",1553597684.668033,-1.574163,-1.325494,1.623001,-0.242848,0.970064,0.000818,0.000000,0.000000,0.000000,-1,0.006405,-0.004764,-0.002693,0.012257,0.001219,0.001334
"2019-03-26 10:54:44.690 +0000",1553597684.690341,-1.574741,-1.325285,1.622897,-0.243050,0.970013,0.000959,0.000000,0.000000,0.000000,-1,-0.006203,-0.041711,-0.012295,0.000313,0.003497,0.005618
"2019-03-26 10:54:44.713 +0000",1553597684.712642,-1.578238,-1.324608,1.620612,-0.243702,0.969848,0.001814,0.000000,0.000000,0.000000,-1,-0.004999,-0.061426,-0.020805,-0.003719,0.001084,0.004595
"2019-03-26 10:54:44.735 +0000",1553597684.734924,-1.580863,-1.324261,1.619509,-0.244033,0.969764,0.002457,0.000000,0.000000,0.000000,-1,-0.017513,-0.063863,-0.013346,-0.004761,-0.001197,0.004501
"2019-03-26 10:54:44.757 +0000",1553597684.757233,-1.582999,-1.323925,1.618584,-0.244353,0.969682,0.002982,0.000000,0.000000,0.000000,-1,-0.003718,-0.052795,-0.015919,0.003219,0.006255,-0.001197
"2019-03-26 10:54:44.780 +0000",1553597684.779524,-1.568815,-1.324780,1.633320,-0.243542,0.969890,-0.000483,0.000000,0.000000,0.000000,-1,0.003851,-0.039243,-0.012306,0.003506,0.004780,-0.024923
"2019-03-26 10:54:44.802 +0000",1553597684.801818,-1.568893,-1.324664,1.634106,-0.243655,0.969862,-0.000464,0.000000,0.000000,0.000000,-1,0.012681,-0.034275,-0.001181,0.005465,0.003099,-0.026361
"2019-03-26 10:54:44.825 +0000",1553597684.824637,-1.567580,-1.324716,1.635872,-0.243603,0.969875,-0.000784,0.000000,0.000000,0.000000,-1,0.022758,-0.008415,0.004796,0.010388,-0.001933,-0.020380
"2019-03-26 10:54:44.847 +0000",1553597684.846925,-1.556122,-1.327154,1.647064,-0.241213,0.970466,-0.003540,0.000000,0.000000,0.000000,-1,0.016535,0.001455,0.012163,0.007861,0.010339,-0.010514
"2019-03-26 10:54:44.869 +0000",1553597684.869251,-1.555093,-1.327374,1.648374,-0.240996,0.970519,-0.003785,0.000000,0.000000,0.000000,-1,0.016500,-0.029313,0.008714,0.003859,0.012544,-0.004623
"2019-03-26 10:54:44.892 +0000",1553597684.891529,-1.555196,-1.327513,1.649444,-0.240861,0.970552,-0.003758,0.000000,0.000000,0.000000,-1,0.008925,-0.073619,0.004142,-0.000716,-0.002932,-0.008037
"2019-03-26 10:54:44.914 +0000",1553597684.913838,-1.555300,-1.327718,1.651099,-0.240663,0.970602,-0.003730,0.000000,0.000000,0.000000,-1,0.018988,-0.061294,0.008999,0.000520,-0.007482,-0.009210
"2019-03-26 10:54:44.936 +0000",1553597684.936145,-1.569451,-1.329131,1.638625,-0.239319,0.970941,-0.000322,0.000000,0.000000,0.000000,-1,0.005107,-0.060135,-0.007138,0.006363,0.006491,0.015550
"2019-03-26 10:54:44.958 +0000",1553597684.958452,-1.569433,-1.328721,1.640640,-0.239718,0.970843,-0.000327,0.000000,0.000000,0.000000,-1,0.027586,-0.110623,-0.022807,-0.002012,0.014555,0.008078
"2019-03-26 10:54:44.981 +0000",1553597684.980730,-1.570406,-1.328334,1.642737,-0.240093,0.970750,-0.000094,0.000000,0.000000,0.000000,-1,0.012562,-0.137649,-0.011409,-0.010502,0.003829,0.005251
"2019-03-26 10:54:45.003 +0000",1553597685.003038,-1.567259,-1.325702,1.649173,-0.242646,0.970114,-0.000858,0.000000,0.000000,0.000000,-1,0.003786,-0.167159,-0.007442,-0.013534,0.002191,-0.006725
"2019-03-26 10:54:45.025 +0000",1553597685.025346,-1.571401,-1.325744,1.648717,-0.242607,0.970125,0.000147,0.000000,0.000000,0.000000,-1,-0.011209,-0.180634,0.008798,-0.012519,0.005843,-0.002527
"2019-03-26 10:54:45.048 +0000",1553597685.047624,-1.580209,-1.326462,1.643514,-0.241899,0.970299,0.002277,0.000000,0.000000,0.000000,-1,-0.037503,-0.132652,0.013326,0.007585,-0.004280,0.007778
"2019-03-26 10:54:45.070 +0000",1553597685.069923,-1.572422,-1.328130,1.652585,-0.240291,0.970701,0.000391,0.000000,0.000000,0.000000,-1,0.005165,-0.046571,0.000185,0.009594,0.004275,-0.012186
"2019-03-26 10:54:45.092 +0000",1553597685.092237,-1.572719,-1.328079,1.652600,-0.240341,0.970689,0.000462,0.000000,0.000000,0.000000,-1,-0.003594,-0.004756,-0.001430,0.012756,-0.000657,-0.018223
"2019-03-26 10:54:45.115 +0000",1553597685.114548,-1.572657,-1.328198,1.652618,-0.240225,0.970717,0.000447,0.000000,0.000000,0.000000,-1,0.002711,0.007572,0.004666,-0.000528,-0.000823,-0.029011
"2019-03-26 10:54:45.137 +0000",1553597685.136837,-1.571487,-1.328415,1.653047,-0.240015,0.970769,0.000166,0.000000,0.000000,0.000000,-1,0.009040,0.048197,0.011751,0.001169,0.002406,-0.020292
"2019-03-26 10:54:45.159 +0000",1553597685.159127,-1.559057,-1.329923,1.663498,-0.238535,0.971130,-0.002800,0.000000,0.000000,0.000000,-1,-0.005949,0.092498,0.016322,0.008585,0.007965,-0.017647
"2019-03-26 10:54:45.181 +0000",1553597685.181441,-1.557760,-1.330356,1.662349,-0.238110,0.971233,-0.003104,0.000000,0.000000,0.000000,-1,-0.020976,0.123249,0.017283,0.016323,0.005467,-0.020608
"2019-03-26 10:54:45.204 +0000",1553597685.203719,-1.557528,-1.330735,1.659610,-0.237741,0.971323,-0.003155,0.000000,0.000000,0.000000,-1,-0.024749,0.131844,0.013483,0.019815,0.008657,-0.000736
"2019-03-26 10:54:45.226 +0000",1553597685.226014,-1.565768,-1.331102,1.648907,-0.237402,0.971411,-0.001194,0.000000,0.000000,0.000000,-1,-0.039801,0.102341,0.021181,-0.003015,0.001566,0.011875
"2019-03-26 10:54:45.248 +0000",1553597685.248333,-1.570637,-1.331537,1.642360,-0.236984,0.971514,-0.000038,0.000000,0.000000,0.000000,-1,-0.038580,0.056827,0.021585,-0.002015,-0.000307,0.009224
"2019-03-26 10:54:45.271 +0000",1553597685.270642,-1.572922,-1.331740,1.638634,-0.236786,0.971562,0.000503,0.000000,0.000000,0.000000,-1,-0.038650,0.057990,0.004207,-0.002045,-0.001088,0.003815
"2019-03-26 10:54:45.293 +0000",1553597685.292933,-1.577651,-1.331589,1.632387,-0.236927,0.971526,0.001624,0.000000,0.000000,0.000000,-1,-0.059993,0.070258,-0.002115,-0.002941,0.004518,0.005563
"2019-03-26 10:54:45.315 +0000",1553597685.315226,-1.582609,-1.331449,1.625825,-0.237053,0.971493,0.002800,0.000000,0.000000,0.000000,-1,-0.054958,0.060443,0.004176,-0.001412,0.003422,0.001823
"2019-03-26 10:54:45.338 +0000",1553597685.337515,-1.585370,-1.331891,1.621602,-0.236614,0.971598,0.003448,0.000000,0.000000,0.000000,-1,-0.033590,0.060597,0.001355,0.005077,0.004766,0.001007
"2019-03-26 10:54:45.360 +0000",1553597685.359813,-1.587310,-1.332027,1.618221,-0.236475,0.971630,0.003905,0.000000,0.000000,0.000000,-1,-0.041060,0.060646,0.014997,0.007456,0.008015,-0.012343
"2019-03-26 10:54:45.382 +0000",1553597685.382121,-1.585093,-1.333463,1.619166,-0.235087,0.971968,0.003361,0.000000,0.000000,0.000000,-1,-0.033573,0.038480,0.007760,0.014552,0.001680,-0.004124
"2019-03-26 10:54:45.404 +0000",1553597685.404426,-1.587325,-1.333704,1.616262,-0.234845,0.972025,0.003882,0.000000,0.000000,0.000000,-1,-0.026030,0.024976,0.014086,0.018399,0.005667,0.001687
"2019-03-26 10:54:45.427 +0000",1553597685.426728,-1.588163,-1.334022,1.615046,-0.234532,0.972100,0.004073,0.000000,0.000000,0.000000,-1,-0.008462,0.012697,0.017924,0.006551,0.009544,-0.008437
"2019-03-26 10:54:45.449 +0000",1553597685.449020,-1.580871,-1.336609,1.621750,-0.232041,0.972703,0.002338,0.000000,0.000000,0.000000,-1,0.001639,0.017676,0.031539,0.017792,0.001021,-0.005481
"2019-03-26 10:54:45.471 +0000",1553597685.471335,-1.581057,-1.338312,1.620969,-0.230383,0.973097,0.002364,0.000000,0.000000,0.000000,-1,-0.004643,0.033646,0.026438,0.018301,0.001848,0.001374
"2019-03-26 10:54:45.494 +0000",1553597685.493628,-1.580696,-1.338624,1.620592,-0.230080,0.973169,0.002278,0.000000,0.000000,0.000000,-1,-0.004709,0.033583,0.010311,0.018014,0.001273,-0.005207
"2019-03-26 10:54:45.516 +0000",1553597685.515930,-1.578796,-1.338678,1.621917,-0.230032,0.973181,0.001840,0.000000,0.000000,0.000000,-1,0.000281,0.017934,0.002754,-0.002710,0.004587,-0.005167
"2019-03-26 10:54:45.538 +0000",1553597685.538221,-1.576889,-1.337929,1.623405,-0.230764,0.973009,0.001406,0.000000,0.000000,0.000000,-1,0.005298,0.022853,0.001468,-0.003321,-0.001283,-0.007082
"2019-03-26 10:54:45.561 +0000",1553597685.560523,-1.576426,-1.337956,1.622856,-0.230738,0.973015,0.001299,0.000000,0.000000,0.000000,-1,-0.010983,0.054833,0.002418,-0.002676,-0.001457,-0.009661
"2019-03-26 10:54:45.583 +0000",1553597685.582830,-1.576399,-1.338216,1.621640,-0.230485,0.973075,0.001291,0.000000,0.000000,0.000000,-1,-0.010933,0.037669,0.017457,0.003175,0.001077,0.001348
"2019-03-26 10:54:45.605 +0000",1553597685.605107,-1.584167,-1.338872,1.613774,-0.229830,0.973226,0.003073,0.000000,0.000000,0.000000,-1,0.010327,0.006891,0.009057,0.002093,0.001506,0.017877
"2019-03-26 10:54:45.627 +0000",1553597685.627415,-1.582696,-1.338961,1.615134,-0.229748,0.973246,0.002734,0.000000,0.000000,0.000000,-1,0.009052,0.005641,0.004105,-0.004917,-0.004603,-0.009570
"2019-03-26 10:54:45.650 +0000",1553597685.649724,-1.583855,-1.339128,1.614117,-0.229582,0.973285,0.002998,0.000000,0.000000,0.000000,-1,-0.021057,-0.009129,0.005464,-0.013261,-0.008914,-0.013390
"2019-03-26 10:54:45.672 +0000",1553597685.672031,-1.586934,-1.339036,1.610967,-0.229661,0.973264,0.003707,0.000000,0.000000,0.000000,-1,-0.027331,0.019142,0.000248,-0.003173,0.007205,-0.000166
"2019-03-26 10:54:45.694 +0000",1553597685.694309,-1.587330,-1.339106,1.609923,-0.229592,0.973280,0.003796,0.000000,0.000000,0.000000,-1,0.001529,0.020394,0.002730,-0.001991,0.019564,-0.009747
"2019-03-26 10:54:45.717 +0000",1553597685.716617,-1.584933,-1.339007,1.611842,-0.229697,0.973257,0.003247,0.000000,0.000000,0.000000,-1,0.024070,0.025286,-0.007228,0.018042,0.002146,-0.013013
"2019-03-26 10:54:45.739 +0000",1553597685.738925,-1.582377,-1.338920,1.613790,-0.229789,0.973237,0.002661,0.000000,0.000000,0.000000,-1,0.016570,0.033913,-0.002346,-0.001595,-0.000382,-0.023016
"2019-03-26 10:54:45.761 +0000",1553597685.761212,-1.580000,-1.339190,1.615728,-0.229531,0.973299,0.002113,0.000000,0.000000,0.000000,-1,0.010308,0.009332,0.004074,0.007424,-0.005877,0.003640
"2019-03-26 10:54:45.784 +0000",1553597685.783504,-1.580249,-1.339413,1.616111,-0.229313,0.973350,0.002168,0.000000,0.000000,0.000000,-1,0.002772,-0.053378,0.012070,0.001972,-0.000313,0.002212
"2019-03-26 10:54:45.806 +0000",1553597685.805812,-1.582025,-1.339619,1.615606,-0.229109,0.973397,0.002573,0.000000,0.000000,0.000000,-1,-0.013579,-0.040383,0.001656,-0.010026,0.005958,0.000403
"2019-03-26 10:54:45.828 +0000",1553597685.828122,-1.582881,-1.337463,1.614891,-0.231205,0.972901,0.002794,0.000000,0.000000,0.000000,-1,-0.014860,0.003848,-0.012390,-0.011150,0.007888,0.003645
"2019-03-26 10:54:45.850 +0000",1553597685.850428,-1.585317,-1.337248,1.612382,-0.231406,0.972851,0.003360,0.000000,0.000000,0.000000,-1,-0.017358,-0.010895,-0.007298,-0.000039,0.004199,0.003842
"2019-03-26 10:54:45.873 +0000",1553597685.872711,-1.584806,-1.337214,1.613159,-0.231442,0.972843,0.003243,0.000000,0.000000,0.000000,-1,0.002716,-0.013342,-0.006027,0.002438,0.001369,-0.004738
"2019-03-26 10:54:45.895 +0000",1553597685.895023,-1.579023,-1.336439,1.619509,-0.232210,0.972664,0.001910,0.000000,0.000000,0.000000,-1,0.003998,-0.041594,0.004146,-0.006407,-0.003380,-0.011676
"2019-03-26 10:54:45.917 +0000",1553597685.917326,-1.578673,-1.336600,1.619892,-0.232054,0.972701,0.001828,0.000000,0.000000,0.000000,-1,0.001552,0.016244,0.009834,0.004317,-0.002975,-0.010892
"2019-03-26 10:54:45.940 +0000",1553597685.939604,-1.577782,-1.336805,1.620246,-0.231857,0.972749,0.001620,0.000000,0.000000,0.000000,-1,0.005325,0.031007,0.009705,0.017883,-0.001435,-0.006747
"2019-03-26 10:54:45.962 +0000",1553597685.961925,-1.577672,-1.337465,1.619699,-0.231215,0.972902,0.001590,0.000000,0.000000,0.000000,-1,0.007839,0.024867,0.012243,0.006361,0.001708,0.003995
"2019-03-26 10:54:45.984 +0000",1553597685.984220,-1.577697,-1.338135,1.619282,-0.230562,0.973056,0.001591,0.000000,0.000000,0.000000,-1,0.000305,0.003214,0.013455,0.002230,-0.000263,0.000072
"2019-03-26 10:54:46.006 +0000",1553597686.006497,-1.577868,-1.338201,1.619153,-0.230498,0.973071,0.001630,0.000000,0.000000,0.000000,-1,0.001487,-0.006688,-0.002583,-0.000185,0.001538,0.004824
"2019-03-26 10:54:46.029 +0000",1553597686.028807,-1.577348,-1.338004,1.619575,-0.230691,0.973026,0.001511,0.000000,0.000000,0.000000,-1,0.005232,0.011736,-0.010189,-0.006461,-0.005069,-0.005662
"2019-03-26 10:54:46.051 +0000",1553597686.051113,-1.572682,-1.337221,1.624241,-0.231456,0.972845,0.000436,0.000000,0.000000,0.000000,-1,0.003971,-0.019007,-0.007437,-0.001927,0.004831,-0.013437
"2019-03-26 10:54:46.073 +0000",1553597686.073422,-1.573418,-1.337150,1.624413,-0.231526,0.972829,0.000607,0.000000,0.000000,0.000000,-1,0.005230,-0.042359,-0.002267,0.000599,0.006572,-0.002118
"2019-03-26 10:54:46.096 +0000",1553597686.095698,-1.573243,-1.336993,1.625219,-0.231678,0.972792,0.000567,0.000000,0.000000,0.000000,-1,0.011500,-0.006707,-0.008783,0.003636,0.008455,-0.004183
"2019-03-26 10:54:46.118 +0000",1553597686.118004,-1.573337,-1.337505,1.625133,-0.231181,0.972911,0.000587,0.000000,0.000000,0.000000,-1,0.005272,-0.000520,0.001085,0.002344,-0.002269,0.004036
"2019-03-26 10:54:46.140 +0000",1553597686.140314,-1.573899,-1.337628,1.624884,-0.231060,0.972939,0.000717,0.000000,0.000000,0.000000,-1,-0.007255,-0.014033,0.007402,0.000683,0.001121,0.002396
"2019-03-26 10:54:46.163 +0000",1553597686.162592,-1.574595,-1.337744,1.624216,-0.230946,0.972966,0.000877,0.000000,0.000000,0.000000,-1,-0.005967,-0.000218,0.003358,0.009984,0.008006,0.001137
"2019-03-26 10:54:46.185 +0000",1553597686.184900,-1.575217,-1.337691,1.623216,-0.230998,0.972954,0.001021,0.000000,0.000000,0.000000,-1,-0.009747,0.020663,-0.004272,0.006831,0.007698,-0.006209
"2019-03-26 10:54:46.207 +0000",1553597686.207208,-1.573255,-1.337939,1.624807,-0.230758,0.973011,0.000567,0.000000,0.000000,0.000000,-1,0.007789,0.012041,-0.009150,0.002303,-0.004292,0.002164
"2019-03-26 10:54:46.230 +0000",1553597686.229515,-1.572077,-1.337835,1.626016,-0.230860,0.972987,0.000296,0.000000,0.000000,0.000000,-1,0.017831,-0.000241,-0.005315,0.000833,-0.003642,-0.000128
"2019-03-26 10:54:46.252 +0000",1553597686.251807,-1.571265,-1.337794,1.626983,-0.230900,0.972978,0.000108,0.000000,0.000000,0.000000,-1,0.005290,-0.019914,-0.001424,-0.001492,0.003631,-0.006990
"2019-03-26 10:54:46.274 +0000",1553597686.274110,-1.568934,-1.339800,1.630002,-0.228947,0.973439,-0.000426,0.000000,0.000000,0.000000,-1,0.009072,-0.030959,0.004884,0.016788,-0.006123,-0.005158
"2019-03-26 10:54:46.296 +0000",1553597686.296409,-1.565479,-1.340554,1.633890,-0.228211,0.973611,-0.001213,0.000000,0.000000,0.000000,-1,0.012855,-0.011270,0.005953,0.009247,-0.000589,-0.009330
"2019-03-26 10:54:46.319 +0000",1553597686.318686,-1.564294,-1.340711,1.635273,-0.228056,0.973647,-0.001483,0.000000,0.000000,0.000000,-1,0.007844,-0.001431,0.005864,-0.005877,0.008439,0.000568
"2019-03-26 10:54:46.341 +0000",1553597686.340988,-1.566865,-1.340572,1.632909,-0.228194,0.973615,-0.000897,0.000000,0.000000,0.000000,-1,0.009130,-0.001122,-0.001785,-0.003724,-0.004087,0.007474
"2019-03-26 10:54:46.363 +0000",1553597686.363307,-1.567617,-1.339830,1.632418,-0.228917,0.973446,-0.000728,0.000000,0.000000,0.000000,-1,0.007850,-0.015899,-0.005378,-0.010310,-0.001751,0.004619
"2019-03-26 10:54:46.386 +0000",1553597686.385609,-1.567376,-1.339765,1.633122,-0.228980,0.973431,-0.000783,0.000000,0.000000,0.000000,-1,0.004085,-0.010985,-0.006664,-0.009194,-0.001949,0.009130
"2019-03-26 10:54:46.408 +0000",1553597686.407887,-1.568074,-1.339600,1.632297,-0.229141,0.973393,-0.000624,0.000000,0.000000,0.000000,-1,-0.013458,0.008695,-0.005606,-0.003677,0.004711,0.007292
"2019-03-26 10:54:46.430 +0000",1553597686.430195,-1.569002,-1.339680,1.630980,-0.229064,0.973411,-0.000411,0.000000,0.000000,0.000000,-1,-0.007162,0.023473,-0.002012,0.003921,-0.004997,0.000838
"2019-03-26 10:54:46.453 +0000",1553597686.452503,-1.568853,-1.339762,1.630835,-0.228984,0.973430,-0.000445,0.000000,0.000000,0.000000,-1,0.002879,0.008731,0.001845,0.003246,0.000004,-0.003904
"2019-03-26 10:54:46.475 +0000",1553597686.474812,-1.567919,-1.339689,1.631235,-0.229055,0.973413,-0.000659,0.000000,0.000000,0.000000,-1,0.004115,0.035760,-0.007078,0.000707,0.002051,0.000033
"2019-03-26 10:54:46.497 +0000",1553597686.497088,-1.569757,-1.339737,1.628672,-0.229009,0.973424,-0.000238,0.000000,0.000000,0.000000,-1,-0.009665,0.025937,-0.000794,-0.000056,-0.003820,0.002542
"2019-03-26 10:54:46.519 +0000",1553597686.519395,-1.571876,-1.339824,1.626897,-0.228924,0.973444,0.000247,0.000000,0.000000,0.000000,-1,-0.017143,-0.037756,0.003298,0.002987,-0.001017,-0.003375
"2019-03-26 10:54:46.542 +0000",1553597686.541704,-1.571968,-1.339726,1.626999,-0.229020,0.973422,0.000268,0.000000,0.000000,0.000000,-1,0.001663,0.017564,-0.008350,-0.002578,0.010831,-0.005441
"2019-03-26 10:54:46.564 +0000",1553597686.563995,-1.563161,-1.340407,1.635081,-0.228350,0.973578,-0.001744,0.000000,0.000000,0.000000,-1,-0.003340,0.016343,-0.005858,0.010042,0.008509,-0.012630
"2019-03-26 10:54:46.586 +0000",1553597686.586290,-1.562157,-1.340296,1.635732,-0.228456,0.973552,-0.001974,0.000000,0.000000,0.000000,-1,0.011710,0.013889,-0.005830,0.014360,0.003529,-0.007746
"2019-03-26 10:54:46.609 +0000",1553597686.608598,-1.561777,-1.340319,1.636021,-0.228433,0.973558,-0.002060,0.000000,0.000000,0.000000,-1,-0.002052,-0.009441,0.006777,-0.001822,-0.004304,-0.000885
"2019-03-26 10:54:46.631 +0000",1553597686.630906,-1.561750,-1.340400,1.636159,-0.228354,0.973576,-0.002066,0.000000,0.000000,0.000000,-1,0.004208,-0.003302,0.003004,-0.003030,-0.004231,0.000952
"2019-03-26 10:54:46.653 +0000",1553597686.653183,-1.569861,-1.340685,1.628381,-0.228086,0.973641,-0.000213,0.000000,0.000000,0.000000,-1,-0.002061,-0.000840,0.004220,0.001493,0.000923,0.016601
"2019-03-26 10:54:46.675 +0000",1553597686.675490,-1.569952,-1.340623,1.627870,-0.228146,0.973627,-0.000193,0.000000,0.000000,0.000000,-1,-0.010861,0.032331,-0.006003,-0.001697,0.000631,-0.001699
"2019-03-26 10:54:46.698 +0000",1553597686.697800,-1.570907,-1.340277,1.626057,-0.228483,0.973548,0.000025,0.000000,0.000000,0.000000,-1,-0.029616,0.030052,-0.009888,-0.001924,0.004083,-0.000468
"2019-03-26 10:54:46.720 +0000",1553597686.720096,-1.575074,-1.340196,1.621232,-0.228560,0.973529,0.000978,0.000000,0.000000,0.000000,-1,-0.014564,0.039894,-0.011209,0.003630,0.004208,0.002425
"2019-03-26 10:54:46.742 +0000",1553597686.742384,-1.574949,-1.339890,1.620397,-0.228858,0.973459,0.000950,0.000000,0.000000,0.000000,-1,-0.004548,0.042339,-0.016189,0.004478,-0.001581,-0.002492
"2019-03-26 10:54:46.765 +0000",1553597686.764693,-1.574679,-1.339611,1.619656,-0.229130,0.973395,0.000890,0.000000,0.000000,0.000000,-1,-0.009534,0.044826,-0.008770,-0.008220,-0.006751,-0.005650
"2019-03-26 10:54:46.787 +0000",1553597686.786971,-1.574203,-1.338879,1.619020,-0.229842,0.973228,0.000783,0.000000,0.000000,0.000000,-1,-0.039633,0.042358,-0.007522,-0.009034,0.004067,-0.007528
"2019-03-26 10:54:46.809 +0000",1553597686.809277,-1.573017,-1.337894,1.619128,-0.230802,0.973001,0.000513,0.000000,0.000000,0.000000,-1,-0.028359,0.032513,-0.009913,-0.007998,0.003760,-0.005639
"2019-03-26 10:54:46.832 +0000",1553597686.831585,-1.574658,-1.337949,1.617541,-0.230747,0.973013,0.000891,0.000000,0.000000,0.000000,-1,-0.013275,-0.035065,0.009302,-0.001415,-0.000021,-0.001471
"2019-03-26 10:54:46.854 +0000",1553597686.853892,-1.576362,-1.338170,1.616586,-0.230531,0.973064,0.001283,0.000000,0.000000,0.000000,-1,-0.003250,-0.004336,0.001590,0.013551,-0.002361,-0.002870
"2019-03-26 10:54:46.876 +0000",1553597686.876170,-1.581840,-1.340009,1.610754,-0.228730,0.973487,0.002526,0.000000,0.000000,0.000000,-1,0.010554,0.030209,-0.019958,0.010545,-0.002219,0.012183
"2019-03-26 10:54:46.898 +0000",1553597686.898479,-1.581525,-1.339559,1.610703,-0.229168,0.973384,0.002459,0.000000,0.000000,0.000000,-1,-0.008271,-0.000542,-0.017212,-0.020145,0.010396,-0.004137
"2019-03-26 10:54:46.921 +0000",1553597686.920787,-1.582752,-1.339274,1.610491,-0.229443,0.973318,0.002743,0.000000,0.000000,0.000000,-1,0.009272,-0.066937,-0.010412,-0.017307,-0.008597,-0.009747
"2019-03-26 10:54:46.943 +0000",1553597686.943070,-1.579247,-1.339317,1.615186,-0.229410,0.973328,0.001939,0.000000,0.000000,0.000000,-1,0.031880,-0.031249,-0.009478,0.006448,-0.003296,-0.007310
"2019-03-26 10:54:46.965 +0000",1553597686.965372,-1.578257,-1.339203,1.616646,-0.229523,0.973302,0.001712,0.000000,0.000000,0.000000,-1,0.004322,-0.018931,-0.002156,0.010285,-0.000340,-0.009433
"2019-03-26 10:54:46.988 +0000",1553597686.987681,-1.578112,-1.339104,1.616947,-0.229619,0.973279,0.001680,0.000000,0.000000,0.000000,-1,0.000552,0.000731,-0.007294,0.000539,0.013903,0.006117
"2019-03-26 10:54:47.010 +0000",1553597687.009972,-1.577589,-1.338874,1.617444,-0.229843,0.973226,0.001561,0.000000,0.000000,0.000000,-1,-0.001944,-0.004176,-0.003531,-0.003464,-0.004507,-0.001012
"2019-03-26 10:54:47.032 +0000",1553597687.032264,-1.578489,-1.338837,1.617377,-0.229878,0.973218,0.001768,0.000000,0.000000,0.000000,-1,0.004302,-0.059519,-0.000555,-0.002986,-0.006253,-0.002699
"2019-03-26 10:54:47.055 +0000",1553597687.054572,-1.577026,-1.338723,1.619657,-0.229991,0.973192,0.001433,0.000000,0.000000,0.000000,-1,0.031951,-0.006500,-0.006111,0.000194,-0.002489,-0.008772
"2019-03-26 10:54:47.077 +0000",1553597687.076881,-1.575156,-1.338662,1.622057,-0.230053,0.973178,0.001003,0.000000,0.000000,0.000000,-1,0.018147,-0.038474,-0.002112,0.002224,-0.002947,-0.004803
"2019-03-26 10:54:47.099 +0000",1553597687.099189,-1.578604,-1.338051,1.619649,-0.230643,0.973037,0.001801,0.000000,0.000000,0.000000,-1,0.011821,-0.042215,-0.014488,-0.003091,0.006974,0.005355
"2019-03-26 10:54:47.121 +0000",1553597687.121466,-1.577506,-1.337920,1.621564,-0.230772,0.973007,0.001548,0.000000,0.000000,0.000000,-1,0.011837,-0.042201,-0.010766,0.001615,0.003358,-0.003028
"2019-03-26 10:54:47.144 +0000",1553597687.143773,-1.576991,-1.337757,1.622926,-0.230931,0.972969,0.001431,0.000000,0.000000,0.000000,-1,0.014365,-0.036035,-0.007098,-0.003627,-0.005745,-0.000393
"2019-03-26 10:54:47.166 +0000",1553597687.166081,-1.577016,-1.337956,1.623765,-0.230738,0.973015,0.001435,0.000000,0.000000,0.000000,-1,0.020647,-0.034792,-0.004625,0.000574,0.007149,0.003142
"2019-03-26 10:54:47.188 +0000",1553597687.188389,-1.576158,-1.337877,1.625550,-0.230816,0.972997,0.001238,0.000000,0.000000,0.000000,-1,0.018137,-0.044629,-0.003298,-0.001575,0.005687,-0.001131
"2019-03-26 10:54:47.211 +0000",1553597687.210663,-1.572686,-1.337741,1.629751,-0.230951,0.972965,0.000436,0.000000,0.000000,0.000000,-1,0.010609,-0.026195,-0.007186,0.000345,-0.003193,-0.009699
"2019-03-26 10:54:47.233 +0000",1553597687.232959,-1.572434,-1.337712,1.630520,-0.230980,0.972959,0.000378,0.000000,0.000000,0.000000,-1,-0.003121,-0.027290,-0.004829,0.000190,0.003894,0.001392
"2019-03-26 10:54:47.255 +0000",1553597687.255282,-1.573398,-1.337555,1.630099,-0.231132,0.972922,0.000601,0.000000,0.000000,0.000000,-1,0.000625,-0.022387,-0.009833,0.002936,0.004510,0.002054
"2019-03-26 10:54:47.278 +0000",1553597687.277560,-1.573471,-1.337376,1.630374,-0.231306,0.972881,0.000619,0.000000,0.000000,0.000000,-1,0.003142,-0.008854,-0.009952,0.005857,0.001957,0.001243
"2019-03-26 10:54:47.300 +0000",1553597687.299868,-1.573267,-1.337064,1.630829,-0.231609,0.972809,0.000572,0.000000,0.000000,0.000000,-1,0.001884,-0.015005,-0.009898,-0.003697,0.001923,-0.006798
"2019-03-26 10:54:47.322 +0000",1553597687.322177,-1.569236,-1.336384,1.635264,-0.232271,0.972651,-0.000362,0.000000,0.000000,0.000000,-1,-0.003116,-0.014992,-0.006180,-0.003554,0.002920,-0.008488
"2019-03-26 10:54:47.344 +0000",1553597687.344484,-1.569574,-1.336347,1.634907,-0.232307,0.972642,-0.000284,0.000000,0.000000,0.000000,-1,-0.000563,0.007180,0.001067,0.005546,0.003493,-0.010168
"2019-03-26 10:54:47.367 +0000",1553597687.366762,-1.569031,-1.336344,1.635365,-0.232310,0.972642,-0.000410,0.000000,0.000000,0.000000,-1,0.006955,0.002257,-0.000126,0.011241,0.001373,0.001112
"2019-03-26 10:54:47.389 +0000",1553597687.389061,-1.564425,-1.336461,1.639890,-0.232191,0.972669,-0.001479,0.000000,0.000000,0.000000,-1,0.016983,-0.002663,-0.001318,-0.000337,0.001788,-0.004197
"2019-03-26 10:54:47.411 +0000",1553597687.411377,-1.563686,-1.336413,1.641036,-0.232238,0.972658,-0.001651,0.000000,0.000000,0.000000,-1,0.008151,-0.027227,-0.004789,-0.004136,-0.001939,-0.003918
"2019-03-26 10:54:47.434 +0000",1553597687.433655,-1.563927,-1.336339,1.641216,-0.232310,0.972641,-0.001596,0.000000,0.000000,0.000000,-1,0.003144,-0.011237,-0.004933,-0.003179,-0.005615,-0.000205
"2019-03-26 10:54:47.456 +0000",1553597687.455956,-1.568249,-1.336528,1.637175,-0.232131,0.972684,-0.000591,0.000000,0.000000,0.000000,-1,0.001881,-0.005097,-0.007468,0.002501,0.007052,0.007656
"2019-03-26 10:54:47.478 +0000",1553597687.478270,-1.569448,-1.336547,1.636284,-0.232113,0.972689,-0.000313,0.000000,0.000000,0.000000,-1,0.004377,-0.017402,-0.008598,0.000378,0.010115,0.004646
"2019-03-26 10:54:47.501 +0000",1553597687.500578,-1.569305,-1.336355,1.636824,-0.232300,0.972644,-0.000346,0.000000,0.000000,0.000000,-1,0.000623,-0.018624,-0.006108,-0.003555,0.004147,0.000362
"2019-03-26 10:54:47.523 +0000",1553597687.522856,-1.570167,-1.336231,1.636251,-0.232420,0.972616,-0.000146,0.000000,0.000000,0.000000,-1,-0.004388,-0.008785,-0.006198,-0.001497,-0.002218,-0.006949
"2019-03-26 10:54:47.545 +0000",1553597687.545165,-1.569490,-1.336978,1.636911,-0.231694,0.972789,-0.000303,0.000000,0.000000,0.000000,-1,-0.008121,-0.002612,-0.000050,0.007680,0.001500,0.000196
"2019-03-26 10:54:47.567 +0000",1553597687.567471,-1.569608,-1.336907,1.636822,-0.231762,0.972772,-0.000275,0.000000,0.000000,0.000000,-1,0.006909,0.002291,-0.006290,0.007199,0.004385,0.000749
"2019-03-26 10:54:47.590 +0000",1553597687.589750,-1.568615,-1.336892,1.637760,-0.231777,0.972769,-0.000506,0.000000,0.000000,0.000000,-1,0.013183,0.001139,-0.003760,0.002346,0.003473,0.000521
"2019-03-26 10:54:47.612 +0000",1553597687.612068,-1.567288,-1.336466,1.639241,-0.232190,0.972670,-0.000815,0.000000,0.000000,0.000000,-1,0.009418,-0.009929,-0.002424,-0.004443,-0.002806,-0.001001
"2019-03-26 10:54:47.634 +0000",1553597687.634364,-1.565297,-1.336158,1.641504,-0.232488,0.972598,-0.001279,0.000000,0.000000,0.000000,-1,0.014450,-0.003766,0.000004,-0.003428,-0.000446,-0.004733
"2019-03-26 10:54:47.657 +0000",1553597687.656672,-1.564558,-1.336164,1.642379,-0.232481,0.972600,-0.001450,0.000000,0.000000,0.000000,-1,0.009432,-0.004999,0.000013,0.000852,0.001475,0.007844
"2019-03-26 10:54:47.679 +0000",1553597687.678975,-1.565789,-1.336128,1.641350,-0.232518,0.972591,-0.001164,0.000000,0.000000,0.000000,-1,0.004398,-0.005015,-0.003710,-0.000744,0.003483,0.006367
"2019-03-26 10:54:47.701 +0000",1553597687.701256,-1.565876,-1.336313,1.641385,-0.232338,0.972634,-0.001143,0.000000,0.000000,0.000000,-1,-0.000602,-0.002543,-0.000013,-0.000313,0.002616,-0.003068
"2019-03-26 10:54:47.724 +0000",1553597687.723566,-1.567038,-1.336258,1.640247,-0.232392,0.972622,-0.000873,0.000000,0.000000,0.000000,-1,0.006893,0.006038,-0.008769,0.001557,-0.000118,0.007847
"2019-03-26 10:54:47.746 +0000",1553597687.745874,-1.566941,-1.336187,1.640187,-0.232461,0.972605,-0.000896,0.000000,0.000000,0.000000,-1,-0.008129,0.004830,-0.001322,0.000863,-0.000712,-0.006748
"2019-03-26 10:54:47.768 +0000",1553597687.768152,-1.569627,-1.335880,1.637487,-0.232761,0.972534,-0.000272,0.000000,0.000000,0.000000,-1,0.003158,0.007351,-0.001298,-0.001491,0.001404,0.007612
"2019-03-26 10:54:47.790 +0000",1553597687.790459,-1.568957,-1.335809,1.637909,-0.232831,0.972517,-0.000428,0.000000,0.000000,0.000000,-1,0.006899,0.013479,-0.007554,0.004727,0.004213,0.009492
"2019-03-26 10:54:47.813 +0000",1553597687.812764,-1.568544,-1.335812,1.637882,-0.232827,0.972518,-0.000524,0.000000,0.000000,0.000000,-1,-0.006862,0.015967,0.001102,0.001336,0.002839,-0.005427
"2019-03-26 10:54:47.835 +0000",1553597687.835049,-1.570750,-1.335529,1.635457,-0.233103,0.972452,-0.000011,0.000000,0.000000,0.000000,-1,-0.011891,0.006120,-0.000054,-0.000982,0.001501,0.005092
"2019-03-26 10:54:47.857 +0000",1553597687.857353,-1.571397,-1.335511,1.635068,-0.233121,0.972448,0.000140,0.000000,0.000000,0.000000,-1,-0.000618,-0.018478,0.000170,0.001111,0.003932,0.008024
"2019-03-26 10:54:47.880 +0000",1553597687.879660,-1.571499,-1.335559,1.634921,-0.233074,0.972459,0.000164,0.000000,0.000000,0.000000,-1,0.004420,0.012277,-0.000101,-0.000111,0.008986,0.000264
"2019-03-26 10:54:47.902 +0000",1553597687.901955,-1.568877,-1.335630,1.636991,-0.233005,0.972476,-0.000447,0.000000,0.000000,0.000000,-1,0.006949,0.019674,0.003556,-0.000043,0.001295,-0.004970
"2019-03-26 10:54:47.924 +0000",1553597687.924245,-1.567528,-1.335626,1.638001,-0.233007,0.972475,-0.000761,0.000000,0.000000,0.000000,-1,0.014473,0.017217,0.003581,-0.000925,-0.001833,0.000975
"2019-03-26 10:54:47.947 +0000",1553597687.946554,-1.566092,-1.335707,1.639236,-0.232927,0.972494,-0.001096,0.000000,0.000000,0.000000,-1,0.010699,0.003755,0.004986,-0.001707,-0.005193,-0.005694
"2019-03-26 10:54:47.969 +0000",1553597687.968861,-1.564688,-1.335782,1.640622,-0.232852,0.972511,-0.001422,0.000000,0.000000,0.000000,-1,0.015706,0.003748,0.002507,-0.006207,-0.002830,0.005985
"2019-03-26 10:54:47.991 +0000",1553597687.991138,-1.564989,-1.335984,1.640259,-0.232657,0.972558,-0.001351,0.000000,0.000000,0.000000,-1,0.011946,0.008667,0.002462,0.000433,0.003882,0.002251
"2019-03-26 10:54:48.013 +0000",1553597688.013446,-1.564259,-1.335990,1.640832,-0.232650,0.972559,-0.001521,0.000000,0.000000,0.000000,-1,0.001901,0.008653,-0.000023,-0.002763,0.006323,0.001170
"2019-03-26 10:54:48.036 +0000",1553597688.035745,-1.564533,-1.335929,1.640500,-0.232710,0.972545,-0.001458,0.000000,0.000000,0.000000,-1,-0.004384,-0.003656,-0.001157,-0.004702,-0.002880,0.001976
"2019-03-26 10:54:48.058 +0000",1553597688.058043,-1.568576,-1.335237,1.636746,-0.233386,0.972384,-0.000518,0.000000,0.000000,0.000000,-1,-0.001873,-0.013486,0.001411,-0.003690,-0.001071,0.008895
"2019-03-26 10:54:48.080 +0000",1553597688.080340,-1.568589,-1.335260,1.636837,-0.233364,0.972389,-0.000515,0.000000,0.000000,0.000000,-1,-0.000604,0.001281,0.002521,0.001308,0.004234,0.009197
"2019-03-26 10:54:48.103 +0000",1553597688.102649,-1.567893,-1.335246,1.637468,-0.233377,0.972386,-0.000678,0.000000,0.000000,0.000000,-1,0.009423,0.004966,0.000012,0.003137,0.007152,-0.006021
"2019-03-26 10:54:48.125 +0000",1553597688.124938,-1.566871,-1.335310,1.638459,-0.233314,0.972401,-0.000916,0.000000,0.000000,0.000000,-1,0.006916,0.003828,0.003794,-0.000359,-0.001240,-0.001953
"2019-03-26 10:54:48.147 +0000",1553597688.147233,-1.561536,-1.335465,1.643431,-0.233155,0.972437,-0.002159,0.000000,0.000000,0.000000,-1,-0.005613,0.008753,0.006226,0.001069,-0.003413,-0.006889
"2019-03-26 10:54:48.170 +0000",1553597688.169542,-1.561660,-1.335620,1.643230,-0.233005,0.972473,-0.002129,0.000000,0.000000,0.000000,-1,0.000649,0.001371,0.005053,0.002552,0.004852,0.007882
"2019-03-26 10:54:48.192 +0000",1553597688.191849,-1.561278,-1.335551,1.643436,-0.233071,0.972457,-0.002219,0.000000,0.000000,0.000000,-1,0.001878,0.008723,-0.002455,0.003274,0.005036,0.008139
"2019-03-26 10:54:48.214 +0000",1553597688.214157,-1.556972,-1.334529,1.647508,-0.234053,0.972218,-0.003236,0.000000,0.000000,0.000000,-1,0.001861,0.003789,-0.006134,-0.008302,-0.002751,-0.004180
"2019-03-26 10:54:48.236 +0000",1553597688.236435,-1.557069,-1.334538,1.647419,-0.234044,0.972221,-0.003213,0.000000,0.000000,0.000000,-1,-0.000606,-0.002320,0.005084,-0.002803,-0.003715,0.002893
"2019-03-26 10:54:48.259 +0000",1553597688.258742,-1.556961,-1.334658,1.647547,-0.233927,0.972249,-0.003237,0.000000,0.000000,0.000000,-1,0.001903,-0.002319,0.005085,0.001094,0.000835,0.001680
"2019-03-26 10:54:48.281 +0000",1553597688.281045,-1.556045,-1.335864,1.648435,-0.232752,0.972530,-0.003434,0.000000,0.000000,0.000000,-1,0.003153,0.006284,0.002530,0.005061,0.000172,-0.002777
"2019-03-26 10:54:48.303 +0000",1553597688.303329,-1.552904,-1.336153,1.651316,-0.232459,0.972597,-0.004160,0.000000,0.000000,0.000000,-1,0.004385,0.008832,0.001325,0.003882,-0.000674,-0.008429
"2019-03-26 10:54:48.326 +0000",1553597688.325636,-1.552577,-1.336182,1.651408,-0.232429,0.972604,-0.004235,0.000000,0.000000,0.000000,-1,0.001879,0.012521,0.001291,-0.000847,0.000479,0.003823
"2019-03-26 10:54:48.348 +0000",1553597688.347943,-1.552004,-1.336245,1.651864,-0.232366,0.972619,-0.004367,0.000000,0.000000,0.000000,-1,0.006894,0.001457,0.002632,-0.001658,0.000999,0.003955
"2019-03-26 10:54:48.370 +0000",1553597688.370252,-1.553478,-1.336413,1.650241,-0.232209,0.972658,-0.004022,0.000000,0.000000,0.000000,-1,-0.008159,0.008827,0.001320,0.000946,0.000731,0.001901
"2019-03-26 10:54:48.393 +0000",1553597688.392529,-1.554284,-1.336418,1.649216,-0.232206,0.972659,-0.003835,0.000000,0.000000,0.000000,-1,-0.009431,0.005122,-0.002369,0.000486,-0.001132,0.000768
"2019-03-26 10:54:48.415 +0000",1553597688.414838,-1.554962,-1.336515,1.648500,-0.232115,0.972681,-0.003676,0.000000,0.000000,0.000000,-1,-0.005642,-0.002229,0.005141,-0.002717,0.007528,0.008482
"2019-03-26 10:54:48.437 +0000",1553597688.437133,-1.553006,-1.337600,1.650365,-0.231052,0.972933,-0.004111,0.000000,0.000000,0.000000,-1,0.005654,0.000242,0.006366,0.007343,0.003584,0.000525
"2019-03-26 10:54:48.459 +0000",1553597688.459451,-1.551770,-1.337680,1.651462,-0.230969,0.972951,-0.004395,0.000000,0.000000,0.000000,-1,0.011917,0.008841,0.002570,0.009304,0.001872,-0.000289
"2019-03-26 10:54:48.482 +0000",1553597688.481730,-1.550880,-1.337756,1.652193,-0.230891,0.972969,-0.004599,0.000000,0.000000,0.000000,-1,0.005620,0.006455,0.002645,0.002482,-0.002876,-0.003763
"2019-03-26 10:54:48.504 +0000",1553597688.504027,-1.554710,-1.337808,1.648386,-0.230856,0.972981,-0.003714,0.000000,0.000000,0.000000,-1,0.008129,0.001540,0.003930,0.000983,-0.001484,0.010412
"2019-03-26 10:54:48.526 +0000",1553597688.526335,-1.554384,-1.337866,1.648630,-0.230798,0.972994,-0.003788,0.000000,0.000000,0.000000,-1,-0.001916,0.008902,0.000138,0.003992,-0.000796,0.011051
"2019-03-26 10:54:48.549 +0000",1553597688.548624,-1.554323,-1.337899,1.648501,-0.230766,0.973002,-0.003802,0.000000,0.000000,0.000000,-1,-0.004432,0.005206,-0.001070,0.000389,0.002767,0.000384
"2019-03-26 10:54:48.571 +0000",1553597688.570931,-1.554460,-1.337898,1.648466,-0.230768,0.973002,-0.003770,0.000000,0.000000,0.000000,-1,0.003089,-0.009548,0.000304,-0.006934,0.003485,0.008989
"2019-03-26 10:54:48.593 +0000",1553597688.593240,-1.557641,-1.337519,1.646078,-0.231147,0.972914,-0.003041,0.000000,0.000000,0.000000,-1,0.000549,-0.034165,-0.003200,-0.003839,0.001695,0.003987
"2019-03-26 10:54:48.616 +0000",1553597688.615546,-1.556850,-1.337475,1.647069,-0.231188,0.972904,-0.003224,0.000000,0.000000,0.000000,-1,0.008107,0.007667,-0.002328,0.003542,0.001187,0.003972
"2019-03-26 10:54:48.638 +0000",1553597688.637845,-1.557973,-1.337736,1.645721,-0.230938,0.972964,-0.002962,0.000000,0.000000,0.000000,-1,-0.001912,0.008907,0.001379,0.003917,0.001355,0.005769
"2019-03-26 10:54:48.660 +0000",1553597688.660132,-1.559284,-1.337952,1.644525,-0.230731,0.973014,-0.002656,0.000000,0.000000,0.000000,-1,0.010594,-0.010672,0.002858,0.003054,0.001244,0.007738
"2019-03-26 10:54:48.682 +0000",1553597688.682439,-1.560398,-1.338235,1.644014,-0.230458,0.973079,-0.002397,0.000000,0.000000,0.000000,-1,0.016851,-0.025436,0.001751,0.000936,0.000233,0.000840
"2019-03-26 10:54:48.705 +0000",1553597688.704717,-1.559114,-1.338225,1.645493,-0.230465,0.973077,-0.002692,0.000000,0.000000,0.000000,-1,0.011834,-0.000850,-0.002191,0.000866,0.000785,-0.000756
"2019-03-26 10:54:48.727 +0000",1553597688.727036,-1.558451,-1.338866,1.646149,-0.229839,0.973225,-0.002838,0.000000,0.000000,0.000000,-1,0.000554,0.005301,-0.001009,0.005947,-0.000904,0.002731
"2019-03-26 10:54:48.749 +0000",1553597688.749333,-1.558339,-1.338872,1.646325,-0.229833,0.973226,-0.002863,0.000000,0.000000,0.000000,-1,0.001811,-0.005760,0.001571,0.008107,0.000285,-0.000540
"2019-03-26 10:54:48.772 +0000",1553597688.771640,-1.558205,-1.338858,1.646560,-0.229847,0.973223,-0.002894,0.000000,0.000000,0.000000,-1,0.004314,0.000382,-0.000963,0.003086,0.005629,0.008937
"2019-03-26 10:54:48.794 +0000",1553597688.793919,-1.557728,-1.338849,1.647161,-0.229853,0.973221,-0.003004,0.000000,0.000000,0.000000,-1,0.010596,-0.006982,0.002826,-0.000020,0.003006,-0.001513
"2019-03-26 10:54:48.816 +0000",1553597688.816225,-1.557279,-1.338426,1.647788,-0.230264,0.973123,-0.003113,0.000000,0.000000,0.000000,-1,0.005567,-0.009453,0.000364,-0.003638,0.000800,-0.001389
"2019-03-26 10:54:48.839 +0000",1553597688.838535,-1.557006,-1.338441,1.648537,-0.230248,0.973127,-0.003175,0.000000,0.000000,0.000000,-1,0.009305,-0.024120,0.004270,0.000054,0.000201,-0.002241
"2019-03-26 10:54:48.861 +0000",1553597688.860813,-1.556231,-1.338448,1.649591,-0.230239,0.973128,-0.003354,0.000000,0.000000,0.000000,-1,0.010556,-0.005682,0.000385,0.002105,-0.000274,0.002820
"2019-03-26 10:54:48.883 +0000",1553597688.883114,-1.554096,-1.338778,1.651761,-0.229910,0.973204,-0.003840,0.000000,0.000000,0.000000,-1,0.015566,-0.001999,-0.002126,0.001516,0.003022,-0.001882
"2019-03-26 10:54:48.905 +0000",1553597688.905427,-1.552650,-1.338646,1.653311,-0.230032,0.973174,-0.004175,0.000000,0.000000,0.000000,-1,0.014310,-0.004459,-0.002105,-0.003061,0.001069,-0.000800
"2019-03-26 10:54:48.928 +0000",1553597688.927736,-1.550917,-1.338633,1.655216,-0.230038,0.973171,-0.004574,0.000000,0.000000,0.000000,-1,0.021846,-0.005677,0.000390,-0.001743,-0.004314,0.000423
"2019-03-26 10:54:48.950 +0000",1553597688.950002,-1.549789,-1.339115,1.656562,-0.229564,0.973282,-0.004823,0.000000,0.000000,0.000000,-1,0.015585,-0.004439,0.002858,0.003490,0.005799,-0.000578
"2019-03-26 10:54:48.972 +0000",1553597688.972321,-1.548296,-1.339123,1.658071,-0.229548,0.973284,-0.005166,0.000000,0.000000,0.000000,-1,0.010544,0.006601,-0.004685,-0.000798,0.008330,-0.000922
"2019-03-26 10:54:48.995 +0000",1553597688.994629,-1.547235,-1.339131,1.658946,-0.229535,0.973285,-0.005409,0.000000,0.000000,0.000000,-1,0.006808,0.007853,0.001505,0.003354,0.003811,0.008644
"2019-03-26 10:54:49.017 +0000",1553597689.016907,-1.546616,-1.339156,1.659393,-0.229507,0.973291,-0.005551,0.000000,0.000000,0.000000,-1,0.001757,0.009153,0.001540,0.004547,0.001303,0.007855
"2019-03-26 10:54:49.039 +0000",1553597689.039213,-1.546695,-1.339892,1.659170,-0.228792,0.973460,-0.005515,0.000000,0.000000,0.000000,-1,-0.010809,0.005438,-0.003393,0.003297,0.005590,-0.002206
"2019-03-26 10:54:49.062 +0000",1553597689.061504,-1.547228,-1.339938,1.658291,-0.228749,0.973470,-0.005392,0.000000,0.000000,0.000000,-1,-0.013330,0.017719,-0.008465,0.004125,-0.002828,-0.001169
"2019-03-26 10:54:49.084 +0000",1553597689.083829,-1.548163,-1.339701,1.656875,-0.228985,0.973416,-0.005183,0.000000,0.000000,0.000000,-1,-0.013350,0.017700,-0.013427,0.002178,-0.003964,0.001903
"2019-03-26 10:54:49.106 +0000",1553597689.106108,-1.554193,-1.339469,1.650641,-0.229238,0.973363,-0.003807,0.000000,0.000000,0.000000,-1,-0.020885,0.014002,-0.014638,-0.000728,0.006648,0.009666
"2019-03-26 10:54:49.128 +0000",1553597689.128415,-1.556435,-1.339152,1.647674,-0.229554,0.973290,-0.003297,0.000000,0.000000,0.000000,-1,-0.029670,0.037351,-0.019811,-0.003753,0.002113,-0.001510
"2019-03-26 10:54:49.151 +0000",1553597689.150724,-1.557932,-1.338759,1.645259,-0.229941,0.973200,-0.002958,0.000000,0.000000,0.000000,-1,-0.017110,0.032455,-0.014800,-0.006005,0.000799,-0.000490
"2019-03-26 10:54:49.173 +0000",1553597689.173008,-1.556152,-1.337778,1.646329,-0.230891,0.972974,-0.003382,0.000000,0.000000,0.000000,-1,-0.013357,0.022611,-0.015953,-0.002584,0.000567,-0.009009
"2019-03-26 10:54:49.195 +0000",1553597689.195302,-1.554091,-1.337703,1.647828,-0.230956,0.972957,-0.003859,0.000000,0.000000,0.000000,-1,-0.012087,0.007949,-0.000891,0.002761,-0.000239,-0.013155
"2019-03-26 10:54:49.218 +0000",1553597689.217616,-1.554434,-1.337813,1.647941,-0.230850,0.972982,-0.003778,0.000000,0.000000,0.000000,-1,0.009220,-0.033856,0.001970,0.009979,0.005457,0.011331
"2019-03-26 10:54:49.240 +0000",1553597689.239924,-1.553326,-1.337784,1.649073,-0.230875,0.972975,-0.004034,0.000000,0.000000,0.000000,-1,0.010493,0.010419,-0.000903,0.012109,-0.001158,0.000845
"2019-03-26 10:54:49.262 +0000",1553597689.262202,-1.546471,-1.337059,1.655408,-0.231547,0.972807,-0.005634,0.000000,0.000000,0.000000,-1,0.018011,0.017789,-0.004688,-0.009908,-0.005583,0.009235
"2019-03-26 10:54:49.285 +0000",1553597689.284508,-1.544159,-1.336992,1.657679,-0.231598,0.972792,-0.006171,0.000000,0.000000,0.000000,-1,0.025529,-0.001885,-0.003270,-0.007171,-0.007490,0.008215
"2019-03-26 10:54:49.307 +0000",1553597689.306816,-1.542517,-1.336942,1.659437,-0.231636,0.972780,-0.006552,0.000000,0.000000,0.000000,-1,0.014253,-0.005565,0.000480,-0.003410,-0.000948,0.000037
"2019-03-26 10:54:49.329 +0000",1553597689.329101,-1.547442,-1.336848,1.654985,-0.231757,0.972759,-0.005413,0.000000,0.000000,0.000000,-1,0.006754,-0.022752,0.010553,-0.003198,0.007985,0.013714
"2019-03-26 10:54:49.351 +0000",1553597689.351402,-1.547271,-1.336948,1.655613,-0.231659,0.972782,-0.005451,0.000000,0.000000,0.000000,-1,0.007969,-0.021560,0.000619,0.002334,0.008724,0.014484
"2019-03-26 10:54:49.374 +0000",1553597689.373711,-1.547753,-1.336807,1.655417,-0.231799,0.972749,-0.005342,0.000000,0.000000,0.000000,-1,0.011657,-0.011726,-0.010596,-0.001264,0.004546,0.004610
"2019-03-26 10:54:49.396 +0000",1553597689.396009,-1.545449,-1.335562,1.657812,-0.232996,0.972460,-0.005907,0.000000,0.000000,0.000000,-1,0.004150,-0.006794,-0.006923,-0.005697,-0.009157,-0.003630
"2019-03-26 10:54:49.418 +0000",1553597689.418296,-1.546325,-1.335433,1.657146,-0.233127,0.972430,-0.005706,0.000000,0.000000,0.000000,-1,-0.007133,-0.014170,-0.004381,-0.004025,-0.004000,-0.000046
"2019-03-26 10:54:49.441 +0000",1553597689.440604,-1.546240,-1.335367,1.657657,-0.233190,0.972414,-0.005727,0.000000,0.000000,0.000000,-1,0.014185,-0.014166,-0.005613,0.005651,0.003217,0.012411
"2019-03-26 10:54:49.463 +0000",1553597689.462911,-1.543699,-1.335387,1.660330,-0.233155,0.972419,-0.006319,0.000000,0.000000,0.000000,-1,0.006678,-0.009234,-0.001938,0.001878,0.001626,-0.007368
"2019-03-26 10:54:49.485 +0000",1553597689.485198,-1.545352,-1.335904,1.658909,-0.232663,0.972539,-0.005921,0.000000,0.000000,0.000000,-1,0.005448,-0.003064,0.002970,0.006634,0.000102,0.007844
"2019-03-26 10:54:49.507 +0000",1553597689.507497,-1.544751,-1.336036,1.659718,-0.232531,0.972570,-0.006058,0.000000,0.000000,0.000000,-1,0.009236,-0.003039,0.009174,0.009341,0.004114,0.002472
"2019-03-26 10:54:49.530 +0000",1553597689.529805,-1.543102,-1.336215,1.661257,-0.232346,0.972612,-0.006436,0.000000,0.000000,0.000000,-1,0.019279,0.009267,0.009069,0.004273,0.008879,0.000714
"2019-03-26 10:54:49.552 +0000",1553597689.552106,-1.544503,-1.336835,1.660106,-0.231753,0.972756,-0.006095,0.000000,0.000000,0.000000,-1,0.016824,-0.015248,0.024105,0.001391,-0.001732,0.005301
"2019-03-26 10:54:49.574 +0000",1553597689.574390,-1.543314,-1.337190,1.661524,-0.231400,0.972838,-0.006361,0.000000,0.000000,0.000000,-1,0.015540,-0.005442,0.015334,0.007462,-0.000319,0.000868
"2019-03-26 10:54:49.597 +0000",1553597689.596699,-1.541735,-1.337382,1.663315,-0.231203,0.972882,-0.006721,0.000000,0.000000,0.000000,-1,0.019260,-0.010399,0.005455,0.008379,-0.001355,0.000297
"2019-03-26 10:54:49.619 +0000",1553597689.618989,-1.549644,-1.337141,1.656426,-0.231483,0.972826,-0.004897,0.000000,0.000000,0.000000,-1,0.012979,-0.034995,0.008151,-0.002312,-0.002657,0.013045
"2019-03-26 10:54:49.641 +0000",1553597689.641314,-1.548658,-1.337126,1.657854,-0.231493,0.972823,-0.005126,0.000000,0.000000,0.000000,-1,0.012944,-0.004294,-0.005768,0.000887,0.000520,0.000212
"2019-03-26 10:54:49.664 +0000",1553597689.663595,-1.548806,-1.336977,1.657998,-0.231639,0.972789,-0.005095,0.000000,0.000000,0.000000,-1,-0.008393,-0.031361,-0.004296,-0.005254,0.004125,-0.000810
"2019-03-26 10:54:49.686 +0000",1553597689.685900,-1.551062,-1.336981,1.656919,-0.231646,0.972789,-0.004572,0.000000,0.000000,0.000000,-1,-0.005892,-0.059643,-0.001563,-0.013563,0.003392,0.003870
"2019-03-26 10:54:49.708 +0000",1553597689.708209,-1.554322,-1.336472,1.654737,-0.232154,0.972671,-0.003825,0.000000,0.000000,0.000000,-1,-0.005897,-0.035060,-0.006744,-0.001611,0.002029,-0.000203
"2019-03-26 10:54:49.730 +0000",1553597689.730485,-1.556795,-1.336500,1.653060,-0.232136,0.972678,-0.003250,0.000000,0.000000,0.000000,-1,-0.013398,-0.041138,0.000689,0.005390,0.003763,-0.009445
"2019-03-26 10:54:49.753 +0000",1553597689.752792,-1.558003,-1.336535,1.652409,-0.232106,0.972686,-0.002970,0.000000,0.000000,0.000000,-1,-0.004590,-0.006686,0.001627,0.008778,0.005723,0.006983
"2019-03-26 10:54:49.775 +0000",1553597689.775105,-1.552706,-1.336837,1.657401,-0.231793,0.972756,-0.004194,0.000000,0.000000,0.000000,-1,-0.008359,0.012976,-0.003510,-0.000858,0.000999,-0.006777
"2019-03-26 10:54:49.797 +0000",1553597689.797409,-1.551480,-1.336577,1.658220,-0.232040,0.972696,-0.004483,0.000000,0.000000,0.000000,-1,-0.003328,0.016678,-0.001060,-0.002594,-0.001886,-0.004306
"2019-03-26 10:54:49.820 +0000",1553597689.819683,-1.551740,-1.336564,1.657718,-0.232054,0.972693,-0.004423,0.000000,0.000000,0.000000,-1,-0.005843,-0.000540,0.000332,0.003997,0.001337,-0.003237
"2019-03-26 10:54:49.842 +0000",1553597689.841980,-1.550496,-1.337223,1.658943,-0.231408,0.972846,-0.004698,0.000000,0.000000,0.000000,-1,0.005458,0.001935,0.002797,0.004632,0.001474,-0.000596
"2019-03-26 10:54:49.864 +0000",1553597689.864300,-1.550607,-1.337252,1.658807,-0.231380,0.972852,-0.004672,0.000000,0.000000,0.000000,-1,0.000436,-0.005448,0.002860,0.006069,-0.000806,-0.005734
"2019-03-26 10:54:49.887 +0000",1553597689.886585,-1.551277,-1.337471,1.658079,-0.231170,0.972903,-0.004513,0.000000,0.000000,0.000000,-1,-0.003326,0.011763,0.000225,0.003478,-0.000231,0.002331
"2019-03-26 10:54:49.909 +0000",1553597689.908885,-1.551757,-1.337423,1.657239,-0.231218,0.972892,-0.004403,0.000000,0.000000,0.000000,-1,-0.012126,0.011783,-0.003555,0.004885,0.002587,-0.005561
"2019-03-26 10:54:49.931 +0000",1553597689.931193,-1.552999,-1.337784,1.655931,-0.230873,0.972975,-0.004109,0.000000,0.000000,0.000000,-1,-0.000858,0.001933,-0.007184,0.003472,0.008226,0.002019
"2019-03-26 10:54:49.954 +0000",1553597689.953502,-1.554088,-1.337684,1.654872,-0.230975,0.972952,-0.003859,0.000000,0.000000,0.000000,-1,-0.010881,-0.002978,-0.003423,0.001742,0.001077,-0.000947
"2019-03-26 10:54:49.976 +0000",1553597689.975779,-1.555985,-1.337675,1.652792,-0.230990,0.972950,-0.003421,0.000000,0.000000,0.000000,-1,-0.023400,0.004417,0.001468,-0.001997,0.000530,-0.000393
"2019-03-26 10:54:49.998 +0000",1553597689.998085,-1.561252,-1.338701,1.647484,-0.230007,0.973187,-0.002195,0.000000,0.000000,0.000000,-1,-0.027167,0.006871,0.000205,0.008144,0.006824,0.003157
"2019-03-26 10:54:50.020 +0000",1553597690.020395,-1.561682,-1.338952,1.646702,-0.229763,0.973244,-0.002094,0.000000,0.000000,0.000000,-1,-0.015892,0.008091,-0.003522,0.004299,0.003868,-0.004665
"2019-03-26 10:54:50.043 +0000",1553597690.042703,-1.563269,-1.338872,1.645126,-0.229845,0.973226,-0.001730,0.000000,0.000000,0.000000,-1,-0.014637,0.001946,-0.002226,-0.001753,-0.006261,0.007254
"2019-03-26 10:54:50.065 +0000",1553597690.064980,-1.557831,-1.338927,1.649961,-0.229778,0.973239,-0.002979,0.000000,0.000000,0.000000,-1,-0.025924,0.024070,-0.006149,0.002239,0.003446,-0.011715
"2019-03-26 10:54:50.087 +0000",1553597690.087278,-1.558074,-1.339171,1.649099,-0.229541,0.973295,-0.002921,0.000000,0.000000,0.000000,-1,-0.023404,0.021658,-0.001206,0.003360,0.007083,-0.005853
"2019-03-26 10:54:50.110 +0000",1553597690.109596,-1.559264,-1.339246,1.647470,-0.229471,0.973312,-0.002646,0.000000,0.000000,0.000000,-1,-0.017108,0.013079,0.006316,0.008631,0.002121,0.007880
"2019-03-26 10:54:50.132 +0000",1553597690.131874,-1.560242,-1.339217,1.646047,-0.229502,0.973305,-0.002422,0.000000,0.000000,0.000000,-1,-0.014637,0.025338,-0.004957,0.006083,-0.000878,-0.002079
"2019-03-26 10:54:50.154 +0000",1553597690.154182,-1.562992,-1.338701,1.643038,-0.230010,0.973187,-0.001795,0.000000,0.000000,0.000000,-1,-0.008386,0.001964,-0.005988,-0.005021,-0.001003,0.005808
"2019-03-26 10:54:50.176 +0000",1553597690.176489,-1.564770,-1.338578,1.641279,-0.230132,0.973158,-0.001387,0.000000,0.000000,0.000000,-1,-0.017161,-0.005411,-0.003445,-0.008836,-0.000868,0.007017
"2019-03-26 10:54:50.199 +0000",1553597690.198796,-1.566551,-1.338333,1.639911,-0.230373,0.973102,-0.000978,0.000000,0.000000,0.000000,-1,-0.013441,-0.016514,-0.012029,-0.002476,0.003567,0.008287
"2019-03-26 10:54:50.221 +0000",1553597690.221084,-1.566608,-1.337711,1.639989,-0.230979,0.972958,-0.000968,0.000000,0.000000,0.000000,-1,-0.019694,-0.005436,-0.009649,-0.003000,0.001605,-0.002511
"2019-03-26 10:54:50.243 +0000",1553597690.243382,-1.568868,-1.337532,1.637784,-0.231154,0.972917,-0.000446,0.000000,0.000000,0.000000,-1,-0.023452,-0.005433,-0.008410,-0.002198,0.001067,0.006320
"2019-03-26 10:54:50.266 +0000",1553597690.265690,-1.572412,-1.337455,1.634341,-0.231229,0.972899,0.000374,0.000000,0.000000,0.000000,-1,-0.032213,-0.015214,0.001567,0.003294,0.005006,0.006935
"2019-03-26 10:54:50.288 +0000",1553597690.287976,-1.573990,-1.337580,1.633042,-0.231106,0.972928,0.000738,0.000000,0.000000,0.000000,-1,-0.013404,-0.010294,-0.000950,0.002072,0.000201,-0.001593
"2019-03-26 10:54:50.310 +0000",1553597690.310275,-1.570760,-1.337590,1.636047,-0.231099,0.972930,-0.000008,0.000000,0.000000,0.000000,-1,-0.015920,0.008138,-0.006077,0.002110,-0.000305,-0.006171
"2019-03-26 10:54:50.333 +0000",1553597690.332582,-1.572456,-1.337510,1.634208,-0.231176,0.972912,0.000384,0.000000,0.000000,0.000000,-1,-0.017157,0.003236,-0.001071,0.003103,0.002308,-0.000933
"2019-03-26 10:54:50.355 +0000",1553597690.354893,-1.573832,-1.337459,1.632826,-0.231225,0.972900,0.000702,0.000000,0.000000,0.000000,-1,-0.013403,-0.002918,-0.002256,0.003289,0.000458,0.009582
"2019-03-26 10:54:50.377 +0000",1553597690.377170,-1.580107,-1.338211,1.626573,-0.230484,0.973074,0.002146,0.000000,0.000000,0.000000,-1,-0.020933,0.009370,-0.004848,0.007080,-0.002706,0.008535
"2019-03-26 10:54:50.399 +0000",1553597690.399476,-1.582484,-1.338347,1.623866,-0.230346,0.973105,0.002692,0.000000,0.000000,0.000000,-1,-0.018407,0.020452,-0.002464,0.004318,0.002008,0.004205
"2019-03-26 10:54:50.422 +0000",1553597690.421783,-1.584550,-1.338340,1.621295,-0.230347,0.973103,0.003168,0.000000,0.000000,0.000000,-1,-0.025916,0.008172,0.003845,0.000428,0.005717,0.004248
"2019-03-26 10:54:50.444 +0000",1553597690.444075,-1.591539,-1.338673,1.614624,-0.229995,0.973180,0.004771,0.000000,0.000000,0.000000,-1,-0.024632,-0.026164,0.022726,0.002654,-0.000097,0.002065
"2019-03-26 10:54:50.466 +0000",1553597690.466369,-1.593534,-1.339355,1.612841,-0.229321,0.973337,0.005215,0.000000,0.000000,0.000000,-1,-0.018283,-0.001501,0.037396,0.003506,0.001517,-0.005276
"2019-03-26 10:54:50.489 +0000",1553597690.488669,-1.593922,-1.340215,1.611892,-0.228483,0.973534,0.005285,0.000000,0.000000,0.000000,-1,-0.005698,0.040342,0.040751,0.005995,-0.001686,-0.002630
"2019-03-26 10:54:50.511 +0000",1553597690.510960,-1.593229,-1.341197,1.611280,-0.227531,0.973758,0.005105,0.000000,0.000000,0.000000,-1,0.006851,0.056334,0.039374,0.002341,-0.003146,0.002570
"2019-03-26 10:54:50.533 +0000",1553597690.533263,-1.592093,-1.342002,1.611450,-0.226752,0.973941,0.004830,0.000000,0.000000,0.000000,-1,0.014378,0.041586,0.041989,-0.002587,0.004392,-0.000145
"2019-03-26 10:54:50.556 +0000",1553597690.555571,-1.588806,-1.342809,1.614244,-0.225981,0.974123,0.004070,0.000000,0.000000,0.000000,-1,0.030630,0.020642,0.032258,-0.002779,0.000486,-0.004025
"2019-03-26 10:54:50.578 +0000",1553597690.577879,-1.585756,-1.343344,1.616826,-0.225471,0.974244,0.003373,0.000000,0.000000,0.000000,-1,0.018022,0.023035,0.016104,-0.011772,-0.005616,0.006438
"2019-03-26 10:54:50.600 +0000",1553597690.600157,-1.586761,-1.341666,1.615586,-0.227102,0.973864,0.003626,0.000000,0.000000,0.000000,-1,0.005446,0.011935,0.009992,-0.017741,-0.004916,0.006857
"2019-03-26 10:54:50.622 +0000",1553597690.622465,-1.586878,-1.341878,1.615087,-0.226894,0.973913,0.003649,0.000000,0.000000,0.000000,-1,-0.002114,0.013177,0.007468,-0.016971,0.005076,0.011076
"2019-03-26 10:54:50.645 +0000",1553597690.644772,-1.587101,-1.341960,1.614563,-0.226814,0.973931,0.003698,0.000000,0.000000,0.000000,-1,-0.014680,0.018068,0.001216,-0.005058,0.004722,0.019419
"2019-03-26 10:54:50.667 +0000",1553597690.667081,-1.592336,-1.341719,1.608868,-0.227026,0.973876,0.004891,0.000000,0.000000,0.000000,-1,-0.018461,0.022968,-0.003791,-0.003580,0.000352,0.009620
"2019-03-26 10:54:50.689 +0000",1553597690.689356,-1.593306,-1.341501,1.607720,-0.227234,0.973827,0.005116,0.000000,0.000000,0.000000,-1,-0.010974,-0.006571,-0.008488,-0.008239,0.001637,0.016353
"2019-03-26 10:54:50.712 +0000",1553597690.711679,-1.595191,-1.340505,1.606270,-0.228193,0.973600,0.005568,0.000000,0.000000,0.000000,-1,-0.008485,-0.012735,-0.012155,-0.011599,-0.004880,0.001833
"2019-03-26 10:54:50.734 +0000",1553597690.733974,-1.595659,-1.340387,1.605763,-0.228305,0.973573,0.005677,0.000000,0.000000,0.000000,-1,-0.008448,0.005741,-0.006116,-0.006696,-0.007402,-0.000810
"2019-03-26 10:54:50.756 +0000",1553597690.756275,-1.599925,-1.340165,1.601534,-0.228495,0.973522,0.006658,0.000000,0.000000,0.000000,-1,-0.017201,-0.005300,0.002662,-0.002492,0.005589,0.007670
"2019-03-26 10:54:50.779 +0000",1553597690.778559,-1.601753,-1.340316,1.599806,-0.228335,0.973557,0.007071,0.000000,0.000000,0.000000,-1,-0.015930,-0.004055,0.006373,-0.000012,0.003784,0.013544
"2019-03-26 10:54:50.801 +0000",1553597690.800866,-1.603626,-1.340345,1.597784,-0.228294,0.973563,0.007498,0.000000,0.000000,0.000000,-1,-0.020977,0.009480,0.000023,0.007316,-0.004783,0.003824
"2019-03-26 10:54:50.823 +0000",1553597690.823169,-1.605138,-1.340804,1.595830,-0.227836,0.973668,0.007827,0.000000,0.000000,0.000000,-1,-0.033506,0.016865,0.002434,0.002143,0.005656,-0.001419
"2019-03-26 10:54:50.845 +0000",1553597690.845452,-1.607103,-1.341348,1.593432,-0.227291,0.973792,0.008256,0.000000,0.000000,0.000000,-1,-0.020945,0.011970,0.007445,0.005626,0.004983,-0.001069
"2019-03-26 10:54:50.868 +0000",1553597690.867760,-1.608716,-1.341540,1.591529,-0.227090,0.973836,0.008615,0.000000,0.000000,0.000000,-1,-0.024705,0.009512,0.008706,0.009241,0.003841,0.006537
"2019-03-26 10:54:50.890 +0000",1553597690.890049,-1.608436,-1.342620,1.591419,-0.226041,0.974081,0.008512,0.000000,0.000000,0.000000,-1,-0.000871,0.018129,0.007400,0.007016,-0.004095,0.003115
"2019-03-26 10:54:50.912 +0000",1553597690.912364,-1.608037,-1.342957,1.591744,-0.225716,0.974157,0.008410,0.000000,0.000000,0.000000,-1,0.010425,-0.001529,0.012542,0.002145,-0.002019,0.007200
"2019-03-26 10:54:50.935 +0000",1553597690.934653,-1.606667,-1.343201,1.593200,-0.225490,0.974212,0.008092,0.000000,0.000000,0.000000,-1,0.016687,-0.001536,0.010064,0.004787,0.002976,0.005443
"2019-03-26 10:54:50.957 +0000",1553597690.956961,-1.605846,-1.343322,1.594085,-0.225379,0.974239,0.007903,0.000000,0.000000,0.000000,-1,0.002859,-0.001571,0.002615,-0.000222,0.002140,-0.000624
"2019-03-26 10:54:50.979 +0000",1553597690.979268,-1.611335,-1.342813,1.589269,-0.225828,0.974124,0.009160,0.000000,0.000000,0.000000,-1,-0.005943,-0.019990,0.001514,-0.001177,0.002606,0.006984
"2019-03-26 10:54:51.002 +0000",1553597691.001546,-1.612559,-1.342727,1.588386,-0.225900,0.974105,0.009440,0.000000,0.000000,0.000000,-1,-0.005976,-0.031085,-0.004590,0.002222,-0.000563,-0.005106
"2019-03-26 10:54:51.024 +0000",1553597691.023855,-1.613753,-1.342432,1.587478,-0.226175,0.974038,0.009722,0.000000,0.000000,0.000000,-1,-0.008496,-0.017574,-0.009673,0.002009,0.002036,0.001890
"2019-03-26 10:54:51.046 +0000",1553597691.046163,-1.615305,-1.341955,1.586771,-0.226624,0.973930,0.010093,0.000000,0.000000,0.000000,-1,0.000267,-0.036027,-0.010747,-0.003188,0.002968,0.002541
"2019-03-26 10:54:51.068 +0000",1553597691.068470,-1.615674,-1.341797,1.586892,-0.226775,0.973894,0.010184,0.000000,0.000000,0.000000,-1,-0.003457,-0.015092,-0.004731,0.005843,-0.001436,-0.007315
"2019-03-26 10:54:51.091 +0000",1553597691.090748,-1.615287,-1.341665,1.587657,-0.226907,0.973864,0.010102,0.000000,0.000000,0.000000,-1,0.014095,-0.013864,-0.007216,0.004236,0.006391,-0.011796
"2019-03-26 10:54:51.113 +0000",1553597691.113063,-1.610777,-1.342757,1.592052,-0.225888,0.974111,0.009036,0.000000,0.000000,0.000000,-1,0.007855,0.003374,-0.002408,0.006710,0.000254,-0.008822
"2019-03-26 10:54:51.135 +0000",1553597691.135359,-1.609101,-1.343116,1.593597,-0.225553,0.974193,0.008644,0.000000,0.000000,0.000000,-1,0.006596,0.010745,-0.004955,0.006238,-0.001185,-0.001884
"2019-03-26 10:54:51.158 +0000",1553597691.157641,-1.608521,-1.342986,1.593868,-0.225684,0.974163,0.008518,0.000000,0.000000,0.000000,-1,0.004106,0.012018,-0.003741,0.005835,0.002781,-0.006656
"2019-03-26 10:54:51.180 +0000",1553597691.179948,-1.609154,-1.343026,1.592938,-0.225640,0.974172,0.008659,0.000000,0.000000,0.000000,-1,-0.009671,0.013262,0.001204,-0.001472,0.007456,0.005486
"2019-03-26 10:54:51.202 +0000",1553597691.202256,-1.610602,-1.343390,1.591293,-0.225273,0.974254,0.008972,0.000000,0.000000,0.000000,-1,-0.013415,0.003443,0.007492,0.002937,0.002613,0.003281
"2019-03-26 10:54:51.225 +0000",1553597691.224552,-1.611317,-1.343478,1.590383,-0.225180,0.974274,0.009129,0.000000,0.000000,0.000000,-1,-0.005906,0.009578,0.002479,0.005194,-0.001160,0.007411
"2019-03-26 10:54:51.247 +0000",1553597691.246842,-1.612920,-1.343762,1.588764,-0.224889,0.974338,0.009479,0.000000,0.000000,0.000000,-1,0.005359,-0.003963,-0.001117,0.004522,0.003598,0.007367
"2019-03-26 10:54:51.269 +0000",1553597691.269149,-1.615424,-1.343022,1.586918,-0.225585,0.974171,0.010074,0.000000,0.000000,0.000000,-1,0.006562,-0.043350,-0.006970,-0.005860,-0.001652,0.005551
"2019-03-26 10:54:51.291 +0000",1553597691.291457,-1.615255,-1.342778,1.587923,-0.225824,0.974116,0.010046,0.000000,0.000000,0.000000,-1,0.010311,-0.033527,-0.012018,-0.009832,0.000279,0.008951
"2019-03-26 10:54:51.314 +0000",1553597691.313736,-1.616365,-1.342617,1.587953,-0.225969,0.974080,0.010304,0.000000,0.000000,0.000000,-1,-0.004736,-0.056886,-0.006855,-0.004682,0.002589,0.003810
"2019-03-26 10:54:51.336 +0000",1553597691.336039,-1.623262,-1.342885,1.581955,-0.225632,0.974140,0.011849,0.000000,0.000000,0.000000,-1,-0.018533,-0.029835,-0.014568,0.004746,0.002987,0.009651
"2019-03-26 10:54:51.358 +0000",1553597691.358351,-1.625549,-1.342479,1.580375,-0.226000,0.974049,0.012387,0.000000,0.000000,0.000000,-1,-0.016040,-0.039685,-0.016960,0.002992,0.003597,0.010105
"2019-03-26 10:54:51.381 +0000",1553597691.380658,-1.627372,-1.342042,1.579518,-0.226402,0.973950,0.012823,0.000000,0.000000,0.000000,-1,-0.008518,-0.045832,-0.016903,-0.002068,0.001148,0.001597
"2019-03-26 10:54:51.403 +0000",1553597691.402936,-1.628345,-1.341630,1.579554,-0.226790,0.973856,0.013066,0.000000,0.000000,0.000000,-1,0.000238,-0.043392,-0.023123,0.000548,0.004919,-0.001469
"2019-03-26 10:54:51.425 +0000",1553597691.425244,-1.627805,-1.341647,1.581054,-0.226780,0.973860,0.012942,0.000000,0.000000,0.000000,-1,-0.002264,-0.042158,-0.021894,0.003651,0.001177,-0.005435
"2019-03-26 10:54:51.448 +0000",1553597691.447553,-1.629645,-1.340943,1.580053,-0.227441,0.973700,0.013400,0.000000,0.000000,0.000000,-1,-0.013615,-0.036074,-0.038080,0.000832,0.001001,-0.001300
"2019-03-26 10:54:51.470 +0000",1553597691.469829,-1.632730,-1.340180,1.578155,-0.228139,0.973526,0.014147,0.000000,0.000000,0.000000,-1,-0.017346,-0.080302,-0.022803,-0.001399,0.002243,0.003019
"2019-03-26 10:54:51.492 +0000",1553597691.492137,-1.643933,-1.339519,1.569028,-0.228609,0.973374,0.016750,0.000000,0.000000,0.000000,-1,-0.037424,-0.075400,-0.025336,0.002077,0.001327,0.013188
"2019-03-26 10:54:51.514 +0000",1553597691.514445,-1.651926,-1.339743,1.562430,-0.228249,0.973426,0.018559,0.000000,0.000000,0.000000,-1,-0.032388,-0.054459,-0.021739,0.009850,0.003594,-0.000141
"2019-03-26 10:54:51.537 +0000",1553597691.536754,-1.655134,-1.339293,1.559831,-0.228626,0.973323,0.019328,0.000000,0.000000,0.000000,-1,-0.024795,-0.013823,-0.012173,0.002750,0.004430,-0.006846
"2019-03-26 10:54:51.559 +0000",1553597691.559042,-1.652450,-1.339668,1.562531,-0.228312,0.973409,0.018684,0.000000,0.000000,0.000000,-1,0.001565,-0.002731,-0.009778,0.005488,-0.001576,-0.005516
"2019-03-26 10:54:51.581 +0000",1553597691.581339,-1.651493,-1.339596,1.563661,-0.228400,0.973392,0.018471,0.000000,0.000000,0.000000,-1,0.016653,-0.008837,0.000207,0.006827,-0.000888,-0.007363
"2019-03-26 10:54:51.604 +0000",1553597691.603645,-1.649837,-1.339675,1.565994,-0.228354,0.973410,0.018087,0.000000,0.000000,0.000000,-1,0.026679,-0.038346,0.002954,0.002463,-0.002036,-0.009359
"2019-03-26 10:54:51.626 +0000",1553597691.625938,-1.647718,-1.339793,1.568684,-0.228277,0.973437,0.017594,0.000000,0.000000,0.000000,-1,0.024190,-0.008824,0.002691,0.000494,-0.005069,-0.011368
"2019-03-26 10:54:51.648 +0000",1553597691.648231,-1.644172,-1.340344,1.572163,-0.227804,0.973563,0.016745,0.000000,0.000000,0.000000,-1,0.007885,0.001005,0.001357,0.003027,-0.000525,-0.000754
"2019-03-26 10:54:51.671 +0000",1553597691.670540,-1.643285,-1.340396,1.573072,-0.227767,0.973575,0.016540,0.000000,0.000000,0.000000,-1,0.011648,0.001007,0.001359,-0.004822,0.005810,0.012254
"2019-03-26 10:54:51.693 +0000",1553597691.692889,-1.642555,-1.340267,1.573820,-0.227905,0.973545,0.016382,0.000000,0.000000,0.000000,-1,0.009091,-0.001499,-0.010977,-0.007568,0.001232,0.003698
"2019-03-26 10:54:51.715 +0000",1553597691.715125,-1.640218,-1.338467,1.576030,-0.229691,0.973133,0.015971,0.000000,0.000000,0.000000,-1,-0.003442,0.005882,-0.009809,-0.012100,-0.005893,-0.001552
"2019-03-26 10:54:51.737 +0000",1553597691.737420,-1.643469,-1.337451,1.573153,-0.230623,0.972898,0.016790,0.000000,0.000000,0.000000,-1,0.007852,-0.030988,-0.002035,-0.004683,0.008181,0.008128
"2019-03-26 10:54:51.760 +0000",1553597691.759740,-1.642999,-1.337470,1.573909,-0.230613,0.972903,0.016680,0.000000,0.000000,0.000000,-1,0.006641,0.004704,0.002610,-0.001367,0.006757,-0.000231
"2019-03-26 10:54:51.782 +0000",1553597691.782017,-1.641139,-1.338136,1.575185,-0.229997,0.973056,0.016205,0.000000,0.000000,0.000000,-1,-0.000863,0.030538,0.003619,0.004976,-0.000934,-0.002488
"2019-03-26 10:54:51.804 +0000",1553597691.804327,-1.641506,-1.338265,1.574544,-0.229865,0.973086,0.016281,0.000000,0.000000,0.000000,-1,-0.010918,-0.000219,0.003887,0.001166,0.000455,-0.002365
"2019-03-26 10:54:51.827 +0000",1553597691.826634,-1.642759,-1.338261,1.573242,-0.229849,0.973085,0.016569,0.000000,0.000000,0.000000,-1,-0.012183,0.005917,0.000111,-0.003977,0.000685,0.004854
"2019-03-26 10:54:51.849 +0000",1553597691.848942,-1.642960,-1.338145,1.572795,-0.229959,0.973059,0.016623,0.000000,0.000000,0.000000,-1,-0.004665,0.009601,-0.002400,-0.004294,0.000620,0.001382
"2019-03-26 10:54:51.871 +0000",1553597691.871219,-1.644741,-1.337453,1.570875,-0.230600,0.972899,0.017083,0.000000,0.000000,0.000000,-1,-0.015943,0.003447,-0.002310,-0.002463,-0.002135,-0.002602
"2019-03-26 10:54:51.894 +0000",1553597691.893528,-1.645770,-1.337449,1.569941,-0.230585,0.972898,0.017320,0.000000,0.000000,0.000000,-1,-0.005905,-0.006380,0.000262,-0.002905,0.004183,0.000242
"2019-03-26 10:54:51.916 +0000",1553597691.915836,-1.644973,-1.337377,1.570999,-0.230669,0.972881,0.017142,0.000000,0.000000,0.000000,-1,0.016639,-0.005174,-0.008423,-0.005476,0.005268,0.016717
"2019-03-26 10:54:51.938 +0000",1553597691.938142,-1.641430,-1.336477,1.574661,-0.231602,0.972673,0.016386,0.000000,0.000000,0.000000,-1,0.011650,-0.008837,-0.000950,-0.006526,-0.003175,-0.005720
"2019-03-26 10:54:51.960 +0000",1553597691.960419,-1.637770,-1.336083,1.578318,-0.232044,0.972581,0.015564,0.000000,0.000000,0.000000,-1,0.002887,0.001010,0.001439,-0.002133,-0.000535,-0.005066
"2019-03-26 10:54:51.983 +0000",1553597691.982728,-1.637162,-1.336092,1.578743,-0.232044,0.972583,0.015422,0.000000,0.000000,0.000000,-1,0.005399,0.013307,0.000091,0.005695,0.006360,0.005574
"2019-03-26 10:54:52.005 +0000",1553597692.005025,-1.636550,-1.336537,1.579044,-0.231621,0.972687,0.015252,0.000000,0.000000,0.000000,-1,-0.003381,0.014534,0.000077,0.001640,0.003952,-0.002206
"2019-03-26 10:54:52.027 +0000",1553597692.027313,-1.636095,-1.336505,1.579149,-0.231658,0.972679,0.015149,0.000000,0.000000,0.000000,-1,-0.000866,0.015770,0.001307,0.002181,0.003197,0.004154
"2019-03-26 10:54:52.050 +0000",1553597692.049622,-1.636094,-1.336501,1.579007,-0.231663,0.972678,0.015149,0.000000,0.000000,0.000000,-1,0.002902,0.005927,-0.001049,-0.002468,-0.000327,0.003635
"2019-03-26 10:54:52.072 +0000",1553597692.071929,-1.636059,-1.336516,1.579162,-0.231648,0.972682,0.015139,0.000000,0.000000,0.000000,-1,0.009179,-0.010048,0.002817,-0.003490,0.002431,0.005139
"2019-03-26 10:54:52.094 +0000",1553597692.094237,-1.636373,-1.337076,1.578843,-0.231101,0.972812,0.015177,0.000000,0.000000,0.000000,-1,0.020462,0.012080,-0.002336,0.003607,0.001996,0.001120
"2019-03-26 10:54:52.117 +0000",1553597692.116513,-1.633602,-1.336900,1.581317,-0.231312,0.972771,0.014547,0.000000,0.000000,0.000000,-1,0.024187,0.024340,-0.013608,0.001103,0.001304,-0.003835
"2019-03-26 10:54:52.139 +0000",1553597692.138822,-1.631529,-1.336788,1.583016,-0.231451,0.972745,0.014074,0.000000,0.000000,0.000000,-1,0.019197,0.012070,-0.004817,-0.004267,0.000186,-0.000372
"2019-03-26 10:54:52.161 +0000",1553597692.161118,-1.635398,-1.337040,1.579294,-0.231150,0.972803,0.014953,0.000000,0.000000,0.000000,-1,0.007984,-0.024742,0.020316,0.001551,0.005148,0.011337
"2019-03-26 10:54:52.183 +0000",1553597692.183408,-1.633580,-1.337309,1.581772,-0.230916,0.972866,0.014517,0.000000,0.000000,0.000000,-1,0.031767,-0.008798,0.005298,0.007252,0.004841,0.012049
"2019-03-26 10:54:52.206 +0000",1553597692.205715,-1.631424,-1.337432,1.583809,-0.230827,0.972894,0.014012,0.000000,0.000000,0.000000,-1,0.015467,0.009642,0.003886,0.019386,-0.008981,-0.025196
"2019-03-26 10:54:52.228 +0000",1553597692.228010,-1.635807,-1.337887,1.579591,-0.230322,0.972999,0.014995,0.000000,0.000000,0.000000,-1,0.011735,-0.003853,0.006527,0.003836,0.008248,0.009633
"2019-03-26 10:54:52.250 +0000",1553597692.250331,-1.634111,-1.338006,1.581211,-0.230231,0.973027,0.014597,0.000000,0.000000,0.000000,-1,0.018009,0.008446,0.005180,0.002219,0.011287,0.004813
"2019-03-26 10:54:52.273 +0000",1553597692.272609,-1.632737,-1.338254,1.582556,-0.230011,0.973084,0.014265,0.000000,0.000000,0.000000,-1,0.011755,-0.003834,0.011489,0.004059,0.005951,-0.001494
"2019-03-26 10:54:52.295 +0000",1553597692.294917,-1.632567,-1.338458,1.582819,-0.229814,0.973131,0.014214,0.000000,0.000000,0.000000,-1,0.004232,-0.006292,0.012748,0.003221,0.000960,-0.008736
"2019-03-26 10:54:52.317 +0000",1553597692.317225,-1.632975,-1.339123,1.582639,-0.229163,0.973284,0.014267,0.000000,0.000000,0.000000,-1,0.002980,-0.002602,0.012715,0.001471,0.005247,0.001800
"2019-03-26 10:54:52.340 +0000",1553597692.339502,-1.631921,-1.339358,1.583325,-0.228950,0.973337,0.014012,0.000000,0.000000,0.000000,-1,0.009263,0.030604,0.009942,0.004203,0.002966,-0.002324
"2019-03-26 10:54:52.362 +0000",1553597692.361811,-1.630219,-1.339634,1.584582,-0.228705,0.973401,0.013606,0.000000,0.000000,0.000000,-1,0.011754,0.010918,0.008877,0.007651,0.004428,0.004277
"2019-03-26 10:54:52.384 +0000",1553597692.384118,-1.629493,-1.340202,1.585509,-0.228162,0.973531,0.013408,0.000000,0.000000,0.000000,-1,0.007956,-0.035832,0.008050,-0.000949,0.001460,-0.001430
"2019-03-26 10:54:52.406 +0000",1553597692.406426,-1.629775,-1.340325,1.586625,-0.228039,0.973559,0.013465,0.000000,0.000000,0.000000,-1,0.009248,-0.071476,0.002117,-0.007908,0.002027,0.004632
"2019-03-26 10:54:52.429 +0000",1553597692.428703,-1.630570,-1.340360,1.587306,-0.227994,0.973567,0.013644,0.000000,0.000000,0.000000,-1,0.001721,-0.056728,-0.000498,-0.009829,-0.000468,-0.006045
"2019-03-26 10:54:52.451 +0000",1553597692.450997,-1.634926,-1.340176,1.583342,-0.228111,0.973525,0.014649,0.000000,0.000000,0.000000,-1,-0.018317,-0.000156,-0.002249,0.001579,0.004686,0.011627
"2019-03-26 10:54:52.473 +0000",1553597692.473319,-1.635800,-1.340221,1.583194,-0.228055,0.973535,0.014845,0.000000,0.000000,0.000000,-1,0.006752,-0.043190,0.000625,0.007001,0.008994,0.020998
"2019-03-26 10:54:52.496 +0000",1553597692.495597,-1.636529,-1.340165,1.583562,-0.228098,0.973522,0.015015,0.000000,0.000000,0.000000,-1,0.004221,-0.046900,-0.004306,0.005213,0.003269,-0.008729
"2019-03-26 10:54:52.518 +0000",1553597692.517905,-1.637844,-1.340050,1.583272,-0.228190,0.973496,0.015322,0.000000,0.000000,0.000000,-1,-0.013340,-0.038302,-0.005630,-0.002935,-0.002900,-0.013812
"2019-03-26 10:54:52.540 +0000",1553597692.540213,-1.639972,-1.340224,1.581379,-0.227988,0.973536,0.015796,0.000000,0.000000,0.000000,-1,-0.019578,-0.009997,-0.002162,0.003852,-0.002726,-0.001957
"2019-03-26 10:54:52.563 +0000",1553597692.562512,-1.640047,-1.340402,1.581212,-0.227814,0.973576,0.015802,0.000000,0.000000,0.000000,-1,-0.009544,0.012135,-0.006076,0.002854,0.003490,-0.002816
"2019-03-26 10:54:52.585 +0000",1553597692.584798,-1.641524,-1.340219,1.579233,-0.227969,0.973535,0.016151,0.000000,0.000000,0.000000,-1,-0.023255,0.017118,-0.004919,0.002703,0.004142,-0.004935
"2019-03-26 10:54:52.607 +0000",1553597692.607120,-1.642490,-1.341324,1.577567,-0.226880,0.973786,0.016294,0.000000,0.000000,0.000000,-1,-0.014459,0.040494,-0.005121,0.008206,0.003020,-0.001371
"2019-03-26 10:54:52.629 +0000",1553597692.629412,-1.642701,-1.341290,1.576281,-0.226908,0.973779,0.016344,0.000000,0.000000,0.000000,-1,-0.010680,0.050346,-0.002726,0.006312,0.003745,-0.006212
"2019-03-26 10:54:52.652 +0000",1553597692.651690,-1.643061,-1.341286,1.574434,-0.226906,0.973778,0.016426,0.000000,0.000000,0.000000,-1,-0.020685,0.072498,0.000794,0.007409,0.003959,-0.000343
"2019-03-26 10:54:52.674 +0000",1553597692.674005,-1.649324,-1.342954,1.566647,-0.225181,0.974156,0.017719,0.000000,0.000000,0.000000,-1,-0.019383,0.070086,0.013224,0.009482,0.000087,0.008343
"2019-03-26 10:54:52.696 +0000",1553597692.696306,-1.650141,-1.343412,1.564660,-0.224721,0.974259,0.017868,0.000000,0.000000,0.000000,-1,-0.013086,0.038149,0.024675,0.000096,0.003722,0.001907
"2019-03-26 10:54:52.719 +0000",1553597692.718615,-1.650320,-1.343840,1.563829,-0.224301,0.974356,0.017875,0.000000,0.000000,0.000000,-1,-0.005600,0.015986,0.018672,-0.012668,0.000940,0.004723
"2019-03-26 10:54:52.741 +0000",1553597692.740892,-1.649946,-1.344330,1.564190,-0.223832,0.974466,0.017753,0.000000,0.000000,0.000000,-1,0.010700,0.004922,0.018777,-0.022628,-0.000223,-0.002098
"2019-03-26 10:54:52.763 +0000",1553597692.763212,-1.650677,-1.341165,1.563526,-0.226893,0.973750,0.018163,0.000000,0.000000,0.000000,-1,0.015701,-0.006193,0.000242,-0.019018,-0.005229,0.003215
"2019-03-26 10:54:52.786 +0000",1553597692.785509,-1.650940,-1.341158,1.563807,-0.226894,0.973749,0.018223,0.000000,0.000000,0.000000,-1,-0.003134,-0.029578,-0.000799,-0.019672,-0.010477,0.003231
"2019-03-26 10:54:52.808 +0000",1553597692.807785,-1.653315,-1.341033,1.561603,-0.226972,0.973720,0.018772,0.000000,0.000000,0.000000,-1,-0.037010,-0.003784,-0.007245,-0.015460,-0.005062,-0.000355
"2019-03-26 10:54:52.830 +0000",1553597692.830108,-1.654814,-1.340778,1.559588,-0.227191,0.973662,0.019133,0.000000,0.000000,0.000000,-1,-0.045770,0.018360,-0.006205,-0.000348,0.004701,-0.007201
"2019-03-26 10:54:52.852 +0000",1553597692.852401,-1.656324,-1.340493,1.557969,-0.227438,0.973597,0.019500,0.000000,0.000000,0.000000,-1,0.000597,-0.002561,-0.013443,0.001776,0.007436,-0.002990
"2019-03-26 10:54:52.875 +0000",1553597692.874709,-1.655823,-1.340206,1.558627,-0.227727,0.973532,0.019410,0.000000,0.000000,0.000000,-1,0.010632,-0.009933,-0.012132,0.001637,-0.004980,-0.005066
"2019-03-26 10:54:52.897 +0000",1553597692.897008,-1.655060,-1.339278,1.560653,-0.228642,0.973319,0.019312,0.000000,0.000000,0.000000,-1,0.034482,-0.068915,0.002046,-0.011715,-0.002082,0.002844
"2019-03-26 10:54:52.919 +0000",1553597692.919287,-1.653812,-1.338148,1.563773,-0.229761,0.973059,0.019118,0.000000,0.000000,0.000000,-1,0.060847,-0.077486,0.009576,-0.008642,0.000482,0.001604
"2019-03-26 10:54:52.942 +0000",1553597692.941603,-1.651168,-1.338563,1.568475,-0.229408,0.973155,0.018478,0.000000,0.000000,0.000000,-1,0.045870,-0.097053,0.022128,0.000893,-0.012477,0.002106
"2019-03-26 10:54:52.964 +0000",1553597692.963880,-1.649704,-1.338829,1.572472,-0.229178,0.973216,0.018121,0.000000,0.000000,0.000000,-1,0.035735,-0.118050,0.001221,0.001593,-0.010280,0.007345
"2019-03-26 10:54:52.986 +0000",1553597692.986199,-1.658171,-1.336630,1.567860,-0.231147,0.972708,0.020248,0.000000,0.000000,0.000000,-1,0.033155,-0.178356,-0.005690,-0.020730,-0.003622,0.008240
"2019-03-26 10:54:53.008 +0000",1553597693.008496,-1.659633,-1.336370,1.570519,-0.231369,0.972648,0.020608,0.000000,0.000000,0.000000,-1,0.019318,-0.175940,-0.015642,-0.015900,-0.001853,0.002768
"2019-03-26 10:54:53.031 +0000",1553597693.030803,-1.661728,-1.335971,1.571991,-0.231712,0.972555,0.021128,0.000000,0.000000,0.000000,-1,0.013034,-0.147679,-0.023339,-0.008645,0.001978,-0.012400
"2019-03-26 10:54:53.053 +0000",1553597693.053078,-1.657583,-1.337465,1.578800,-0.230350,0.972901,0.020042,0.000000,0.000000,0.000000,-1,-0.000683,-0.111958,-0.010014,0.013095,0.011901,-0.014808
"2019-03-26 10:54:53.075 +0000",1553597693.075389,-1.659765,-1.337463,1.578679,-0.230307,0.972901,0.020544,0.000000,0.000000,0.000000,-1,0.000655,-0.077457,0.004567,0.020819,0.012756,-0.014883
"2019-03-26 10:54:53.098 +0000",1553597693.097696,-1.657625,-1.339517,1.581764,-0.228359,0.973374,0.019878,0.000000,0.000000,0.000000,-1,0.020740,-0.038094,0.001747,0.028484,0.012176,-0.010143
"2019-03-26 10:54:53.120 +0000",1553597693.119974,-1.655778,-1.339692,1.583948,-0.228227,0.973414,0.019442,0.000000,0.000000,0.000000,-1,0.020836,0.001361,0.006340,0.031541,0.006658,-0.024523
"2019-03-26 10:54:53.142 +0000",1553597693.142281,-1.645626,-1.341537,1.593550,-0.226620,0.973835,0.016990,0.000000,0.000000,0.000000,-1,0.018397,0.027241,0.018517,0.022198,-0.001759,-0.032782
"2019-03-26 10:54:53.165 +0000",1553597693.164589,-1.643550,-1.341906,1.594994,-0.226297,0.973919,0.016493,0.000000,0.000000,0.000000,-1,0.014644,0.034625,0.019690,0.028940,0.007191,-0.010451
"2019-03-26 10:54:53.187 +0000",1553597693.186893,-1.641305,-1.342396,1.596408,-0.225857,0.974030,0.015951,0.000000,0.000000,0.000000,-1,0.022180,0.034638,0.022174,0.022351,0.009887,0.003443
"2019-03-26 10:54:53.209 +0000",1553597693.209175,-1.638389,-1.345236,1.598450,-0.223141,0.974669,0.015106,0.000000,0.000000,0.000000,-1,0.029688,0.045688,0.015879,0.011990,0.003755,-0.004135
"2019-03-26 10:54:53.231 +0000",1553597693.231476,-1.635242,-1.345500,1.600712,-0.222931,0.974728,0.014387,0.000000,0.000000,0.000000,-1,0.019629,0.039514,0.010968,0.004456,0.000507,-0.004164
"2019-03-26 10:54:53.254 +0000",1553597693.253786,-1.632983,-1.345878,1.602195,-0.222596,0.974812,0.013860,0.000000,0.000000,0.000000,-1,0.014614,0.034597,0.012250,-0.002548,-0.000050,0.008539
"2019-03-26 10:54:53.276 +0000",1553597693.276080,-1.637399,-1.345926,1.597457,-0.222486,0.974823,0.014840,0.000000,0.000000,0.000000,-1,0.014581,0.024732,0.006134,-0.002978,0.004364,0.011725
"2019-03-26 10:54:53.298 +0000",1553597693.298376,-1.636224,-1.346040,1.598140,-0.222392,0.974848,0.014571,0.000000,0.000000,0.000000,-1,0.023367,0.022278,-0.002543,0.000544,0.002034,0.006287
"2019-03-26 10:54:53.321 +0000",1553597693.320685,-1.632993,-1.345970,1.601036,-0.222506,0.974833,0.013857,0.000000,0.000000,0.000000,-1,0.030881,0.019811,-0.004999,-0.009580,-0.004343,0.008833
"2019-03-26 10:54:53.343 +0000",1553597693.342993,-1.629209,-1.345903,1.604401,-0.222622,0.974818,0.013019,0.000000,0.000000,0.000000,-1,0.034643,0.018583,-0.004986,-0.010471,-0.009181,-0.001544
"2019-03-26 10:54:53.365 +0000",1553597693.365270,-1.625939,-1.345106,1.607330,-0.223439,0.974640,0.012333,0.000000,0.000000,0.000000,-1,0.023357,0.023499,-0.005035,-0.005946,0.005814,0.001491
"2019-03-26 10:54:53.388 +0000",1553597693.387585,-1.623158,-1.345009,1.609556,-0.223567,0.974618,0.011717,0.000000,0.000000,0.000000,-1,0.009609,0.021081,0.007385,-0.003026,-0.000558,-0.002989
"2019-03-26 10:54:53.410 +0000",1553597693.409885,-1.622584,-1.345389,1.610648,-0.223204,0.974703,0.011570,0.000000,0.000000,0.000000,-1,0.015858,-0.044094,0.012929,0.000807,-0.006579,0.004910
"2019-03-26 10:54:53.432 +0000",1553597693.432194,-1.624701,-1.347157,1.608729,-0.221457,0.975097,0.011949,0.000000,0.000000,0.000000,-1,0.029636,0.019820,-0.002517,0.018439,-0.001312,-0.002046
"2019-03-26 10:54:53.454 +0000",1553597693.454471,-1.621167,-1.347139,1.611247,-0.221516,0.975093,0.011167,0.000000,0.000000,0.000000,-1,0.023406,0.053050,0.002147,0.002782,-0.002009,-0.016584
"2019-03-26 10:54:53.477 +0000",1553597693.476779,-1.617052,-1.347298,1.614427,-0.221405,0.975128,0.010249,0.000000,0.000000,0.000000,-1,0.035988,0.037146,0.004757,-0.007492,-0.006180,0.008916
"2019-03-26 10:54:53.499 +0000",1553597693.499069,-1.616226,-1.346877,1.614795,-0.221823,0.975035,0.010084,0.000000,0.000000,0.000000,-1,0.035952,0.022361,-0.001315,-0.007104,0.018145,0.002642
"2019-03-26 10:54:53.521 +0000",1553597693.521364,-1.612020,-1.346498,1.618525,-0.222234,0.974950,0.009166,0.000000,0.000000,0.000000,-1,0.025921,0.027277,-0.001363,-0.010036,0.014536,-0.001903
"2019-03-26 10:54:53.544 +0000",1553597693.543673,-1.609715,-1.346451,1.620034,-0.222300,0.974940,0.008656,0.000000,0.000000,0.000000,-1,0.004605,0.040799,-0.001493,-0.003134,-0.002696,-0.012638
"2019-03-26 10:54:53.566 +0000",1553597693.565980,-1.608567,-1.346446,1.620214,-0.222314,0.974939,0.008401,0.000000,0.000000,0.000000,-1,0.004609,0.046950,-0.001547,0.011102,-0.004327,-0.002770
"2019-03-26 10:54:53.588 +0000",1553597693.588279,-1.613612,-1.347208,1.614702,-0.221527,0.975108,0.009491,0.000000,0.000000,0.000000,-1,0.008332,0.010033,-0.004939,0.003082,0.008855,0.013840
"2019-03-26 10:54:53.611 +0000",1553597693.610565,-1.612481,-1.347246,1.616102,-0.221500,0.975116,0.009238,0.000000,0.000000,0.000000,-1,0.017119,-0.026838,0.002836,-0.008740,0.007900,0.005257
"2019-03-26 10:54:53.633 +0000",1553597693.632873,-1.611537,-1.347242,1.617762,-0.221513,0.975116,0.009030,0.000000,0.000000,0.000000,-1,0.019622,-0.012090,-0.001016,-0.003997,-0.004153,0.000080
"2019-03-26 10:54:53.655 +0000",1553597693.655182,-1.605782,-1.346643,1.623504,-0.222145,0.974983,0.007775,0.000000,0.000000,0.000000,-1,0.007109,0.000268,-0.004872,-0.003807,-0.006248,-0.008019
"2019-03-26 10:54:53.677 +0000",1553597693.677460,-1.604550,-1.346355,1.624841,-0.222436,0.974918,0.007511,0.000000,0.000000,0.000000,-1,0.000852,-0.008326,0.000164,-0.003440,-0.000324,-0.001850
"2019-03-26 10:54:53.700 +0000",1553597693.699766,-1.603808,-1.346165,1.625393,-0.222626,0.974876,0.007352,0.000000,0.000000,0.000000,-1,0.004587,0.018695,-0.011239,0.002319,-0.001457,0.006961
"2019-03-26 10:54:53.722 +0000",1553597693.722078,-1.599347,-1.344401,1.629505,-0.224374,0.974482,0.006408,0.000000,0.000000,0.000000,-1,0.002065,0.003929,-0.012352,-0.013922,-0.003077,-0.003936
"2019-03-26 10:54:53.744 +0000",1553597693.744383,-1.599857,-1.344186,1.629054,-0.224580,0.974434,0.006528,0.000000,0.000000,0.000000,-1,-0.009202,-0.000973,-0.006110,-0.009932,0.000481,-0.009809
"2019-03-26 10:54:53.767 +0000",1553597693.766659,-1.600775,-1.343974,1.628043,-0.224782,0.974386,0.006741,0.000000,0.000000,0.000000,-1,-0.010464,0.003938,-0.008636,-0.001369,0.005900,-0.013561
"2019-03-26 10:54:53.789 +0000",1553597693.788967,-1.601248,-1.343824,1.627368,-0.224924,0.974352,0.006852,0.000000,0.000000,0.000000,-1,-0.002923,0.011331,-0.006217,0.000330,0.007383,-0.006806
"2019-03-26 10:54:53.811 +0000",1553597693.811275,-1.590816,-1.344029,1.637341,-0.224784,0.974398,0.004501,0.000000,0.000000,0.000000,-1,0.008393,0.008901,0.000012,-0.000115,-0.001528,-0.012847
"2019-03-26 10:54:53.834 +0000",1553597693.833553,-1.589262,-1.344124,1.638666,-0.224698,0.974420,0.004150,0.000000,0.000000,0.000000,-1,0.019719,0.004128,0.003763,0.001065,0.000434,-0.017364
"2019-03-26 10:54:53.856 +0000",1553597693.855861,-1.587076,-1.344211,1.640928,-0.224622,0.974439,0.003657,0.000000,0.000000,0.000000,-1,0.015952,-0.002025,0.003816,0.001111,0.001070,0.000264
"2019-03-26 10:54:53.878 +0000",1553597693.878170,-1.584587,-1.343979,1.643589,-0.224856,0.974387,0.003101,0.000000,0.000000,0.000000,-1,0.018459,-0.013089,0.005155,-0.001188,-0.002936,-0.001835
"2019-03-26 10:54:53.900 +0000",1553597693.900476,-1.583656,-1.343719,1.645055,-0.225112,0.974329,0.002895,0.000000,0.000000,0.000000,-1,0.013411,-0.036478,0.001639,-0.007905,-0.004449,0.001072
"2019-03-26 10:54:53.923 +0000",1553597693.922754,-1.584324,-1.343385,1.645373,-0.225435,0.974253,0.003050,0.000000,0.000000,0.000000,-1,0.008370,-0.041420,-0.003282,-0.005796,-0.002024,0.002138
"2019-03-26 10:54:53.945 +0000",1553597693.945053,-1.588262,-1.342934,1.642528,-0.225861,0.974151,0.003945,0.000000,0.000000,0.000000,-1,0.019663,-0.050016,-0.000720,-0.004409,-0.000900,0.007224
"2019-03-26 10:54:53.967 +0000",1553597693.967370,-1.587317,-1.342858,1.644721,-0.225939,0.974134,0.003733,0.000000,0.000000,0.000000,-1,0.014627,-0.054953,-0.004400,-0.004881,-0.001020,0.000509
"2019-03-26 10:54:53.990 +0000",1553597693.989646,-1.588549,-1.342842,1.645207,-0.225950,0.974131,0.004012,0.000000,0.000000,0.000000,-1,0.004585,-0.089386,-0.000377,-0.009600,0.001532,0.001039
"2019-03-26 10:54:54.012 +0000",1553597694.011956,-1.589756,-1.342737,1.645822,-0.226047,0.974107,0.004286,0.000000,0.000000,0.000000,-1,0.004588,-0.069589,-0.004293,-0.008771,0.003234,0.012803
"2019-03-26 10:54:54.034 +0000",1553597694.034269,-1.586540,-1.341661,1.650313,-0.227107,0.973863,0.003576,0.000000,0.000000,0.000000,-1,-0.016763,-0.058560,-0.013085,-0.005910,-0.001543,-0.007085
"2019-03-26 10:54:54.057 +0000",1553597694.056570,-1.589668,-1.341287,1.648541,-0.227459,0.973778,0.004293,0.000000,0.000000,0.000000,-1,-0.018050,-0.078261,-0.017873,-0.005420,-0.000481,-0.002340
"2019-03-26 10:54:54.079 +0000",1553597694.078848,-1.593058,-1.340734,1.646791,-0.227982,0.973652,0.005076,0.000000,0.000000,0.000000,-1,-0.020603,-0.061094,-0.031673,-0.005585,0.007991,0.009176
"2019-03-26 10:54:54.101 +0000",1553597694.101165,-1.588387,-1.341304,1.652224,-0.227448,0.973782,0.004001,0.000000,0.000000,0.000000,-1,-0.028037,-0.038882,-0.013264,0.007783,0.004368,-0.013492
"2019-03-26 10:54:54.123 +0000",1553597694.123464,-1.592207,-1.341031,1.648824,-0.227697,0.973720,0.004876,0.000000,0.000000,0.000000,-1,-0.036761,-0.006869,-0.004868,0.011999,0.002599,-0.014931
"2019-03-26 10:54:54.146 +0000",1553597694.145741,-1.595953,-1.340824,1.644939,-0.227879,0.973673,0.005734,0.000000,0.000000,0.000000,-1,-0.040543,0.002946,-0.011159,0.018314,0.006338,-0.011395
"2019-03-26 10:54:54.168 +0000",1553597694.168039,-1.593161,-1.341182,1.647251,-0.227545,0.973754,0.005090,0.000000,0.000000,0.000000,-1,-0.035565,0.017662,-0.023692,0.002631,0.011735,-0.012094
"2019-03-26 10:54:54.190 +0000",1553597694.190359,-1.596652,-1.340782,1.642647,-0.227916,0.973663,0.005894,0.000000,0.000000,0.000000,-1,-0.050557,0.059676,-0.011690,0.003047,0.011460,-0.019215
"2019-03-26 10:54:54.213 +0000",1553597694.212665,-1.599341,-1.340605,1.638461,-0.228071,0.973623,0.006512,0.000000,0.000000,0.000000,-1,-0.037989,0.065851,-0.006777,0.024946,0.013148,-0.006649
"2019-03-26 10:54:54.235 +0000",1553597694.234956,-1.600512,-1.343486,1.635525,-0.225258,0.974276,0.006696,0.000000,0.000000,0.000000,-1,-0.024177,0.080624,-0.005658,0.043969,0.001218,-0.001752
"2019-03-26 10:54:54.257 +0000",1553597694.257251,-1.601777,-1.345398,1.632729,-0.223387,0.974705,0.006923,0.000000,0.000000,0.000000,-1,-0.015389,0.052359,0.000801,0.030577,0.000545,0.002064
"2019-03-26 10:54:54.280 +0000",1553597694.279558,-1.601716,-1.345691,1.632001,-0.223102,0.974771,0.006900,0.000000,0.000000,0.000000,-1,-0.001551,0.029045,0.014660,0.010913,-0.004129,0.005658
"2019-03-26 10:54:54.302 +0000",1553597694.301844,-1.601153,-1.346173,1.632096,-0.222637,0.974878,0.006761,0.000000,0.000000,0.000000,-1,-0.004025,0.013096,0.025965,0.000728,-0.006723,0.018355
"2019-03-26 10:54:54.324 +0000",1553597694.324144,-1.610426,-1.345425,1.623243,-0.223293,0.974711,0.008854,0.000000,0.000000,0.000000,-1,-0.006627,-0.027561,0.010197,-0.018636,-0.011165,0.030880
"2019-03-26 10:54:54.346 +0000",1553597694.346451,-1.611646,-1.345317,1.622314,-0.223388,0.974687,0.009130,0.000000,0.000000,0.000000,-1,-0.010478,-0.006747,-0.014800,-0.020860,-0.005678,0.032099
"2019-03-26 10:54:54.369 +0000",1553597694.368760,-1.613510,-1.344783,1.620237,-0.223889,0.974568,0.009569,0.000000,0.000000,0.000000,-1,-0.026852,0.013005,-0.026169,-0.032504,0.010845,0.016920
"2019-03-26 10:54:54.391 +0000",1553597694.391049,-1.618203,-1.343351,1.615238,-0.225236,0.974246,0.010686,0.000000,0.000000,0.000000,-1,-0.034348,0.006885,-0.017435,-0.010619,-0.005496,0.006618
"2019-03-26 10:54:54.413 +0000",1553597694.413354,-1.620478,-1.343161,1.612660,-0.225396,0.974203,0.011207,0.000000,0.000000,0.000000,-1,-0.019227,0.011874,-0.001346,0.003548,-0.008428,0.002190
"2019-03-26 10:54:54.436 +0000",1553597694.435653,-1.621154,-1.343149,1.611723,-0.225400,0.974200,0.011360,0.000000,0.000000,0.000000,-1,-0.005418,0.013120,0.001130,0.007383,-0.008502,0.005684
"2019-03-26 10:54:54.458 +0000",1553597694.457932,-1.621441,-1.343302,1.610938,-0.225248,0.974235,0.011417,0.000000,0.000000,0.000000,-1,-0.010377,0.025467,0.013424,0.001753,-0.007071,-0.003361
"2019-03-26 10:54:54.480 +0000",1553597694.480238,-1.620591,-1.342913,1.611089,-0.225636,0.974147,0.011245,0.000000,0.000000,0.000000,-1,-0.014121,0.030400,0.017099,-0.007411,0.008855,0.000413
"2019-03-26 10:54:54.503 +0000",1553597694.502545,-1.621018,-1.343209,1.609750,-0.225344,0.974213,0.011327,0.000000,0.000000,0.000000,-1,-0.011627,0.046369,0.010756,0.000566,0.009978,0.001460
"2019-03-26 10:54:54.525 +0000",1553597694.524854,-1.620917,-1.343375,1.608778,-0.225182,0.974251,0.011296,0.000000,0.000000,0.000000,-1,-0.007888,0.048807,0.004533,0.001351,0.000190,-0.008137
"2019-03-26 10:54:54.547 +0000",1553597694.547131,-1.621927,-1.342202,1.607005,-0.226313,0.973986,0.011582,0.000000,0.000000,0.000000,-1,-0.008000,0.028009,0.003537,-0.006948,-0.003573,0.005157
"2019-03-26 10:54:54.569 +0000",1553597694.569440,-1.622313,-1.342190,1.605847,-0.226320,0.973983,0.011670,0.000000,0.000000,0.000000,-1,-0.019298,0.037831,-0.000277,-0.007231,-0.004241,0.009952
"2019-03-26 10:54:54.592 +0000",1553597694.591747,-1.623343,-1.342103,1.604149,-0.226392,0.973963,0.011907,0.000000,0.000000,0.000000,-1,-0.014299,0.016916,-0.001329,-0.008822,0.001485,0.008540
"2019-03-26 10:54:54.614 +0000",1553597694.614009,-1.629086,-1.342180,1.598233,-0.226245,0.973981,0.013203,0.000000,0.000000,0.000000,-1,0.000778,0.010801,0.006175,0.004916,-0.005307,0.007031
"2019-03-26 10:54:54.636 +0000",1553597694.636333,-1.627838,-1.342259,1.599401,-0.226185,0.973999,0.012916,0.000000,0.000000,0.000000,-1,0.017053,0.000943,0.000066,0.007527,-0.008194,0.005608
"2019-03-26 10:54:54.659 +0000",1553597694.658641,-1.626389,-1.342287,1.600613,-0.226176,0.974005,0.012587,0.000000,0.000000,0.000000,-1,0.002026,0.015712,0.003651,0.005503,-0.001044,0.005113
"2019-03-26 10:54:54.681 +0000",1553597694.680949,-1.626063,-1.342442,1.600806,-0.226029,0.974040,0.012505,0.000000,0.000000,0.000000,-1,0.005808,0.005897,0.009942,0.005173,0.004491,0.007698
"2019-03-26 10:54:54.703 +0000",1553597694.703225,-1.637485,-1.343809,1.589517,-0.224543,0.974349,0.014997,0.000000,0.000000,0.000000,-1,0.003280,0.019402,0.003620,0.010142,-0.000502,0.013354
"2019-03-26 10:54:54.726 +0000",1553597694.725517,-1.637716,-1.343788,1.588467,-0.224559,0.974344,0.015050,0.000000,0.000000,0.000000,-1,-0.019420,0.039121,-0.003951,0.010204,0.000402,0.003169
"2019-03-26 10:54:54.748 +0000",1553597694.747842,-1.639376,-1.343972,1.585711,-0.224356,0.974385,0.015410,0.000000,0.000000,0.000000,-1,-0.040691,0.050226,0.007107,0.000693,0.002971,-0.002227
"2019-03-26 10:54:54.770 +0000",1553597694.770140,-1.644354,-1.344838,1.579528,-0.223434,0.974580,0.016465,0.000000,0.000000,0.000000,-1,-0.023111,0.056399,0.010782,0.004730,0.001525,0.003936
"2019-03-26 10:54:54.792 +0000",1553597694.792427,-1.644693,-1.345543,1.577247,-0.222744,0.974737,0.016490,0.000000,0.000000,0.000000,-1,-0.019183,0.108190,0.042578,0.008129,-0.003805,-0.004192
"2019-03-26 10:54:54.815 +0000",1553597694.814703,-1.644712,-1.346533,1.574021,-0.221782,0.974958,0.016423,0.000000,0.000000,0.000000,-1,-0.024176,0.146321,0.042237,0.002314,-0.012998,-0.024007
"2019-03-26 10:54:54.837 +0000",1553597694.836988,-1.641509,-1.347474,1.574274,-0.220917,0.975167,0.015648,0.000000,0.000000,0.000000,-1,0.013387,0.104475,0.032701,0.006043,-0.024728,-0.004463
"2019-03-26 10:54:54.859 +0000",1553597694.859289,-1.630123,-1.348815,1.582766,-0.219775,0.975463,0.013054,0.000000,0.000000,0.000000,-1,0.004507,0.119128,0.005276,0.007251,0.018586,-0.011864
"2019-03-26 10:54:54.882 +0000",1553597694.881597,-1.629502,-1.348869,1.581868,-0.219731,0.975475,0.012914,0.000000,0.000000,0.000000,-1,-0.006850,0.045297,0.000964,-0.000545,0.039997,-0.025442
"2019-03-26 10:54:54.904 +0000",1553597694.903906,-1.629176,-1.348760,1.582204,-0.219841,0.975451,0.012849,0.000000,0.000000,0.000000,-1,0.006775,-0.032081,-0.004487,-0.017814,0.032896,-0.006837
"2019-03-26 10:54:54.926 +0000",1553597694.926183,-1.629030,-1.348810,1.583452,-0.219794,0.975462,0.012814,0.000000,0.000000,0.000000,-1,0.013070,-0.057872,0.005669,-0.034372,0.013063,-0.009823
"2019-03-26 10:54:54.948 +0000",1553597694.948490,-1.629033,-1.349192,1.584842,-0.219423,0.975546,0.012793,0.000000,0.000000,0.000000,-1,0.014400,-0.059030,0.024288,-0.026747,0.003199,0.009210
"2019-03-26 10:54:54.971 +0000",1553597694.970800,-1.629274,-1.349776,1.585643,-0.218850,0.975674,0.012812,0.000000,0.000000,0.000000,-1,0.006888,-0.036891,0.024088,-0.007437,-0.000897,0.018361
"2019-03-26 10:54:54.993 +0000",1553597694.993089,-1.633408,-1.350165,1.582158,-0.218417,0.975759,0.013693,0.000000,0.000000,0.000000,-1,0.014375,-0.017254,0.011511,0.003665,-0.017263,0.012460
"2019-03-26 10:54:55.015 +0000",1553597695.015384,-1.632367,-1.350326,1.583099,-0.218274,0.975795,0.013456,0.000000,0.000000,0.000000,-1,0.009340,0.009773,0.002585,0.003095,-0.015818,0.007113
"2019-03-26 10:54:55.038 +0000",1553597695.037692,-1.631315,-1.350327,1.583701,-0.218287,0.975795,0.013227,0.000000,0.000000,0.000000,-1,0.004318,0.025748,-0.001280,-0.002065,-0.010890,0.001147
"2019-03-26 10:54:55.060 +0000",1553597695.059985,-1.630350,-1.350287,1.583961,-0.218339,0.975786,0.013018,0.000000,0.000000,0.000000,-1,0.000564,0.040508,-0.001413,-0.006759,0.002607,0.007444
