timestamp,timeIntervalSince1970,attitude.roll,attitude.pitch,attitude.yaw,gravity.x,gravity.y,gravity.z,magneticField.x,magneticField.y,magneticField.z,magneticField.accuracy,rotationRate.x,rotationRate.y,rotationRate.z,userAcceleration.x,userAcceleration.y,userAcceleration.z
"2019-11-26 16:53:11.928 +0000",1574787191.927868,0.218938,0.027406,-0.008456,0.217112,-0.027403,-0.975762,0.000000,0.000000,0.000000,-1,-0.860501,-2.625363,-1.147407,-0.148661,0.009154,0.171319
"2019-11-26 16:53:11.948 +0000",1574787191.947823,0.150129,0.007533,-0.020991,0.149561,-0.007533,-0.988724,0.000000,0.000000,0.000000,-1,-0.696204,-4.037419,-0.647333,0.118169,0.060603,0.261276
"2019-11-26 16:53:11.968 +0000",1574787191.967799,0.044009,0.004676,-0.035480,0.043994,-0.004676,-0.999021,0.000000,0.000000,0.000000,-1,0.357186,-5.972425,-1.020350,0.227933,0.201514,0.192197
"2019-11-26 16:53:11.988 +0000",1574787191.987785,-0.074635,0.017009,-0.057071,-0.074555,-0.017008,-0.997072,0.000000,0.000000,0.000000,-1,0.566039,-5.657513,-0.750175,-0.428131,0.121256,0.160555
"2019-11-26 16:53:12.008 +0000",1574787192.007754,-0.156451,0.020999,-0.054373,-0.155780,-0.020997,-0.987569,0.000000,0.000000,0.000000,-1,0.024489,-3.058027,0.489430,-0.235135,0.000566,0.341542
"2019-11-26 16:53:12.028 +0000",1574787192.027743,-0.193832,0.015117,-0.042295,-0.192599,-0.015116,-0.981161,0.000000,0.000000,0.000000,-1,-0.255625,-1.435225,0.719406,-0.331159,0.079035,0.018744
"2019-11-26 16:53:12.048 +0000",1574787192.047735,-0.214430,0.004928,-0.017652,-0.212788,-0.004928,-0.977086,0.000000,0.000000,0.000000,-1,-0.227890,-0.928266,1.789483,-0.192211,0.170196,0.071477
"2019-11-26 16:53:12.068 +0000",1574787192.067697,-0.249838,-0.008964,0.032832,-0.247237,0.008964,-0.968914,0.000000,0.000000,0.000000,-1,-0.048117,-2.087679,2.921432,0.038207,0.090814,0.021129
"2019-11-26 16:53:12.088 +0000",1574787192.087678,-0.300158,-0.019526,0.090457,-0.295615,0.019525,-0.955108,0.000000,0.000000,0.000000,-1,0.506190,-2.643407,2.800276,-0.171594,-0.058496,0.153762
"2019-11-26 16:53:12.108 +0000",1574787192.107664,-0.341014,-0.021252,0.144107,-0.334367,0.021250,-0.942203,0.000000,0.000000,0.000000,-1,0.810844,-1.559958,2.559221,-0.291442,-0.050822,0.017078
"2019-11-26 16:53:12.128 +0000",1574787192.127618,-0.358010,-0.033681,0.210482,-0.350213,0.033675,-0.936065,0.000000,0.000000,0.000000,-1,0.380681,-0.873403,3.996027,-0.245841,-0.122496,0.112227
"2019-11-26 16:53:12.148 +0000",1574787192.147592,-0.380638,-0.065214,0.305333,-0.370723,0.065167,-0.926454,0.000000,0.000000,0.000000,-1,0.198727,-1.710615,5.369468,0.238139,-0.022931,0.332918
"2019-11-26 16:53:12.168 +0000",1574787192.167592,-0.439452,-0.094755,0.398031,-0.423535,0.094613,-0.900925,0.000000,0.000000,0.000000,-1,0.776014,-4.606513,4.126776,0.337415,0.437888,-0.192428
"2019-11-26 16:53:12.188 +0000",1574787192.187546,-0.553729,-0.088798,0.467688,-0.523790,0.088682,-0.847218,0.000000,0.000000,0.000000,-1,2.654862,-6.580431,2.433815,0.235262,0.334322,-0.130931
"2019-11-26 16:53:12.208 +0000",1574787192.207515,-0.678606,-0.061545,0.555087,-0.626520,0.061506,-0.776975,0.000000,0.000000,0.000000,-1,4.073356,-6.341715,3.145328,0.237024,0.274065,0.219815
"2019-11-26 16:53:12.228 +0000",1574787192.227502,-0.796677,-0.050190,0.666195,-0.714137,0.050169,-0.698206,0.000000,0.000000,0.000000,-1,4.080882,-6.292628,3.965114,-0.066167,0.292864,0.045130
"2019-11-26 16:53:12.247 +0000",1574787192.247493,-0.928755,-0.057454,0.773724,-0.799553,0.057422,-0.597844,0.000000,0.000000,0.000000,-1,3.742735,-7.194057,3.591221,-0.047630,0.177075,-0.003108
"2019-11-26 16:53:12.267 +0000",1574787192.267444,-1.058452,-0.077281,0.872209,-0.868996,0.077204,-0.488759,0.000000,0.000000,0.000000,-1,3.431206,-6.335005,3.589921,-0.200309,0.064703,0.320409
"2019-11-26 16:53:12.287 +0000",1574787192.287450,-1.147318,-0.121301,0.956338,-0.904966,0.121004,-0.407914,0.000000,0.000000,0.000000,-1,2.271517,-3.968725,3.970999,-0.278887,0.024366,0.176500
"2019-11-26 16:53:12.307 +0000",1574787192.307397,-1.194755,-0.175718,1.011427,-0.915803,0.174815,-0.361586,0.000000,0.000000,0.000000,-1,1.041499,-2.048687,3.044976,-0.350844,0.056249,-0.187166
"2019-11-26 16:53:12.327 +0000",1574787192.327373,-1.213154,-0.207693,1.045466,-0.916594,0.206203,-0.342544,0.000000,0.000000,0.000000,-1,1.165981,-0.864612,1.743015,-0.128389,0.158085,-0.059007
"2019-11-26 16:53:12.347 +0000",1574787192.347380,-1.215424,-0.228654,1.090553,-0.913116,0.226667,-0.338884,0.000000,0.000000,0.000000,-1,1.977528,-0.648942,1.830623,-0.023179,0.154544,-0.040633
"2019-11-26 16:53:12.367 +0000",1574787192.367333,-1.225014,-0.249645,1.144539,-0.911646,0.247060,-0.328426,0.000000,0.000000,0.000000,-1,2.060698,-1.391071,1.886191,-0.067999,0.011622,0.089046
"2019-11-26 16:53:12.387 +0000",1574787192.387306,-1.244428,-0.270156,1.190780,-0.912857,0.266882,-0.308977,0.000000,0.000000,0.000000,-1,1.571713,-1.520945,1.563106,-0.035431,0.008921,0.197954
"2019-11-26 16:53:12.407 +0000",1574787192.407308,-1.258712,-0.288007,1.222585,-0.912497,0.284042,-0.294396,0.000000,0.000000,0.000000,-1,0.945253,-0.943732,1.198894,0.010535,0.043900,0.173028
"2019-11-26 16:53:12.427 +0000",1574787192.427257,-1.268627,-0.301743,1.244789,-0.911560,0.297185,-0.284147,0.000000,0.000000,0.000000,-1,0.847703,-0.808562,0.850469,-0.022217,0.174525,-0.032428
"2019-11-26 16:53:12.447 +0000",1574787192.447236,-1.275894,-0.310525,1.271795,-0.911068,0.305558,-0.276746,0.000000,0.000000,0.000000,-1,1.226831,-0.748716,0.811884,-0.040286,0.199309,-0.058474
"2019-11-26 16:53:12.467 +0000",1574787192.467238,-1.288061,-0.319060,1.298468,-0.911830,0.313675,-0.264903,0.000000,0.000000,0.000000,-1,0.783674,-1.345686,0.664351,-0.061803,0.066452,0.152736
"2019-11-26 16:53:12.487 +0000",1574787192.487195,-1.307888,-0.331269,1.311709,-0.913137,0.325243,-0.245760,0.000000,0.000000,0.000000,-1,0.291402,-1.043445,0.829653,0.114995,0.003751,0.304918
"2019-11-26 16:53:12.507 +0000",1574787192.507173,-1.326808,-0.348189,1.316721,-0.912152,0.341196,-0.227079,0.000000,0.000000,0.000000,-1,-0.073121,-1.040290,0.903868,0.285428,0.191489,0.048475
"2019-11-26 16:53:12.527 +0000",1574787192.527167,-1.351558,-0.368699,1.323944,-0.910469,0.360402,-0.202871,0.000000,0.000000,0.000000,-1,0.260115,-1.741910,1.187332,0.327065,0.273387,-0.165583
"2019-11-26 16:53:12.547 +0000",1574787192.547112,-1.393635,-0.391699,1.348727,-0.909795,0.381759,-0.162888,0.000000,0.000000,0.000000,-1,1.427121,-3.035588,1.264223,-0.198969,0.106659,-0.562728
"2019-11-26 16:53:12.567 +0000",1574787192.567093,-1.444146,-0.404189,1.401447,-0.912058,0.393273,-0.116134,0.000000,0.000000,0.000000,-1,2.328167,-3.450727,1.375244,0.064401,0.246391,-0.171723
"2019-11-26 16:53:12.587 +0000",1574787192.587095,-1.483724,-0.433464,1.426295,-0.904078,0.420017,-0.078920,0.000000,0.000000,0.000000,-1,-0.413799,-2.303502,1.393558,-0.217321,-0.096790,0.126542
"2019-11-26 16:53:12.607 +0000",1574787192.607047,-1.504543,-0.472269,1.408359,-0.888585,0.454908,-0.058958,0.000000,0.000000,0.000000,-1,-0.866849,0.025607,2.287803,0.097218,0.308275,0.314970
"2019-11-26 16:53:12.627 +0000",1574787192.627026,-1.510511,-0.518813,1.409319,-0.866831,0.495850,-0.052320,0.000000,0.000000,0.000000,-1,0.382267,-0.848689,2.174376,-0.017584,0.285324,0.011488
"2019-11-26 16:53:12.647 +0000",1574787192.647025,-1.522057,-0.559363,1.424629,-0.846587,0.530647,-0.041295,0.000000,0.000000,0.000000,-1,0.418605,-0.676197,2.078929,0.009596,0.163079,-0.065166
"2019-11-26 16:53:12.667 +0000",1574787192.666978,-1.517350,-0.612913,1.429040,-0.816808,0.575253,-0.043697,0.000000,0.000000,0.000000,-1,-0.123909,0.429197,3.034171,0.497685,0.084888,0.036083
"2019-11-26 16:53:12.687 +0000",1574787192.686959,-1.503524,-0.675279,1.429880,-0.778767,0.625115,-0.052469,0.000000,0.000000,0.000000,-1,-0.134346,0.844691,3.041411,0.168767,0.045341,0.050195
"2019-11-26 16:53:12.707 +0000",1574787192.706954,-1.478964,-0.731187,1.433204,-0.741246,0.667754,-0.068262,0.000000,0.000000,0.000000,-1,-0.185069,1.340102,2.555314,0.014088,0.025560,0.011881
"2019-11-26 16:53:12.727 +0000",1574787192.726909,-1.449990,-0.779755,1.427428,-0.705903,0.703105,-0.085695,0.000000,0.000000,0.000000,-1,-0.652581,1.554866,2.274191,-0.103057,-0.313518,-0.046126
"2019-11-26 16:53:12.747 +0000",1574787192.746886,-1.438148,-0.823252,1.410079,-0.673868,0.733361,-0.089915,0.000000,0.000000,0.000000,-1,-0.979407,0.725463,1.736984,-0.299185,-0.175682,0.052318
"2019-11-26 16:53:12.767 +0000",1574787192.766884,-1.447400,-0.850422,1.386162,-0.654650,0.751559,-0.081194,0.000000,0.000000,0.000000,-1,-1.045005,0.645010,1.258347,-0.025373,0.145429,0.087816
"2019-11-26 16:53:12.787 +0000",1574787192.786844,-1.455251,-0.877117,1.360047,-0.635108,0.768898,-0.073712,0.000000,0.000000,0.000000,-1,-0.952249,0.491804,1.080929,0.305731,-0.026146,0.083890
"2019-11-26 16:53:12.807 +0000",1574787192.806820,-1.470198,-0.899164,1.335431,-0.619118,0.782807,-0.062493,0.000000,0.000000,0.000000,-1,-0.828583,0.065327,1.004862,-0.100364,0.133163,0.091866
"2019-11-26 16:53:12.827 +0000",1574787192.826812,-1.478811,-0.924924,1.318406,-0.599351,0.798575,-0.055288,0.000000,0.000000,0.000000,-1,-0.500205,0.456918,1.403741,-0.181137,0.118142,0.160497
"2019-11-26 16:53:12.847 +0000",1574787192.846772,-1.467683,-0.955038,1.317575,-0.574510,0.816336,-0.059451,0.000000,0.000000,0.000000,-1,0.056181,0.516899,1.476492,0.017045,0.107187,0.040408
"2019-11-26 16:53:12.867 +0000",1574787192.866746,-1.450102,-0.982469,1.327535,-0.550934,0.831870,-0.066819,0.000000,0.000000,0.000000,-1,0.116326,0.508756,1.375563,0.001449,0.075387,-0.009322
"2019-11-26 16:53:12.887 +0000",1574787192.886742,-1.432047,-1.010347,1.337006,-0.526459,0.847016,-0.073518,0.000000,0.000000,0.000000,-1,0.062677,0.465897,1.475081,-0.010681,-0.008897,0.006074
"2019-11-26 16:53:12.907 +0000",1574787192.906720,-1.414814,-1.039528,1.349163,-0.500477,0.862165,-0.078705,0.000000,0.000000,0.000000,-1,0.059847,0.300074,1.467479,0.119495,0.217989,-0.010834
"2019-11-26 16:53:12.927 +0000",1574787192.926730,-1.401837,-1.066103,1.356969,-0.476654,0.875323,-0.081310,0.000000,0.000000,0.000000,-1,-0.066135,0.424743,1.273174,0.136749,0.019315,0.026821
"2019-11-26 16:53:12.947 +0000",1574787192.946670,-1.385960,-1.088417,1.362198,-0.455986,0.885894,-0.085256,0.000000,0.000000,0.000000,-1,-0.091619,0.544688,0.998335,0.206658,0.060685,-0.038340
"2019-11-26 16:53:12.967 +0000",1574787192.966623,-1.384681,-1.105565,1.355424,-0.440882,0.893718,-0.083016,0.000000,0.000000,0.000000,-1,-0.481548,0.294183,0.716245,0.160059,0.174657,-0.168098
"2019-11-26 16:53:12.987 +0000",1574787192.986606,-1.421029,-1.109682,1.317697,-0.439966,0.895557,-0.066390,0.000000,0.000000,0.000000,-1,-0.943295,-0.413949,-0.569750,0.387598,0.318295,-0.248674
"2019-11-26 16:53:13.007 +0000",1574787193.006601,-1.459749,-1.104543,1.265940,-0.446774,0.893259,-0.049818,0.000000,0.000000,0.000000,-1,-1.370897,0.125050,-0.441857,0.187359,0.474447,-0.256105
"2019-11-26 16:53:13.027 +0000",1574787193.026552,-1.522886,-1.087497,1.194156,-0.464170,0.885466,-0.022255,0.000000,0.000000,0.000000,-1,-1.382540,0.147109,-1.531437,-0.053682,-0.060942,0.213112
"2019-11-26 16:53:13.047 +0000",1574787193.046528,-1.584762,-1.058271,1.130581,-0.490332,0.871509,0.006848,0.000000,0.000000,0.000000,-1,-1.659502,-0.533603,-1.426762,-0.179590,0.070172,-0.105603
"2019-11-26 16:53:13.067 +0000",1574787193.066530,-1.650845,-1.027764,1.057783,-0.515080,0.856146,0.041320,0.000000,0.000000,0.000000,-1,-2.001192,0.106055,-1.485107,-0.070781,-0.039556,-0.091018
"2019-11-26 16:53:13.086 +0000",1574787193.086493,-1.705398,-0.991262,0.988727,-0.542681,0.836718,0.073490,0.000000,0.000000,0.000000,-1,-1.990329,0.205293,-1.567349,0.210558,0.174116,0.056133
"2019-11-26 16:53:13.106 +0000",1574787193.106472,-1.745086,-0.962638,0.936768,-0.562701,0.820701,0.099078,0.000000,0.000000,0.000000,-1,-1.382585,0.177281,-1.083217,0.019946,0.156304,0.209287
"2019-11-26 16:53:13.126 +0000",1574787193.126457,-1.766395,-0.945529,0.914175,-0.574153,0.810807,0.113758,0.000000,0.000000,0.000000,-1,-0.413069,-0.401556,-0.332508,-0.082921,0.253830,0.271557
"2019-11-26 16:53:13.146 +0000",1574787193.146426,-1.770725,-0.948124,0.913913,-0.571591,0.812323,0.115825,0.000000,0.000000,0.000000,-1,-0.086711,-0.404576,0.413600,0.048642,-0.302008,-0.331111
"2019-11-26 16:53:13.166 +0000",1574787193.166406,-1.794200,-0.962019,0.896624,-0.557653,0.820348,0.126696,0.000000,0.000000,0.000000,-1,-0.256990,-0.353926,0.803877,-0.069162,0.174876,0.154737
"2019-11-26 16:53:13.186 +0000",1574787193.186387,-1.806778,-0.986440,0.890358,-0.536374,0.834067,0.128978,0.000000,0.000000,0.000000,-1,0.254253,-0.393088,1.640867,-0.245014,0.020929,0.029668
"2019-11-26 16:53:13.206 +0000",1574787193.206361,-1.826799,-1.035194,0.873186,-0.493726,0.859961,0.129231,0.000000,0.000000,0.000000,-1,0.050315,-0.161981,2.944314,-0.156481,-0.015891,-0.064656
"2019-11-26 16:53:13.226 +0000",1574787193.226310,-1.868950,-1.100494,0.833683,-0.433162,0.891432,0.133117,0.000000,0.000000,0.000000,-1,0.009700,-0.519582,3.542817,0.152553,-0.017362,0.057114
"2019-11-26 16:53:13.246 +0000",1574787193.246316,-1.926187,-1.170431,0.782188,-0.365399,0.920919,0.135618,0.000000,0.000000,0.000000,-1,0.149297,-0.496635,3.724413,0.111722,-0.126729,0.029162
"2019-11-26 16:53:13.266 +0000",1574787193.266266,-1.999862,-1.242731,0.711821,-0.293005,0.946668,0.134047,0.000000,0.000000,0.000000,-1,0.285601,-0.313599,3.862466,0.197653,-0.262494,0.048921
"2019-11-26 16:53:13.286 +0000",1574787193.286247,-2.095831,-1.309711,0.619120,-0.223361,0.966110,0.129385,0.000000,0.000000,0.000000,-1,0.336541,-0.388265,3.285340,0.707308,0.079437,-0.088034
"2019-11-26 16:53:13.306 +0000",1574787193.306248,-2.204576,-1.349528,0.510113,-0.176846,0.975620,0.129967,0.000000,0.000000,0.000000,-1,-0.298300,-0.056246,1.496534,0.754818,0.358197,-0.241478
"2019-11-26 16:53:13.326 +0000",1574787193.326201,-2.235757,-1.341134,0.477625,-0.179146,0.973743,0.140466,0.000000,0.000000,0.000000,-1,-0.475464,0.031920,-0.589235,0.422951,-0.075397,0.035819
"2019-11-26 16:53:13.346 +0000",1574787193.346180,-2.288239,-1.330828,0.426414,-0.179084,0.971345,0.156260,0.000000,0.000000,0.000000,-1,-0.582750,-0.119669,0.273357,0.053946,-0.357179,0.227010
"2019-11-26 16:53:13.366 +0000",1574787193.366176,-2.333266,-1.341461,0.384457,-0.164390,0.973818,0.157020,0.000000,0.000000,0.000000,-1,0.150391,-0.211039,1.044819,-0.063179,-0.206865,0.043771
"2019-11-26 16:53:13.386 +0000",1574787193.386135,-2.392455,-1.363397,0.324545,-0.140230,0.978570,0.150787,0.000000,0.000000,0.000000,-1,0.362636,0.078558,1.072195,0.200914,-0.519524,-0.080444
"2019-11-26 16:53:13.406 +0000",1574787193.406116,-2.405990,-1.375806,0.306840,-0.130018,0.981049,0.143657,0.000000,0.000000,0.000000,-1,0.467183,0.030930,0.410334,0.192853,-0.568772,0.015096
"2019-11-26 16:53:13.426 +0000",1574787193.426106,-2.368573,-1.389267,0.347697,-0.126067,0.983569,0.129227,0.000000,0.000000,0.000000,-1,0.870137,-0.027630,-0.088740,0.276030,-0.595965,0.012802
"2019-11-26 16:53:13.446 +0000",1574787193.446070,-2.247402,-1.388400,0.467162,-0.141428,0.983412,0.113575,0.000000,0.000000,0.000000,-1,0.695337,0.138598,-1.185330,0.341821,-0.245451,-0.136677
"2019-11-26 16:53:13.466 +0000",1574787193.466050,-2.122428,-1.371830,0.597647,-0.168338,0.980271,0.103587,0.000000,0.000000,0.000000,-1,0.386760,-0.011188,-1.380186,-0.220990,0.896544,-0.177180
"2019-11-26 16:53:13.486 +0000",1574787193.486036,-2.095827,-1.367221,0.637664,-0.174941,0.979350,0.101337,0.000000,0.000000,0.000000,-1,0.214630,-1.005296,0.433775,-0.410279,1.122655,0.139645
"2019-11-26 16:53:13.506 +0000",1574787193.506005,-2.155318,-1.389062,0.590983,-0.150729,0.983532,0.099730,0.000000,0.000000,0.000000,-1,0.180043,-0.493533,1.188664,-0.209043,0.893589,-0.036925
"2019-11-26 16:53:13.526 +0000",1574787193.525985,-2.198177,-1.410162,0.561013,-0.129486,0.987126,0.093892,0.000000,0.000000,0.000000,-1,0.445449,-0.806224,0.828760,0.146012,0.230403,-0.020650
"2019-11-26 16:53:13.546 +0000",1574787193.545964,-2.255482,-1.428797,0.521482,-0.109626,0.989935,0.089503,0.000000,0.000000,0.000000,-1,0.353073,-1.214585,0.938244,0.452384,0.129587,-0.058818
"2019-11-26 16:53:13.566 +0000",1574787193.565938,-2.296705,-1.444694,0.492910,-0.094061,0.992060,0.083486,0.000000,0.000000,0.000000,-1,0.368345,-0.375205,0.533644,0.088095,0.176901,0.025095
"2019-11-26 16:53:13.586 +0000",1574787193.585888,-2.317729,-1.455947,0.481585,-0.084089,0.993412,0.077856,0.000000,0.000000,0.000000,-1,0.272303,-0.517604,0.419448,0.193647,0.085278,-0.015311
"2019-11-26 16:53:13.606 +0000",1574787193.605892,-2.342503,-1.462331,0.467705,-0.077587,0.994123,0.075491,0.000000,0.000000,0.000000,-1,0.119166,-0.614142,0.206406,0.192165,0.088381,-0.012366
"2019-11-26 16:53:13.626 +0000",1574787193.625843,-2.360391,-1.464702,0.458493,-0.074564,0.994377,0.075192,0.000000,0.000000,0.000000,-1,0.038297,-0.334737,0.085758,0.158258,0.109230,0.034610
"2019-11-26 16:53:13.646 +0000",1574787193.645823,-2.371854,-1.465278,0.448883,-0.073299,0.994438,0.075631,0.000000,0.000000,0.000000,-1,0.045602,-0.199969,0.062290,0.134487,0.120445,0.037940
"2019-11-26 16:53:13.666 +0000",1574787193.665806,-2.372669,-1.466153,0.449600,-0.072632,0.994530,0.075066,0.000000,0.000000,0.000000,-1,-0.028988,-0.014648,0.000575,0.108719,0.125923,0.054741
"2019-11-26 16:53:13.686 +0000",1574787193.685778,-2.374754,-1.463544,0.444695,-0.074276,0.994254,0.077085,0.000000,0.000000,0.000000,-1,-0.131062,0.158656,-0.096449,0.125927,0.092019,0.011797
"2019-11-26 16:53:13.706 +0000",1574787193.705757,-2.378995,-1.460334,0.437496,-0.076153,0.993905,0.079707,0.000000,0.000000,0.000000,-1,-0.149334,0.146189,-0.057234,0.093929,-0.140710,-0.003779
"2019-11-26 16:53:13.726 +0000",1574787193.725747,-2.388535,-1.458597,0.425921,-0.076569,0.993712,0.081689,0.000000,0.000000,0.000000,-1,-0.070759,0.062995,0.019074,0.104004,-0.274016,0.009482
"2019-11-26 16:53:13.746 +0000",1574787193.745712,-2.387109,-1.460974,0.427365,-0.075067,0.993976,0.079858,0.000000,0.000000,0.000000,-1,0.194147,-0.002931,0.088755,0.166452,-0.255374,0.009497
"2019-11-26 16:53:13.766 +0000",1574787193.765692,-2.370977,-1.466884,0.444771,-0.072253,0.994606,0.074421,0.000000,0.000000,0.000000,-1,0.240619,0.017877,0.156122,0.076876,0.216820,0.041698
"2019-11-26 16:53:13.786 +0000",1574787193.785669,-2.374736,-1.470573,0.439217,-0.069427,0.994982,0.072050,0.000000,0.000000,0.000000,-1,0.031821,0.120431,0.136933,0.077544,0.302259,0.043383
"2019-11-26 16:53:13.806 +0000",1574787193.805647,-2.395547,-1.470606,0.415265,-0.067890,0.994985,0.073455,0.000000,0.000000,0.000000,-1,-0.146728,0.063459,0.093284,0.109317,0.235285,0.006547
"2019-11-26 16:53:13.826 +0000",1574787193.825607,-2.594391,-1.477022,0.211678,-0.048719,0.995606,0.079964,0.000000,0.000000,0.000000,-1,-0.210858,0.302915,0.033350,0.091001,-0.047929,0.007285
"2019-11-26 16:53:13.846 +0000",1574787193.845609,-2.618562,-1.474616,0.181281,-0.047969,0.995378,0.083193,0.000000,0.000000,0.000000,-1,-0.143982,0.287468,0.080310,0.088023,-0.099336,0.005476
"2019-11-26 16:53:13.866 +0000",1574787193.865581,-2.634921,-1.474172,0.160332,-0.046816,0.995336,0.084353,0.000000,0.000000,0.000000,-1,-0.027697,0.191978,0.072601,0.095400,-0.055959,0.010953
"2019-11-26 16:53:13.886 +0000",1574787193.885561,-2.639808,-1.474390,0.152102,-0.046299,0.995357,0.084391,0.000000,0.000000,0.000000,-1,-0.000611,0.130902,0.003088,0.143238,0.163304,0.023031
"2019-11-26 16:53:13.906 +0000",1574787193.905539,-2.627429,-1.472594,0.161917,-0.048219,0.995182,0.085367,0.000000,0.000000,0.000000,-1,-0.106372,0.143345,-0.145135,0.116670,0.168255,0.002996
"2019-11-26 16:53:13.925 +0000",1574787193.925485,-2.604936,-1.466819,0.179440,-0.053065,0.994599,0.089200,0.000000,0.000000,0.000000,-1,-0.244592,0.339801,-0.262344,0.138209,0.164489,0.008304
"2019-11-26 16:53:13.945 +0000",1574787193.945465,-2.684983,-1.470272,0.092942,-0.044247,0.994952,0.090074,0.000000,0.000000,0.000000,-1,-0.226152,0.334644,-0.113118,0.017743,-0.179308,-0.032915
"2019-11-26 16:53:13.965 +0000",1574787193.965469,-2.683397,-1.468825,0.088665,-0.045027,0.994805,0.091295,0.000000,0.000000,0.000000,-1,-0.073291,0.246677,0.014512,0.030028,-0.151086,-0.002260
"2019-11-26 16:53:13.985 +0000",1574787193.985420,-2.687680,-1.468654,0.080084,-0.044710,0.994788,0.091640,0.000000,0.000000,0.000000,-1,0.013027,0.167357,0.039565,0.028093,-0.093558,-0.005504
"2019-11-26 16:53:14.005 +0000",1574787194.005399,-2.688766,-1.469676,0.077188,-0.044166,0.994892,0.090774,0.000000,0.000000,0.000000,-1,0.045260,0.046200,0.029227,0.039374,0.044949,0.002808
"2019-11-26 16:53:14.025 +0000",1574787194.025397,-2.749025,-1.475103,0.017207,-0.036552,0.995425,0.088278,0.000000,0.000000,0.000000,-1,0.034782,-0.023997,0.023424,0.042992,0.020139,-0.010031
"2019-11-26 16:53:14.045 +0000",1574787194.045355,-2.750768,-1.475875,0.016158,-0.036106,0.995498,0.087633,0.000000,0.000000,0.000000,-1,0.036943,-0.029340,0.019136,0.057469,0.015808,-0.006105
"2019-11-26 16:53:14.065 +0000",1574787194.065334,-2.800241,-1.479042,-0.032771,-0.030673,0.995794,0.086340,0.000000,0.000000,0.000000,-1,0.029420,-0.011243,0.025673,0.054202,-0.004140,-0.009039
"2019-11-26 16:53:14.085 +0000",1574787194.085325,-2.803376,-1.479949,-0.035855,-0.030102,0.995876,0.085582,0.000000,0.000000,0.000000,-1,0.042128,0.004778,0.033286,0.061047,0.020207,-0.007579
"2019-11-26 16:53:14.105 +0000",1574787194.105289,-2.807083,-1.480879,-0.039545,-0.029481,0.995960,0.084819,0.000000,0.000000,0.000000,-1,0.035821,-0.017607,0.025651,0.059373,0.025509,-0.017009
"2019-11-26 16:53:14.125 +0000",1574787194.125268,-2.799905,-1.484840,-0.031061,-0.028766,0.996308,0.080887,0.000000,0.000000,0.000000,-1,0.028789,-0.050022,-0.041643,0.092960,0.020171,-0.019409
"2019-11-26 16:53:14.145 +0000",1574787194.145225,-2.794848,-1.484832,-0.025139,-0.029178,0.996307,0.080749,0.000000,0.000000,0.000000,-1,0.015875,-0.042411,-0.017161,0.046207,0.033737,-0.015258
"2019-11-26 16:53:14.165 +0000",1574787194.165224,-2.866661,-1.488264,-0.095783,-0.022381,0.996596,0.079343,0.000000,0.000000,0.000000,-1,0.006369,-0.043616,-0.032029,0.064480,0.001420,-0.015729
"2019-11-26 16:53:14.185 +0000",1574787194.185203,-2.852764,-1.487958,-0.080506,-0.023568,0.996571,0.079317,0.000000,0.000000,0.000000,-1,0.002454,-0.090778,-0.082402,0.067300,0.022747,-0.015123
"2019-11-26 16:53:14.205 +0000",1574787194.205185,-2.837524,-1.487593,-0.063960,-0.024883,0.996541,0.079295,0.000000,0.000000,0.000000,-1,-0.003078,-0.039612,-0.060768,0.066844,-0.003743,-0.011164
"2019-11-26 16:53:14.225 +0000",1574787194.225158,-2.896308,-1.489706,-0.122323,-0.019670,0.996714,0.078578,0.000000,0.000000,0.000000,-1,-0.010665,-0.002347,-0.048752,0.073778,-0.001505,-0.011240
"2019-11-26 16:53:14.245 +0000",1574787194.245107,-2.884984,-1.489003,-0.111030,-0.020736,0.996657,0.079027,0.000000,0.000000,0.000000,-1,-0.029810,0.006061,-0.056211,0.082473,0.030000,-0.012331
"2019-11-26 16:53:14.265 +0000",1574787194.265113,-2.873635,-1.488055,-0.099998,-0.021882,0.996579,0.079698,0.000000,0.000000,0.000000,-1,-0.035184,0.023079,-0.052915,0.085618,0.028446,-0.016175
"2019-11-26 16:53:14.285 +0000",1574787194.285060,-2.937138,-1.490178,-0.163769,-0.016351,0.996752,0.078854,0.000000,0.000000,0.000000,-1,-0.019214,0.025226,-0.052766,0.078057,0.008634,-0.008588
"2019-11-26 16:53:14.305 +0000",1574787194.305041,-2.982608,-1.489511,-0.209116,-0.012854,0.996698,0.080171,0.000000,0.000000,0.000000,-1,0.000991,-0.012867,-0.035892,0.048041,-0.017969,0.011824
"2019-11-26 16:53:14.325 +0000",1574787194.325043,-3.021959,-1.488807,-0.247034,-0.009774,0.996641,0.081312,0.000000,0.000000,0.000000,-1,0.004314,-0.089362,-0.034267,0.035730,-0.022581,0.009066
"2019-11-26 16:53:14.345 +0000",1574787194.344996,-3.015444,-1.489138,-0.238339,-0.010262,0.996668,0.080918,0.000000,0.000000,0.000000,-1,0.028841,-0.113742,-0.032224,0.021264,-0.014460,0.026198
"2019-11-26 16:53:14.365 +0000",1574787194.364976,-3.042597,-1.487456,-0.262984,-0.008227,0.996529,0.082836,0.000000,0.000000,0.000000,-1,0.011647,-0.126279,-0.000432,0.032901,0.022376,0.031605
"2019-11-26 16:53:14.385 +0000",1574787194.384971,-3.048015,-1.487552,-0.265907,-0.007769,0.996537,0.082784,0.000000,0.000000,0.000000,-1,-0.002324,-0.101735,0.015657,0.059268,0.047317,0.018565
"2019-11-26 16:53:14.405 +0000",1574787194.404930,-3.062802,-1.486636,-0.281121,-0.006616,0.996461,0.083800,0.000000,0.000000,0.000000,-1,-0.016994,0.073264,0.111583,0.025034,0.004730,0.003129
"2019-11-26 16:53:14.425 +0000",1574787194.424910,-3.071940,-1.486630,-0.290225,-0.005851,0.996460,0.083864,0.000000,0.000000,0.000000,-1,-0.012865,-0.054271,-0.025542,0.048560,0.060593,0.000975
"2019-11-26 16:53:14.445 +0000",1574787194.444900,-3.076289,-1.486502,-0.292208,-0.005494,0.996449,0.084016,0.000000,0.000000,0.000000,-1,-0.028151,-0.143307,-0.127314,0.033662,0.035091,-0.003663
"2019-11-26 16:53:14.465 +0000",1574787194.464866,-3.049734,-1.485827,-0.261966,-0.007785,0.996392,0.084509,0.000000,0.000000,0.000000,-1,-0.028098,-0.196352,-0.117059,0.016696,-0.027536,-0.003194
"2019-11-26 16:53:14.485 +0000",1574787194.484844,-3.062435,-1.485131,-0.270007,-0.006766,0.996333,0.085292,0.000000,0.000000,0.000000,-1,-0.003674,-0.253423,-0.083293,0.041693,-0.008036,0.007191
"2019-11-26 16:53:14.505 +0000",1574787194.504829,-3.050504,-1.484918,-0.253241,-0.007802,0.996315,0.085418,0.000000,0.000000,0.000000,-1,-0.008131,-0.218160,-0.057514,0.072454,0.023735,0.016999
"2019-11-26 16:53:14.525 +0000",1574787194.524800,-3.083643,-1.484023,-0.283110,-0.005019,0.996238,0.086520,0.000000,0.000000,0.000000,-1,-0.021264,-0.114897,-0.029100,0.050964,-0.004676,0.009977
"2019-11-26 16:53:14.545 +0000",1574787194.544779,-3.082098,-1.483847,-0.280633,-0.005164,0.996222,0.086687,0.000000,0.000000,0.000000,-1,-0.001367,-0.012647,-0.002742,0.042395,0.004663,-0.002443
"2019-11-26 16:53:14.565 +0000",1574787194.564758,-3.112447,-1.484069,-0.310848,-0.002524,0.996242,0.086582,0.000000,0.000000,0.000000,-1,0.013461,-0.007211,0.010158,0.039710,0.002919,0.001553
"2019-11-26 16:53:14.585 +0000",1574787194.584720,-3.113433,-1.484399,-0.311740,-0.002430,0.996270,0.086256,0.000000,0.000000,0.000000,-1,0.020975,0.012829,-0.009887,0.035678,-0.007607,0.003512
"2019-11-26 16:53:14.605 +0000",1574787194.604707,-3.137075,-1.484229,-0.335374,-0.000391,0.996255,0.086458,0.000000,0.000000,0.000000,-1,-0.000402,0.018202,0.002872,0.036874,0.020087,0.008161
"2019-11-26 16:53:14.625 +0000",1574787194.624688,-3.136675,-1.484210,-0.335700,-0.000425,0.996254,0.086477,0.000000,0.000000,0.000000,-1,-0.006852,0.054302,0.000983,0.029066,0.047356,-0.001623
"2019-11-26 16:53:14.645 +0000",1574787194.644647,3.131494,-1.484816,-0.351915,0.000867,0.996306,0.085870,0.000000,0.000000,0.000000,-1,-0.027102,0.067026,0.002084,0.024798,0.061708,-0.013451
"2019-11-26 16:53:14.665 +0000",1574787194.664627,3.134389,-1.484047,-0.350607,0.000624,0.996240,0.086638,0.000000,0.000000,0.000000,-1,-0.044095,0.082816,-0.012762,0.023607,0.033286,-0.013533
"2019-11-26 16:53:14.685 +0000",1574787194.684618,3.129549,-1.483495,-0.357007,0.001050,0.996192,0.087185,0.000000,0.000000,0.000000,-1,-0.039675,0.076217,-0.041508,0.020404,-0.007544,-0.007931
"2019-11-26 16:53:14.705 +0000",1574787194.704582,-3.138769,-1.482890,-0.343485,-0.000248,0.996139,0.087793,0.000000,0.000000,0.000000,-1,-0.024615,0.068583,-0.069176,0.021656,-0.004684,-0.003763
"2019-11-26 16:53:14.725 +0000",1574787194.724554,-3.133623,-1.482746,-0.339561,-0.000701,0.996126,0.087934,0.000000,0.000000,0.000000,-1,-0.018214,0.063280,-0.069173,0.020522,0.007307,-0.003935
"2019-11-26 16:53:14.745 +0000",1574787194.744547,-3.121126,-1.482360,-0.328218,-0.001807,0.996092,0.088302,0.000000,0.000000,0.000000,-1,-0.020494,0.056102,-0.036245,0.020606,0.004854,-0.008255
"2019-11-26 16:53:14.765 +0000",1574787194.764505,-3.133577,-1.482374,-0.341758,-0.000708,0.996093,0.088303,0.000000,0.000000,0.000000,-1,-0.014339,0.060728,0.009593,0.025931,0.000183,-0.007417
"2019-11-26 16:53:14.784 +0000",1574787194.784479,3.130148,-1.482632,-0.362422,0.001008,0.996116,0.088044,0.000000,0.000000,0.000000,-1,0.000452,0.062002,0.033091,0.025665,0.012368,-0.005250
"2019-11-26 16:53:14.804 +0000",1574787194.804475,3.095774,-1.483105,-0.397804,0.004011,0.996158,0.087488,0.000000,0.000000,0.000000,-1,-0.010191,0.045038,0.040415,0.024339,0.028730,-0.003137
"2019-11-26 16:53:14.824 +0000",1574787194.824441,3.065668,-1.483057,-0.428671,0.006647,0.996153,0.087374,0.000000,0.000000,0.000000,-1,-0.007988,0.041748,0.027664,0.023886,0.019380,-0.000384
"2019-11-26 16:53:14.844 +0000",1574787194.844415,3.052754,-1.482809,-0.442455,0.007796,0.996132,0.087527,0.000000,0.000000,0.000000,-1,-0.005793,0.047998,0.011771,0.023255,0.016564,0.005277
"2019-11-26 16:53:14.864 +0000",1574787194.864405,3.042400,-1.482046,-0.453525,0.008777,0.996064,0.088198,0.000000,0.000000,0.000000,-1,-0.034462,0.027688,0.003018,0.022686,0.020003,0.007871
"2019-11-26 16:53:14.884 +0000",1574787194.884376,3.029104,-1.481176,-0.467440,0.010047,0.995987,0.088935,0.000000,0.000000,0.000000,-1,-0.038710,0.040370,-0.004331,0.019754,0.008515,-0.001106
"2019-11-26 16:53:14.904 +0000",1574787194.904356,3.024702,-1.480534,-0.473019,0.010513,0.995929,0.089525,0.000000,0.000000,0.000000,-1,-0.028016,0.067853,-0.024295,0.023545,0.006772,0.001112
"2019-11-26 16:53:14.924 +0000",1574787194.924334,3.025007,-1.480062,-0.474423,0.010540,0.995886,0.089995,0.000000,0.000000,0.000000,-1,-0.016323,0.100735,-0.033576,0.022007,0.012964,0.002122
"2019-11-26 16:53:14.944 +0000",1574787194.944281,3.029140,-1.479538,-0.472424,0.010227,0.995839,0.090557,0.000000,0.000000,0.000000,-1,-0.017355,0.109148,-0.044149,-0.000369,0.016597,0.000706
"2019-11-26 16:53:14.964 +0000",1574787194.964260,3.037261,-1.479409,-0.466388,0.009504,0.995827,0.090764,0.000000,0.000000,0.000000,-1,-0.016333,0.107101,-0.034578,0.006823,0.019996,-0.002706
"2019-11-26 16:53:14.984 +0000",1574787194.984262,3.046551,-1.479333,-0.458704,0.008668,0.995820,0.090924,0.000000,0.000000,0.000000,-1,-0.020586,0.066843,-0.018928,-0.005112,0.025756,-0.005047
"2019-11-26 16:53:15.004 +0000",1574787195.004214,3.059114,-1.480084,-0.446614,0.007463,0.995888,0.090280,0.000000,0.000000,0.000000,-1,-0.021498,0.008446,-0.017606,-0.007463,0.030509,-0.012201
"2019-11-26 16:53:15.024 +0000",1574787195.024195,3.070095,-1.480298,-0.435628,0.006456,0.995908,0.090144,0.000000,0.000000,0.000000,-1,-0.011936,-0.007381,-0.005988,-0.001054,0.023578,-0.008387
"2019-11-26 16:53:15.044 +0000",1574787195.044191,3.064549,-1.479954,-0.440918,0.006982,0.995877,0.090448,0.000000,0.000000,0.000000,-1,-0.022674,-0.030556,0.021474,0.006110,-0.000836,-0.004022
"2019-11-26 16:53:15.064 +0000",1574787195.064147,3.056211,-1.479726,-0.448062,0.007756,0.995856,0.090614,0.000000,0.000000,0.000000,-1,-0.005551,-0.078326,0.023320,0.005886,-0.019431,-0.004325
"2019-11-26 16:53:15.084 +0000",1574787195.084116,3.047852,-1.479960,-0.454444,0.008491,0.995877,0.090313,0.000000,0.000000,0.000000,-1,0.021245,-0.106104,-0.001253,0.013970,0.005282,0.008869
"2019-11-26 16:53:15.104 +0000",1574787195.104120,3.045271,-1.480162,-0.454441,0.008705,0.995896,0.090091,0.000000,0.000000,0.000000,-1,0.026804,-0.143550,-0.034488,0.013268,-0.000549,0.011120
"2019-11-26 16:53:15.124 +0000",1574787195.124075,3.040803,-1.479375,-0.455120,0.009186,0.995824,0.090831,0.000000,0.000000,0.000000,-1,-0.004927,-0.204338,-0.055255,0.023666,0.014979,0.020528
"2019-11-26 16:53:15.144 +0000",1574787195.144063,3.042774,-1.478479,-0.449220,0.009095,0.995742,0.091736,0.000000,0.000000,0.000000,-1,-0.023099,-0.169313,-0.056124,0.024978,0.024690,0.012481
"2019-11-26 16:53:15.164 +0000",1574787195.164050,3.050685,-1.477990,-0.438919,0.008413,0.995697,0.092289,0.000000,0.000000,0.000000,-1,-0.031881,-0.085229,-0.036390,0.029276,0.024720,0.014080
"2019-11-26 16:53:15.184 +0000",1574787195.184018,3.055609,-1.477328,-0.433082,0.008015,0.995635,0.092988,0.000000,0.000000,0.000000,-1,-0.034229,-0.021332,-0.017843,0.025127,0.021974,0.002761
"2019-11-26 16:53:15.204 +0000",1574787195.203997,3.052773,-1.476705,-0.436095,0.008334,0.995577,0.093582,0.000000,0.000000,0.000000,-1,-0.018401,0.025526,-0.007859,0.007642,0.002272,0.005798
"2019-11-26 16:53:15.224 +0000",1574787195.223979,3.053070,-1.476272,-0.436365,0.008344,0.995536,0.094014,0.000000,0.000000,0.000000,-1,-0.008915,0.029930,0.009235,0.000308,-0.005179,0.005291
"2019-11-26 16:53:15.244 +0000",1574787195.243952,3.045030,-1.475711,-0.445109,0.009154,0.995483,0.094500,0.000000,0.000000,0.000000,-1,-0.002682,0.033358,0.038020,0.007738,0.000321,0.003980
"2019-11-26 16:53:15.264 +0000",1574787195.263901,3.033556,-1.475603,-0.457415,0.010249,0.995473,0.094495,0.000000,0.000000,0.000000,-1,0.005765,0.047255,0.046669,0.007070,0.028301,-0.001828
"2019-11-26 16:53:15.284 +0000",1574787195.283905,3.024608,-1.475997,-0.467630,0.011048,0.995510,0.094011,0.000000,0.000000,0.000000,-1,0.015399,0.068379,0.028771,0.006438,0.030125,-0.004457
"2019-11-26 16:53:15.304 +0000",1574787195.303856,3.018212,-1.476653,-0.475543,0.011569,0.995572,0.093289,0.000000,0.000000,0.000000,-1,0.019677,0.076836,0.022466,0.001477,0.012851,-0.002622
"2019-11-26 16:53:15.324 +0000",1574787195.323836,3.014546,-1.476943,-0.480409,0.011874,0.995599,0.092960,0.000000,0.000000,0.000000,-1,0.010143,0.050263,0.023300,-0.001758,0.013816,-0.001285
"2019-11-26 16:53:15.344 +0000",1574787195.343807,3.010760,-1.476963,-0.485036,0.012224,0.995601,0.092895,0.000000,0.000000,0.000000,-1,0.003807,0.037457,0.017863,0.001296,0.012059,0.002640
"2019-11-26 16:53:15.364 +0000",1574787195.363790,3.007452,-1.476636,-0.489124,0.012574,0.995570,0.093177,0.000000,0.000000,0.000000,-1,0.003844,0.040568,0.008310,0.000029,0.011449,0.006783
"2019-11-26 16:53:15.384 +0000",1574787195.383766,3.009728,-1.476331,-0.487749,0.012402,0.995542,0.093507,0.000000,0.000000,0.000000,-1,0.009171,0.043740,0.005159,-0.001752,0.003406,0.008041
"2019-11-26 16:53:15.404 +0000",1574787195.403743,3.007468,-1.476254,-0.490764,0.012624,0.995534,0.093554,0.000000,0.000000,0.000000,-1,0.018734,0.030011,0.013609,-0.000371,0.006266,0.004011
"2019-11-26 16:53:15.424 +0000",1574787195.423718,3.005672,-1.476326,-0.492918,0.012782,0.995541,0.093460,0.000000,0.000000,0.000000,-1,0.018730,0.008828,0.021965,-0.002375,0.014927,0.004837
"2019-11-26 16:53:15.444 +0000",1574787195.443696,3.001101,-1.476300,-0.497695,0.013213,0.995539,0.093425,0.000000,0.000000,0.000000,-1,0.019738,0.011032,0.031561,-0.001372,0.017233,0.010746
"2019-11-26 16:53:15.464 +0000",1574787195.463682,2.990715,-1.476174,-0.508383,0.014201,0.995527,0.093407,0.000000,0.000000,0.000000,-1,0.021831,0.013203,0.036910,0.008764,0.009753,0.009147
"2019-11-26 16:53:15.484 +0000",1574787195.483660,2.981689,-1.476086,-0.517710,0.015058,0.995518,0.093363,0.000000,0.000000,0.000000,-1,0.025046,0.018461,0.029514,0.000628,0.004894,0.007605
"2019-11-26 16:53:15.504 +0000",1574787195.503637,2.975106,-1.476323,-0.525021,0.015633,0.995541,0.093029,0.000000,0.000000,0.000000,-1,0.040972,0.043975,0.027632,0.003013,0.011890,0.007023
"2019-11-26 16:53:15.524 +0000",1574787195.523617,2.968624,-1.476822,-0.532491,0.016150,0.995588,0.092436,0.000000,0.000000,0.000000,-1,0.046274,0.044009,0.030846,0.005334,0.011691,0.005327
"2019-11-26 16:53:15.544 +0000",1574787195.543587,2.964743,-1.477096,-0.537394,0.016461,0.995613,0.092104,0.000000,0.000000,0.000000,-1,0.064473,0.093651,-0.010228,-0.019268,-0.013314,0.011000
"2019-11-26 16:53:15.564 +0000",1574787195.563575,2.952740,-1.477627,-0.549763,0.017466,0.995663,0.091381,0.000000,0.000000,0.000000,-1,0.030343,0.011066,0.033744,0.008901,0.015735,0.001942
"2019-11-26 16:53:15.584 +0000",1574787195.583554,2.942454,-1.477874,-0.560205,0.018356,0.995686,0.090954,0.000000,0.000000,0.000000,-1,0.019758,0.003532,0.024077,0.007691,0.015316,0.003925
"2019-11-26 16:53:15.604 +0000",1574787195.603508,2.936498,-1.477955,-0.566161,0.018881,0.995693,0.090765,0.000000,0.000000,0.000000,-1,0.009154,-0.002914,0.017608,0.005640,0.011463,0.003214
"2019-11-26 16:53:15.623 +0000",1574787195.623476,2.931198,-1.477760,-0.571415,0.019402,0.995675,0.090854,0.000000,0.000000,0.000000,-1,0.008134,-0.002993,0.008030,0.000968,0.014472,0.007046
"2019-11-26 16:53:15.643 +0000",1574787195.643483,2.932026,-1.477494,-0.570527,0.019382,0.995650,0.091128,0.000000,0.000000,0.000000,-1,0.008152,-0.005152,0.003756,-0.001880,0.021241,0.013852
"2019-11-26 16:53:15.663 +0000",1574787195.663433,2.930169,-1.477404,-0.571976,0.019570,0.995642,0.091180,0.000000,0.000000,0.000000,-1,0.000733,-0.028525,0.005688,0.003425,0.019418,0.008490
"2019-11-26 16:53:15.683 +0000",1574787195.683413,2.923383,-1.476875,-0.578026,0.020302,0.995593,0.091560,0.000000,0.000000,0.000000,-1,-0.003507,-0.038105,0.004547,0.011527,0.002424,0.002740
"2019-11-26 16:53:15.703 +0000",1574787195.703412,2.918440,-1.476707,-0.582210,0.020792,0.995577,0.091622,0.000000,0.000000,0.000000,-1,0.008244,-0.034974,-0.004956,0.010443,0.003096,0.003013
"2019-11-26 16:53:15.723 +0000",1574787195.723369,2.917477,-1.476871,-0.582367,0.020844,0.995592,0.091442,0.000000,0.000000,0.000000,-1,0.013651,-0.042515,-0.018821,0.011932,0.010847,0.004322
"2019-11-26 16:53:15.743 +0000",1574787195.743348,2.913316,-1.476766,-0.585615,0.021248,0.995582,0.091456,0.000000,0.000000,0.000000,-1,0.011504,-0.041440,-0.016681,0.010826,0.017952,0.007329
"2019-11-26 16:53:15.763 +0000",1574787195.763341,2.909456,-1.476732,-0.588878,0.021608,0.995579,0.091406,0.000000,0.000000,0.000000,-1,0.016680,-0.020017,0.003721,0.010054,0.008663,0.004541
"2019-11-26 16:53:15.783 +0000",1574787195.783303,2.902050,-1.476903,-0.596088,0.022244,0.995595,0.091078,0.000000,0.000000,0.000000,-1,0.019721,-0.010236,0.030411,0.009616,0.005793,0.003496
"2019-11-26 16:53:15.803 +0000",1574787195.803281,2.885193,-1.476937,-0.612720,0.023768,0.995598,0.090658,0.000000,0.000000,0.000000,-1,0.026030,-0.013277,0.047451,0.010168,0.009284,-0.000265
"2019-11-26 16:53:15.823 +0000",1574787195.823270,2.868851,-1.477368,-0.628830,0.025130,0.995639,0.089844,0.000000,0.000000,0.000000,-1,0.027118,-0.014365,0.044262,0.010728,0.012998,-0.004471
"2019-11-26 16:53:15.843 +0000",1574787195.843238,2.857219,-1.477752,-0.640336,0.026066,0.995675,0.089178,0.000000,0.000000,0.000000,-1,0.022896,-0.002778,0.032628,0.008800,0.015052,-0.005209
"2019-11-26 16:53:15.863 +0000",1574787195.863217,2.845677,-1.478187,-0.651981,0.026968,0.995715,0.088457,0.000000,0.000000,0.000000,-1,0.025046,0.007792,0.025271,0.003840,0.013868,0.000898
"2019-11-26 16:53:15.883 +0000",1574787195.883198,2.839010,-1.478322,-0.658703,0.027517,0.995727,0.088148,0.000000,0.000000,0.000000,-1,0.017624,-0.006044,0.024080,0.000788,0.016831,0.006564
"2019-11-26 16:53:15.903 +0000",1574787195.903171,2.834191,-1.478382,-0.663261,0.027923,0.995733,0.087957,0.000000,0.000000,0.000000,-1,0.010190,-0.018799,0.025021,-0.005188,0.014933,0.003336
"2019-11-26 16:53:15.923 +0000",1574787195.923146,2.831027,-1.478415,-0.666168,0.028192,0.995736,0.087838,0.000000,0.000000,0.000000,-1,0.018649,-0.012340,0.033606,-0.006524,0.007530,0.005256
"2019-11-26 16:53:15.943 +0000",1574787195.943128,2.822813,-1.478659,-0.674274,0.028836,0.995758,0.087371,0.000000,0.000000,0.000000,-1,0.029207,-0.007942,0.049635,-0.006420,0.003814,0.000581
"2019-11-26 16:53:15.963 +0000",1574787195.963077,2.810134,-1.478956,-0.686820,0.029845,0.995786,0.086718,0.000000,0.000000,0.000000,-1,0.030214,-0.013142,0.063432,-0.009489,0.007953,-0.000964
"2019-11-26 16:53:15.983 +0000",1574787195.983052,2.794518,-1.479267,-0.702275,0.031090,0.995814,0.085951,0.000000,0.000000,0.000000,-1,0.033376,-0.012023,0.069834,0.002296,0.013509,-0.002867
"2019-11-26 16:53:16.003 +0000",1574787196.003057,2.775292,-1.479539,-0.721314,0.032640,0.995839,0.085085,0.000000,0.000000,0.000000,-1,0.034422,-0.014104,0.075145,0.001159,0.017284,-0.001345
"2019-11-26 16:53:16.023 +0000",1574787196.023004,2.757777,-1.479617,-0.738511,0.034096,0.995846,0.084428,0.000000,0.000000,0.000000,-1,0.025950,-0.022662,0.069730,-0.001686,0.018985,-0.002824
"2019-11-26 16:53:16.043 +0000",1574787196.043000,2.742704,-1.479788,-0.753113,0.035298,0.995862,0.083747,0.000000,0.000000,0.000000,-1,0.021790,-0.030156,0.061980,-0.001576,0.015659,-0.002479
"2019-11-26 16:53:16.063 +0000",1574787196.062987,2.729141,-1.479855,-0.766082,0.036405,0.995868,0.083201,0.000000,0.000000,0.000000,-1,0.025037,-0.032352,0.052398,-0.001431,0.013532,0.000036
"2019-11-26 16:53:16.083 +0000",1574787196.082945,2.717269,-1.479988,-0.777411,0.037335,0.995880,0.082641,0.000000,0.000000,0.000000,-1,0.024009,-0.029234,0.043903,-0.001690,0.015656,-0.001877
"2019-11-26 16:53:16.103 +0000",1574787196.102911,2.705470,-1.480267,-0.788720,0.038190,0.995905,0.081944,0.000000,0.000000,0.000000,-1,0.022985,-0.024000,0.034361,0.002902,0.011221,-0.003132
"2019-11-26 16:53:16.123 +0000",1574787196.122902,2.692485,-1.480464,-0.801455,0.039166,0.995923,0.081264,0.000000,0.000000,0.000000,-1,0.021893,-0.005947,0.033428,0.009342,0.018771,-0.003872
"2019-11-26 16:53:16.143 +0000",1574787196.142868,2.682625,-1.480543,-0.811464,0.039930,0.995930,0.080804,0.000000,0.000000,0.000000,-1,0.016553,0.011020,0.030342,0.007815,0.018505,-0.003304
"2019-11-26 16:53:16.163 +0000",1574787196.162858,2.676287,-1.480619,-0.818200,0.040408,0.995937,0.080481,0.000000,0.000000,0.000000,-1,0.009134,0.023664,0.018701,-0.002871,0.017659,0.000940
"2019-11-26 16:53:16.183 +0000",1574787196.182844,2.675237,-1.480702,-0.819897,0.040455,0.995944,0.080365,0.000000,0.000000,0.000000,-1,-0.002564,0.036335,0.011298,-0.004612,0.013348,-0.004315
"2019-11-26 16:53:16.203 +0000",1574787196.202810,2.675080,-1.480627,-0.820830,0.040500,0.995938,0.080424,0.000000,0.000000,0.000000,-1,-0.002558,0.036327,0.010232,-0.004917,0.010105,-0.001384
"2019-11-26 16:53:16.223 +0000",1574787196.222793,2.675542,-1.480962,-0.820917,0.040313,0.995968,0.080145,0.000000,0.000000,0.000000,-1,0.002818,0.020372,0.006939,-0.006347,0.010136,-0.005514
"2019-11-26 16:53:16.243 +0000",1574787196.242774,2.675329,-1.481376,-0.821313,0.040146,0.996005,0.079769,0.000000,0.000000,0.000000,-1,0.009259,0.001240,0.004691,-0.006363,0.012906,-0.005367
"2019-11-26 16:53:16.263 +0000",1574787196.262748,2.673441,-1.481600,-0.823051,0.040195,0.996025,0.079493,0.000000,0.000000,0.000000,-1,0.007137,-0.014660,0.009886,-0.005802,0.012520,-0.004954
"2019-11-26 16:53:16.283 +0000",1574787196.282727,2.671501,-1.481929,-0.824705,0.040201,0.996054,0.079123,0.000000,0.000000,0.000000,-1,0.008178,-0.014616,0.015206,-0.005060,0.013239,-0.000952
"2019-11-26 16:53:16.303 +0000",1574787196.302703,2.667426,-1.482124,-0.828546,0.040435,0.996071,0.078787,0.000000,0.000000,0.000000,-1,0.012401,-0.011369,0.021627,-0.003707,0.013756,-0.000784
"2019-11-26 16:53:16.323 +0000",1574787196.322648,2.662135,-1.482184,-0.833653,0.040823,0.996077,0.078518,0.000000,0.000000,0.000000,-1,0.011294,-0.009186,0.029086,-0.004126,0.007982,0.001728
"2019-11-26 16:53:16.343 +0000",1574787196.342625,2.654998,-1.482079,-0.840639,0.041432,0.996067,0.078317,0.000000,0.000000,0.000000,-1,0.005927,-0.011243,0.038626,-0.002506,0.011791,0.001822
"2019-11-26 16:53:16.363 +0000",1574787196.362632,2.649129,-1.481909,-0.846389,0.041970,0.996052,0.078221,0.000000,0.000000,0.000000,-1,0.003836,-0.006011,0.029076,-0.004693,0.014461,-0.001744
"2019-11-26 16:53:16.383 +0000",1574787196.382586,2.644851,-1.481962,-0.850558,0.042280,0.996057,0.077996,0.000000,0.000000,0.000000,-1,0.009214,-0.006086,0.018452,-0.006040,0.013892,-0.003182
"2019-11-26 16:53:16.403 +0000",1574787196.402567,2.643608,-1.482203,-0.851595,0.042262,0.996078,0.077732,0.000000,0.000000,0.000000,-1,0.006049,-0.014609,0.016244,-0.006160,0.010743,-0.002048
"2019-11-26 16:53:16.423 +0000",1574787196.422562,2.641024,-1.482272,-0.853811,0.042429,0.996084,0.077561,0.000000,0.000000,0.000000,-1,0.002861,-0.022036,0.018302,-0.005045,0.017313,-0.000535
"2019-11-26 16:53:16.443 +0000",1574787196.442537,2.639428,-1.482333,-0.855006,0.042524,0.996090,0.077441,0.000000,0.000000,0.000000,-1,0.001833,-0.018918,0.009804,-0.005079,0.021595,0.001112
"2019-11-26 16:53:16.463 +0000",1574787196.462500,2.639357,-1.482439,-0.854775,0.042479,0.996099,0.077346,0.000000,0.000000,0.000000,-1,-0.000261,-0.014739,0.001311,-0.003020,0.012919,-0.000350
"2019-11-26 16:53:16.482 +0000",1574787196.482490,2.641389,-1.482457,-0.852422,0.042313,0.996101,0.077415,0.000000,0.000000,0.000000,-1,-0.006644,-0.014758,0.000219,-0.005539,0.005578,0.001518
"2019-11-26 16:53:16.502 +0000",1574787196.502450,2.643071,-1.482449,-0.850560,0.042186,0.996100,0.077493,0.000000,0.000000,0.000000,-1,-0.001361,-0.005151,0.004562,-0.005702,0.010507,0.000158
"2019-11-26 16:53:16.522 +0000",1574787196.522436,2.643964,-1.482470,-0.849656,0.042107,0.996102,0.077513,0.000000,0.000000,0.000000,-1,0.001795,0.000210,0.009929,-0.005959,0.014259,0.001161
"2019-11-26 16:53:16.542 +0000",1574787196.542419,2.643241,-1.482524,-0.850364,0.042138,0.996107,0.077435,0.000000,0.000000,0.000000,-1,0.007093,-0.002917,0.016307,-0.006203,0.006060,0.000445
"2019-11-26 16:53:16.562 +0000",1574787196.562365,2.640603,-1.482501,-0.852924,0.042353,0.996104,0.077345,0.000000,0.000000,0.000000,-1,0.007053,-0.007090,0.025849,-0.006495,0.008031,0.001970
"2019-11-26 16:53:16.582 +0000",1574787196.582372,2.632075,-1.482188,-0.861356,0.043163,0.996077,0.077252,0.000000,0.000000,0.000000,-1,0.011285,0.000373,0.028052,0.021885,0.050920,0.005633
"2019-11-26 16:53:16.602 +0000",1574787196.602348,2.632289,-1.482353,-0.861410,0.043066,0.996091,0.077118,0.000000,0.000000,0.000000,-1,0.005992,-0.009225,0.024763,-0.004263,0.019793,0.003037
"2019-11-26 16:53:16.622 +0000",1574787196.622325,2.627653,-1.482114,-0.865911,0.043540,0.996070,0.077125,0.000000,0.000000,0.000000,-1,-0.000405,-0.010282,0.026857,-0.005393,0.011620,0.003274
"2019-11-26 16:53:16.642 +0000",1574787196.642273,2.627596,-1.481987,-0.865840,0.043606,0.996059,0.077232,0.000000,0.000000,0.000000,-1,-0.006740,-0.008261,0.015137,-0.006268,0.012516,-0.000358
"2019-11-26 16:53:16.662 +0000",1574787196.662278,2.629270,-1.482052,-0.864035,0.043446,0.996065,0.077249,0.000000,0.000000,0.000000,-1,-0.003479,-0.006240,0.001324,-0.008122,0.013640,-0.001123
"2019-11-26 16:53:16.682 +0000",1574787196.682112,2.630584,-1.482150,-0.862441,0.043296,0.996074,0.077220,0.000000,0.000000,0.000000,-1,0.001877,-0.016874,-0.000864,-0.007957,0.013402,-0.000194
"2019-11-26 16:53:16.702 +0000",1574787196.702092,2.633796,-1.482286,-0.858853,0.042982,0.996086,0.077241,0.000000,0.000000,0.000000,-1,0.000792,-0.023200,0.005464,-0.005964,0.012948,0.000274
"2019-11-26 16:53:16.722 +0000",1574787196.722091,2.633225,-1.482386,-0.858999,0.042978,0.996094,0.077130,0.000000,0.000000,0.000000,-1,0.001830,-0.019976,0.009744,-0.003427,0.010513,-0.000561
"2019-11-26 16:53:16.742 +0000",1574787196.742067,2.632563,-1.482463,-0.859372,0.042991,0.996101,0.077034,0.000000,0.000000,0.000000,-1,0.003963,-0.013622,0.006603,-0.004433,0.012047,0.000221
"2019-11-26 16:53:16.762 +0000",1574787196.762022,2.631839,-1.482621,-0.859908,0.042970,0.996115,0.076865,0.000000,0.000000,0.000000,-1,0.007168,-0.008337,0.002395,-0.001954,0.012659,0.001413
"2019-11-26 16:53:16.782 +0000",1574787196.782021,2.631308,-1.482673,-0.860285,0.042986,0.996120,0.076797,0.000000,0.000000,0.000000,-1,0.000764,-0.008322,0.005562,-0.001055,0.010472,0.002045
"2019-11-26 16:53:16.802 +0000",1574787196.801996,2.630567,-1.482628,-0.860883,0.043065,0.996116,0.076804,0.000000,0.000000,0.000000,-1,-0.003504,-0.006196,0.006624,-0.001973,0.012750,0.000756
"2019-11-26 16:53:16.822 +0000",1574787196.821974,2.631222,-1.482579,-0.860182,0.043038,0.996111,0.076875,0.000000,0.000000,0.000000,-1,-0.002432,-0.001969,0.003464,-0.003472,0.012998,0.000273
"2019-11-26 16:53:16.842 +0000",1574787196.841949,2.632738,-1.482627,-0.858654,0.042898,0.996116,0.076899,0.000000,0.000000,0.000000,-1,-0.001351,-0.001992,0.000272,-0.003836,0.012521,0.000265
"2019-11-26 16:53:16.862 +0000",1574787196.861925,2.635692,-1.482646,-0.855640,0.042662,0.996117,0.077008,0.000000,0.000000,0.000000,-1,-0.004529,-0.005202,-0.001896,-0.005552,0.007362,0.003070
"2019-11-26 16:53:16.882 +0000",1574787196.881902,2.638756,-1.482613,-0.852409,0.042442,0.996114,0.077168,0.000000,0.000000,0.000000,-1,-0.005577,-0.011588,-0.003014,-0.005027,0.010752,0.001339
"2019-11-26 16:53:16.902 +0000",1574787196.901879,2.641473,-1.482642,-0.849374,0.042218,0.996117,0.077257,0.000000,0.000000,0.000000,-1,-0.003448,-0.016880,-0.000920,-0.004803,0.013466,0.001387
"2019-11-26 16:53:16.922 +0000",1574787196.921850,2.642069,-1.482566,-0.848454,0.042208,0.996110,0.077349,0.000000,0.000000,0.000000,-1,-0.002421,-0.016818,0.006532,-0.004763,0.015227,0.004042
"2019-11-26 16:53:16.942 +0000",1574787196.941830,2.642268,-1.482375,-0.847955,0.042284,0.996093,0.077525,0.000000,0.000000,0.000000,-1,-0.001404,-0.015685,0.015053,-0.004565,0.008408,0.003926
"2019-11-26 16:53:16.962 +0000",1574787196.961777,2.639463,-1.482150,-0.850491,0.042609,0.996073,0.077602,0.000000,0.000000,0.000000,-1,0.001744,-0.014549,0.023585,-0.001502,0.008870,0.003101
"2019-11-26 16:53:16.982 +0000",1574787196.981754,2.635035,-1.481956,-0.854703,0.043046,0.996056,0.077582,0.000000,0.000000,0.000000,-1,0.002794,-0.010288,0.024683,-0.002778,0.009589,0.002985
"2019-11-26 16:53:17.002 +0000",1574787197.001734,2.631789,-1.481652,-0.857836,0.043446,0.996029,0.077706,0.000000,0.000000,0.000000,-1,-0.000397,-0.005006,0.021516,0.000286,0.010486,0.004691
"2019-11-26 16:53:17.022 +0000",1574787197.021722,2.628706,-1.481418,-0.860903,0.043799,0.996008,0.077774,0.000000,0.000000,0.000000,-1,-0.002517,0.000270,0.017289,-0.001593,0.011377,0.002182
"2019-11-26 16:53:17.042 +0000",1574787197.041690,2.627797,-1.481264,-0.861856,0.043945,0.995995,0.077868,0.000000,0.000000,0.000000,-1,-0.002451,0.002326,0.008668,-0.005508,0.010933,0.004773
"2019-11-26 16:53:17.062 +0000",1574787197.061668,2.628438,-1.481205,-0.861166,0.043924,0.995989,0.077947,0.000000,0.000000,0.000000,-1,-0.003493,-0.004068,0.006487,-0.004648,0.015241,0.002269
"2019-11-26 16:53:17.082 +0000",1574787197.081666,2.629995,-1.481059,-0.859533,0.043874,0.995976,0.078143,0.000000,0.000000,0.000000,-1,-0.004545,-0.003032,0.003296,-0.003942,0.012279,0.006223
"2019-11-26 16:53:17.102 +0000",1574787197.101622,2.631273,-1.480890,-0.858210,0.043856,0.995961,0.078346,0.000000,0.000000,0.000000,-1,-0.007756,-0.000896,0.005427,-0.004870,0.010448,0.004876
"2019-11-26 16:53:17.122 +0000",1574787197.121600,2.634110,-1.480706,-0.855439,0.043723,0.995945,0.078630,0.000000,0.000000,0.000000,-1,-0.003510,0.004425,0.005478,-0.002860,0.009304,0.001677
"2019-11-26 16:53:17.142 +0000",1574787197.141594,2.634902,-1.480705,-0.854720,0.043661,0.995945,0.078665,0.000000,0.000000,0.000000,-1,0.000777,0.001211,0.001212,-0.002630,0.017147,0.000635
"2019-11-26 16:53:17.162 +0000",1574787197.161570,2.635608,-1.480733,-0.854029,0.043592,0.995947,0.078672,0.000000,0.000000,0.000000,-1,-0.003447,0.000090,-0.005197,-0.000181,0.016336,-0.000440
"2019-11-26 16:53:17.182 +0000",1574787197.181549,2.638055,-1.480632,-0.851571,0.043448,0.995938,0.078867,0.000000,0.000000,0.000000,-1,-0.007707,0.000083,-0.005214,0.001199,0.011997,0.000830
"2019-11-26 16:53:17.202 +0000",1574787197.201524,2.639381,-1.480505,-0.850258,0.043404,0.995926,0.079034,0.000000,0.000000,0.000000,-1,-0.009846,0.002213,-0.004142,0.001610,0.009796,0.000082
"2019-11-26 16:53:17.222 +0000",1574787197.221501,2.641526,-1.480435,-0.848160,0.043268,0.995920,0.079189,0.000000,0.000000,0.000000,-1,-0.006630,0.002184,-0.008387,0.000158,0.009909,0.000325
"2019-11-26 16:53:17.241 +0000",1574787197.241477,2.641863,-1.480315,-0.847897,0.043299,0.995909,0.079309,0.000000,0.000000,0.000000,-1,-0.003459,0.005403,-0.005157,0.003912,0.012666,0.003959
"2019-11-26 16:53:17.261 +0000",1574787197.261453,2.642356,-1.480263,-0.847543,0.043284,0.995905,0.079376,0.000000,0.000000,0.000000,-1,-0.007751,0.006509,0.001221,0.001088,0.019720,-0.001586
"2019-11-26 16:53:17.281 +0000",1574787197.281430,2.642079,-1.480121,-0.847874,0.043374,0.995892,0.079487,0.000000,0.000000,0.000000,-1,-0.009917,0.001269,0.010751,-0.002435,0.019474,-0.002858
"2019-11-26 16:53:17.301 +0000",1574787197.301406,2.641889,-1.479948,-0.848159,0.043472,0.995876,0.079630,0.000000,0.000000,0.000000,-1,-0.006744,0.006605,0.012928,-0.000213,0.009480,0.000539
"2019-11-26 16:53:17.321 +0000",1574787197.321382,2.640135,-1.479729,-0.850068,0.043716,0.995856,0.079745,0.000000,0.000000,0.000000,-1,-0.001453,0.006666,0.019332,-0.001648,0.008279,0.001050
"2019-11-26 16:53:17.341 +0000",1574787197.341343,2.637398,-1.479545,-0.852961,0.044023,0.995839,0.079786,0.000000,0.000000,0.000000,-1,-0.002495,0.003450,0.016112,0.000853,0.011714,-0.000837
"2019-11-26 16:53:17.361 +0000",1574787197.361334,2.635173,-1.479416,-0.855219,0.044262,0.995828,0.079799,0.000000,0.000000,0.000000,-1,-0.006701,0.001241,0.006503,0.001758,0.015830,-0.000423
"2019-11-26 16:53:17.381 +0000",1574787197.381296,2.635545,-1.479361,-0.854895,0.044259,0.995823,0.079864,0.000000,0.000000,0.000000,-1,-0.007712,0.004333,-0.005183,0.000968,0.012783,-0.000137
"2019-11-26 16:53:17.401 +0000",1574787197.401287,2.638750,-1.479295,-0.851827,0.044034,0.995817,0.080063,0.000000,0.000000,0.000000,-1,-0.013026,0.007486,-0.008374,-0.003507,0.009036,0.002350
"2019-11-26 16:53:17.421 +0000",1574787197.421264,2.644397,-1.479208,-0.846328,0.043623,0.995809,0.080387,0.000000,0.000000,0.000000,-1,-0.010895,0.006428,-0.008377,-0.005522,0.014399,0.001706
"2019-11-26 16:53:17.441 +0000",1574787197.441238,2.648506,-1.479132,-0.842267,0.043328,0.995802,0.080632,0.000000,0.000000,0.000000,-1,-0.010884,0.003232,-0.009466,-0.005151,0.014971,0.002193
"2019-11-26 16:53:17.461 +0000",1574787197.461216,2.652566,-1.479043,-0.838236,0.043042,0.995794,0.080886,0.000000,0.000000,0.000000,-1,-0.009824,0.000063,-0.007359,-0.005689,0.010783,0.004258
"2019-11-26 16:53:17.481 +0000",1574787197.481193,2.657201,-1.478964,-0.833527,0.042704,0.995786,0.081154,0.000000,0.000000,0.000000,-1,-0.009830,-0.005224,-0.004208,-0.005884,0.011126,0.000511
"2019-11-26 16:53:17.501 +0000",1574787197.501158,2.660244,-1.478941,-0.830247,0.042467,0.995784,0.081304,0.000000,0.000000,0.000000,-1,-0.008723,-0.015882,-0.008540,-0.005099,0.015248,-0.000204
"2019-11-26 16:53:17.521 +0000",1574787197.521145,2.663718,-1.478978,-0.826295,0.042168,0.995788,0.081418,0.000000,0.000000,0.000000,-1,-0.009736,-0.027615,-0.013951,-0.004265,0.014085,0.001162
"2019-11-26 16:53:17.541 +0000",1574787197.541114,2.669191,-1.478919,-0.820230,0.041748,0.995782,0.081700,0.000000,0.000000,0.000000,-1,-0.007590,-0.028699,-0.017146,-0.003540,0.010428,0.002651
"2019-11-26 16:53:17.561 +0000",1574787197.561098,2.673571,-1.478975,-0.815393,0.041365,0.995787,0.081832,0.000000,0.000000,0.000000,-1,-0.004425,-0.020176,-0.014945,-0.003508,0.011338,0.003037
"2019-11-26 16:53:17.581 +0000",1574787197.581075,2.676671,-1.479142,-0.811889,0.041036,0.995803,0.081812,0.000000,0.000000,0.000000,-1,-0.001254,-0.021190,-0.009621,-0.003957,0.008897,0.002264
"2019-11-26 16:53:17.601 +0000",1574787197.601051,2.679634,-1.479127,-0.808519,0.040800,0.995801,0.081946,0.000000,0.000000,0.000000,-1,0.002973,-0.020077,-0.004279,-0.002851,0.007617,0.005808
"2019-11-26 16:53:17.621 +0000",1574787197.621027,2.680133,-1.479085,-0.807684,0.040777,0.995797,0.082003,0.000000,0.000000,0.000000,-1,0.004000,-0.017899,0.002125,-0.001730,0.011206,0.006819
"2019-11-26 16:53:17.641 +0000",1574787197.641004,2.679920,-1.479084,-0.807700,0.040796,0.995797,0.081996,0.000000,0.000000,0.000000,-1,0.002921,-0.006229,0.000077,0.001089,0.015632,0.004201
"2019-11-26 16:53:17.661 +0000",1574787197.660980,2.681482,-1.479091,-0.806156,0.040665,0.995798,0.082053,0.000000,0.000000,0.000000,-1,0.001868,0.003282,-0.006243,-0.001465,0.009421,0.001488
"2019-11-26 16:53:17.681 +0000",1574787197.680955,2.684299,-1.479161,-0.803444,0.040403,0.995804,0.082105,0.000000,0.000000,0.000000,-1,0.001887,0.006427,-0.011542,-0.002057,0.010177,0.004656
"2019-11-26 16:53:17.701 +0000",1574787197.700932,2.687667,-1.479226,-0.800180,0.040097,0.995810,0.082182,0.000000,0.000000,0.000000,-1,-0.002347,0.004260,-0.015830,0.000659,0.017114,0.001879
"2019-11-26 16:53:17.721 +0000",1574787197.720909,2.692497,-1.479265,-0.795341,0.039683,0.995814,0.082340,0.000000,0.000000,0.000000,-1,-0.007621,-0.002184,-0.023346,0.000799,0.013906,0.000439
"2019-11-26 16:53:17.741 +0000",1574787197.740885,2.699295,-1.479423,-0.788477,0.039055,0.995828,0.082466,0.000000,0.000000,0.000000,-1,-0.007585,-0.001181,-0.030788,-0.001091,0.010062,-0.000633
"2019-11-26 16:53:17.761 +0000",1574787197.760863,2.706377,-1.479570,-0.781401,0.038408,0.995842,0.082607,0.000000,0.000000,0.000000,-1,-0.004416,0.003100,-0.027554,-0.001817,0.006508,0.003666
"2019-11-26 16:53:17.781 +0000",1574787197.780839,2.712600,-1.479740,-0.775198,0.037823,0.995857,0.082691,0.000000,0.000000,0.000000,-1,-0.003381,0.002091,-0.021174,-0.002056,0.012581,0.001050
"2019-11-26 16:53:17.801 +0000",1574787197.800815,2.717293,-1.479858,-0.770580,0.037386,0.995868,0.082761,0.000000,0.000000,0.000000,-1,-0.003407,0.004250,-0.016902,-0.001986,0.010632,0.000598
"2019-11-26 16:53:17.821 +0000",1574787197.820791,2.720206,-1.479934,-0.767724,0.037114,0.995875,0.082800,0.000000,0.000000,0.000000,-1,0.001901,0.004285,-0.013689,0.000590,0.008550,0.004129
"2019-11-26 16:53:17.841 +0000",1574787197.840768,2.722222,-1.479984,-0.765823,0.036926,0.995879,0.082828,0.000000,0.000000,0.000000,-1,-0.002357,0.006394,-0.014752,0.001984,0.016602,-0.004856
"2019-11-26 16:53:17.861 +0000",1574787197.860744,2.725763,-1.480138,-0.762363,0.036571,0.995893,0.082819,0.000000,0.000000,0.000000,-1,-0.006582,0.003157,-0.020112,0.001835,0.018541,-0.003641
"2019-11-26 16:53:17.881 +0000",1574787197.880715,2.731000,-1.480296,-0.757185,0.036074,0.995908,0.082865,0.000000,0.000000,0.000000,-1,-0.005489,0.003116,-0.025429,0.001920,0.013950,0.000554
"2019-11-26 16:53:17.901 +0000",1574787197.900697,2.735881,-1.480385,-0.752293,0.035634,0.995916,0.082958,0.000000,0.000000,0.000000,-1,-0.003359,-0.000060,-0.024379,0.000850,0.013484,0.002415
"2019-11-26 16:53:17.921 +0000",1574787197.920673,2.741090,-1.480482,-0.746956,0.035164,0.995924,0.083055,0.000000,0.000000,0.000000,-1,-0.005479,-0.007493,-0.023377,0.000343,0.010439,0.001952
"2019-11-26 16:53:17.941 +0000",1574787197.940650,2.745939,-1.480527,-0.741929,0.034744,0.995928,0.083183,0.000000,0.000000,0.000000,-1,-0.004426,-0.007474,-0.021245,0.000947,0.010190,0.000878
"2019-11-26 16:53:17.961 +0000",1574787197.960626,2.749008,-1.480545,-0.738777,0.034481,0.995930,0.083272,0.000000,0.000000,0.000000,-1,-0.000205,-0.002111,-0.015868,0.001850,0.008510,0.003291
"2019-11-26 16:53:17.981 +0000",1574787197.980601,2.750101,-1.480583,-0.737714,0.034376,0.995933,0.083276,0.000000,0.000000,0.000000,-1,0.001866,0.003282,-0.006243,0.002825,0.007881,0.002219
"2019-11-26 16:53:18.001 +0000",1574787198.000579,2.749715,-1.480550,-0.738232,0.034421,0.995931,0.083292,0.000000,0.000000,0.000000,-1,0.000758,0.008644,0.000178,0.003787,0.018123,0.001364
"2019-11-26 16:53:18.021 +0000",1574787198.020555,2.747457,-1.480616,-0.740717,0.034583,0.995937,0.083153,0.000000,0.000000,0.000000,-1,-0.001364,0.013928,-0.002981,0.001473,0.015675,0.001091
"2019-11-26 16:53:18.041 +0000",1574787198.040532,2.748867,-1.480650,-0.739621,0.034453,0.995940,0.083171,0.000000,0.000000,0.000000,-1,-0.002373,0.018112,-0.010490,0.003022,0.015321,-0.000530
"2019-11-26 16:53:18.061 +0000",1574787198.060507,2.752358,-1.480598,-0.736481,0.034182,0.995935,0.083339,0.000000,0.000000,0.000000,-1,-0.008733,0.016996,-0.015842,0.001706,0.009680,-0.000057
"2019-11-26 16:53:18.080 +0000",1574787198.080482,2.756963,-1.480522,-0.732086,0.033827,0.995928,0.083566,0.000000,0.000000,0.000000,-1,-0.011897,0.009527,-0.019100,0.000597,0.012312,0.002799
"2019-11-26 16:53:18.100 +0000",1574787198.100461,2.761782,-1.480427,-0.727284,0.033459,0.995919,0.083815,0.000000,0.000000,0.000000,-1,-0.008685,-0.002148,-0.018109,0.000996,0.014640,0.003099
"2019-11-26 16:53:18.120 +0000",1574787198.120421,2.765417,-1.480334,-0.723520,0.033187,0.995911,0.084022,0.000000,0.000000,0.000000,-1,-0.007626,-0.007433,-0.014951,0.002762,0.011413,0.004219
"2019-11-26 16:53:18.140 +0000",1574787198.140412,2.767368,-1.480123,-0.721369,0.033100,0.995892,0.084282,0.000000,0.000000,0.000000,-1,-0.007647,-0.010579,-0.009652,0.002682,0.011219,0.004097
"2019-11-26 16:53:18.160 +0000",1574787198.160391,2.768580,-1.480026,-0.720005,0.033033,0.995883,0.084412,0.000000,0.000000,0.000000,-1,-0.003413,-0.006295,-0.006412,0.002916,0.011975,0.002380
"2019-11-26 16:53:18.180 +0000",1574787198.180363,2.769979,-1.479967,-0.718526,0.032936,0.995878,0.084513,0.000000,0.000000,0.000000,-1,-0.001291,-0.003104,-0.006380,0.002403,0.014178,0.003179
"2019-11-26 16:53:18.200 +0000",1574787198.200332,2.770640,-1.479820,-0.717787,0.032933,0.995865,0.084671,0.000000,0.000000,0.000000,-1,-0.005530,-0.004152,-0.005392,0.001918,0.013596,0.004212
"2019-11-26 16:53:18.220 +0000",1574787198.220319,2.772038,-1.479607,-0.716312,0.032892,0.995845,0.084916,0.000000,0.000000,0.000000,-1,-0.007674,-0.003076,-0.003264,0.001852,0.010396,0.004500
"2019-11-26 16:53:18.240 +0000",1574787198.240288,2.773015,-1.479444,-0.715240,0.032868,0.995830,0.085099,0.000000,0.000000,0.000000,-1,-0.003421,-0.003060,-0.002183,0.001724,0.011738,0.005508
"2019-11-26 16:53:18.260 +0000",1574787198.260272,2.772730,-1.479212,-0.715427,0.032975,0.995809,0.085305,0.000000,0.000000,0.000000,-1,-0.000250,-0.005137,0.003135,0.002029,0.013316,0.005134
"2019-11-26 16:53:18.280 +0000",1574787198.280248,2.771775,-1.479083,-0.716313,0.033103,0.995797,0.085393,0.000000,0.000000,0.000000,-1,0.000798,-0.002993,0.005283,0.001321,0.015357,0.005610
"2019-11-26 16:53:18.300 +0000",1574787198.300203,2.771668,-1.478997,-0.716404,0.033143,0.995789,0.085470,0.000000,0.000000,0.000000,-1,0.004019,-0.000913,-0.001075,0.002211,0.008575,0.000941
"2019-11-26 16:53:18.320 +0000",1574787198.320200,2.770716,-1.478951,-0.717353,0.033241,0.995785,0.085481,0.000000,0.000000,0.000000,-1,0.007201,-0.000890,0.001067,0.002068,0.005039,0.002577
"2019-11-26 16:53:18.340 +0000",1574787198.340177,2.768973,-1.479052,-0.719125,0.033354,0.995794,0.085329,0.000000,0.000000,0.000000,-1,0.007176,0.001269,0.005339,0.002062,0.011240,0.001234
"2019-11-26 16:53:18.360 +0000",1574787198.360153,2.766163,-1.479092,-0.721899,0.033578,0.995798,0.085198,0.000000,0.000000,0.000000,-1,0.007201,-0.003985,0.008467,0.003729,0.015356,0.002678
"2019-11-26 16:53:18.380 +0000",1574787198.380128,2.763629,-1.478977,-0.724374,0.033836,0.995788,0.085217,0.000000,0.000000,0.000000,-1,0.006149,-0.002950,0.005279,0.004357,0.015443,0.003787
"2019-11-26 16:53:18.400 +0000",1574787198.400107,2.762177,-1.478933,-0.725900,0.033976,0.995784,0.085210,0.000000,0.000000,0.000000,-1,0.004011,0.006593,0.003213,0.002553,0.012594,0.004374
"2019-11-26 16:53:18.420 +0000",1574787198.420083,2.761388,-1.478846,-0.726924,0.034075,0.995776,0.085263,0.000000,0.000000,0.000000,-1,0.001860,0.014036,0.004323,0.001111,0.010801,0.004047
"2019-11-26 16:53:18.440 +0000",1574787198.440059,2.760081,-1.478707,-0.728512,0.034239,0.995763,0.085348,0.000000,0.000000,0.000000,-1,0.005045,0.012996,0.006457,0.001162,0.006831,0.002925
"2019-11-26 16:53:18.460 +0000",1574787198.460018,2.757923,-1.478754,-0.730826,0.034405,0.995767,0.085231,0.000000,0.000000,0.000000,-1,0.008261,0.004492,0.005343,0.002200,0.013465,0.001393
"2019-11-26 16:53:18.480 +0000",1574787198.480012,2.756149,-1.478867,-0.732612,0.034514,0.995777,0.085064,0.000000,0.000000,0.000000,-1,0.007221,0.000214,0.002116,-0.000090,0.016903,0.003299
"2019-11-26 16:53:18.500 +0000",1574787198.499988,2.755508,-1.479036,-0.733227,0.034505,0.995793,0.084887,0.000000,0.000000,0.000000,-1,0.004041,-0.004050,0.001009,0.001048,0.009105,0.002394
"2019-11-26 16:53:18.520 +0000",1574787198.519965,2.753147,-1.478972,-0.735493,0.034730,0.995787,0.084864,0.000000,0.000000,0.000000,-1,0.006138,-0.004959,0.014827,0.000930,0.005876,0.003225
"2019-11-26 16:53:18.540 +0000",1574787198.539934,2.748790,-1.478971,-0.739769,0.035099,0.995787,0.084712,0.000000,0.000000,0.000000,-1,0.012519,-0.003877,0.015923,0.000393,0.010500,0.001561
"2019-11-26 16:53:18.560 +0000",1574787198.559918,2.745383,-1.479088,-0.743154,0.035343,0.995798,0.084485,0.000000,0.000000,0.000000,-1,0.012553,0.000306,0.007441,0.000836,0.014822,0.001971
"2019-11-26 16:53:18.580 +0000",1574787198.579894,2.743866,-1.479203,-0.744705,0.035427,0.995808,0.084326,0.000000,0.000000,0.000000,-1,0.009377,0.001329,0.003180,0.000248,0.011318,0.003198
"2019-11-26 16:53:18.600 +0000",1574787198.599869,2.741876,-1.479245,-0.746769,0.035578,0.995812,0.084217,0.000000,0.000000,0.000000,-1,0.007216,0.003493,0.008508,-0.000071,0.009727,0.003338
"2019-11-26 16:53:18.620 +0000",1574787198.619830,2.739723,-1.479346,-0.749089,0.035720,0.995821,0.084047,0.000000,0.000000,0.000000,-1,0.010389,0.008829,0.010687,-0.000808,0.014616,0.003920
"2019-11-26 16:53:18.640 +0000",1574787198.639822,2.737798,-1.479463,-0.751199,0.035836,0.995832,0.083871,0.000000,0.000000,0.000000,-1,0.010407,0.007740,0.007486,-0.001000,0.014880,0.002844
"2019-11-26 16:53:18.660 +0000",1574787198.659797,2.735449,-1.479545,-0.753587,0.036000,0.995839,0.083711,0.000000,0.000000,0.000000,-1,0.009354,-0.000754,0.008485,0.000331,0.013972,0.001647
"2019-11-26 16:53:18.680 +0000",1574787198.679775,2.733888,-1.479511,-0.755110,0.036145,0.995836,0.083687,0.000000,0.000000,0.000000,-1,0.007282,-0.004999,0.005259,-0.000500,0.012190,0.003593
"2019-11-26 16:53:18.700 +0000",1574787198.699750,2.733145,-1.479531,-0.755796,0.036199,0.995838,0.083641,0.000000,0.000000,0.000000,-1,0.005165,-0.000786,0.001025,-0.000127,0.010586,0.003548
"2019-11-26 16:53:18.720 +0000",1574787198.719727,2.733725,-1.479588,-0.755174,0.036128,0.995843,0.083610,0.000000,0.000000,0.000000,-1,0.004128,-0.004010,-0.003259,-0.000376,0.011527,0.001260
"2019-11-26 16:53:18.740 +0000",1574787198.739705,2.735139,-1.479640,-0.753671,0.035989,0.995848,0.083614,0.000000,0.000000,0.000000,-1,0.004135,-0.005081,-0.004332,-0.000360,0.015886,-0.000270
"2019-11-26 16:53:18.760 +0000",1574787198.759680,2.734698,-1.479859,-0.753961,0.035940,0.995868,0.083398,0.000000,0.000000,0.000000,-1,0.007327,-0.009309,-0.002222,0.000483,0.015439,-0.002129
"2019-11-26 16:53:18.780 +0000",1574787198.779656,2.733609,-1.480000,-0.754852,0.035975,0.995881,0.083229,0.000000,0.000000,0.000000,-1,0.009427,-0.010316,0.004163,0.000524,0.012511,0.001671
"2019-11-26 16:53:18.800 +0000",1574787198.799634,2.731121,-1.480068,-0.757172,0.036155,0.995887,0.083078,0.000000,0.000000,0.000000,-1,0.009391,-0.008140,0.010564,-0.000236,0.009194,0.002066
"2019-11-26 16:53:18.820 +0000",1574787198.819608,2.728464,-1.480144,-0.759723,0.036345,0.995894,0.082911,0.000000,0.000000,0.000000,-1,0.011513,-0.004948,0.010595,-0.001127,0.012910,0.002461
"2019-11-26 16:53:18.840 +0000",1574787198.839585,2.725757,-1.480353,-0.762327,0.036485,0.995913,0.082623,0.000000,0.000000,0.000000,-1,0.010513,-0.004950,0.006368,-0.000352,0.015791,0.002033
"2019-11-26 16:53:18.860 +0000",1574787198.859562,2.723843,-1.480573,-0.764153,0.036554,0.995933,0.082352,0.000000,0.000000,0.000000,-1,0.009459,-0.004969,0.004236,-0.000330,0.013162,0.001861
"2019-11-26 16:53:18.880 +0000",1574787198.879537,2.722095,-1.480657,-0.765804,0.036664,0.995940,0.082212,0.000000,0.000000,0.000000,-1,0.006259,-0.007083,0.006337,0.000445,0.011445,0.001345
"2019-11-26 16:53:18.900 +0000",1574787198.899515,2.720298,-1.480674,-0.767443,0.036805,0.995942,0.082131,0.000000,0.000000,0.000000,-1,0.008397,-0.009213,0.005265,-0.000718,0.012298,0.000388
"2019-11-26 16:53:18.919 +0000",1574787198.919492,2.719681,-1.480884,-0.767880,0.036770,0.995961,0.081917,0.000000,0.000000,0.000000,-1,0.007372,-0.010337,-0.002196,-0.000210,0.015102,-0.000786
"2019-11-26 16:53:18.939 +0000",1574787198.939443,2.719610,-1.481088,-0.767748,0.036693,0.995979,0.081729,0.000000,0.000000,0.000000,-1,0.008449,-0.008236,-0.005369,0.000798,0.012200,0.000821
"2019-11-26 16:53:18.959 +0000",1574787198.959421,2.720123,-1.481192,-0.767096,0.036608,0.995988,0.081653,0.000000,0.000000,0.000000,-1,0.004169,-0.006092,-0.002177,-0.000475,0.009657,0.001202
"2019-11-26 16:53:18.979 +0000",1574787198.979422,2.719719,-1.481353,-0.767418,0.036576,0.996003,0.081493,0.000000,0.000000,0.000000,-1,0.005232,-0.005028,-0.002166,0.000381,0.015731,-0.000484
"2019-11-26 16:53:18.999 +0000",1574787198.999396,2.718259,-1.481536,-0.768732,0.036620,0.996019,0.081273,0.000000,0.000000,0.000000,-1,0.003141,-0.006055,-0.001081,0.001146,0.013503,-0.002064
"2019-11-26 16:53:19.019 +0000",1574787199.019374,2.718701,-1.481601,-0.768212,0.036557,0.996025,0.081230,0.000000,0.000000,0.000000,-1,0.005290,-0.002906,-0.006371,0.002048,0.013192,0.002892
"2019-11-26 16:53:19.039 +0000",1574787199.039350,2.719177,-1.481825,-0.767737,0.036427,0.996045,0.081045,0.000000,0.000000,0.000000,-1,0.004217,0.001342,-0.006344,-0.000691,0.011585,0.002589
"2019-11-26 16:53:19.059 +0000",1574787199.059323,2.720086,-1.481903,-0.766858,0.036322,0.996052,0.081006,0.000000,0.000000,0.000000,-1,0.002072,0.001364,-0.003159,0.000116,0.012020,0.001071
"2019-11-26 16:53:19.079 +0000",1574787199.079301,2.720689,-1.481957,-0.766246,0.036251,0.996056,0.080979,0.000000,0.000000,0.000000,-1,0.004202,-0.001812,-0.002110,-0.000210,0.012092,-0.000123
"2019-11-26 16:53:19.099 +0000",1574787199.099279,2.721253,-1.482074,-0.765616,0.036158,0.996067,0.080893,0.000000,0.000000,0.000000,-1,0.004201,-0.003928,-0.001062,0.000448,0.010876,0.000238
"2019-11-26 16:53:19.119 +0000",1574787199.119249,2.720804,-1.482119,-0.765909,0.036175,0.996071,0.080835,0.000000,0.000000,0.000000,-1,0.004203,-0.010287,0.001020,0.000644,0.011849,0.002676
"2019-11-26 16:53:19.139 +0000",1574787199.139230,2.720043,-1.482175,-0.766518,0.036214,0.996076,0.080758,0.000000,0.000000,0.000000,-1,0.002070,-0.006049,-0.000021,0.000514,0.013354,0.000099
"2019-11-26 16:53:19.159 +0000",1574787199.159208,2.720238,-1.482420,-0.766211,0.036099,0.996097,0.080541,0.000000,0.000000,0.000000,-1,0.001063,-0.006058,-0.004233,-0.001034,0.014797,-0.000891
"2019-11-26 16:53:19.179 +0000",1574787199.179168,2.720360,-1.482474,-0.765928,0.036067,0.996102,0.080497,0.000000,0.000000,0.000000,-1,0.005307,-0.009205,0.000017,-0.000315,0.011802,0.002572
"2019-11-26 16:53:19.199 +0000",1574787199.199160,2.718560,-1.482560,-0.767535,0.036176,0.996110,0.080354,0.000000,0.000000,0.000000,-1,0.006344,-0.011277,0.006391,0.000445,0.008758,0.001937
"2019-11-26 16:53:19.219 +0000",1574787199.219136,2.716992,-1.482619,-0.768943,0.036278,0.996115,0.080243,0.000000,0.000000,0.000000,-1,0.008488,-0.008119,0.002165,0.000495,0.012811,0.000796
"2019-11-26 16:53:19.239 +0000",1574787199.239096,2.716248,-1.482773,-0.769589,0.036275,0.996128,0.080077,0.000000,0.000000,0.000000,-1,0.006375,-0.002853,-0.003125,0.000850,0.013622,0.000550
"2019-11-26 16:53:19.259 +0000",1574787199.259064,2.716296,-1.482942,-0.769513,0.036201,0.996143,0.079925,0.000000,0.000000,0.000000,-1,0.005311,-0.000738,-0.004178,0.000923,0.013332,0.000946
"2019-11-26 16:53:19.279 +0000",1574787199.279066,2.716451,-1.482982,-0.769391,0.036173,0.996147,0.079895,0.000000,0.000000,0.000000,-1,0.002090,0.004595,-0.000959,0.001166,0.011666,0.002899
"2019-11-26 16:53:19.299 +0000",1574787199.299047,2.716462,-1.482995,-0.769405,0.036166,0.996148,0.079883,0.000000,0.000000,0.000000,-1,0.002098,0.000345,-0.000990,-0.000369,0.014426,0.002164
"2019-11-26 16:53:19.319 +0000",1574787199.319019,2.717737,-1.482973,-0.768092,0.036073,0.996146,0.079949,0.000000,0.000000,0.000000,-1,0.000012,-0.003913,-0.004198,0.000014,0.016320,0.003715
"2019-11-26 16:53:19.339 +0000",1574787199.338995,2.718735,-1.482873,-0.766997,0.036035,0.996137,0.080076,0.000000,0.000000,0.000000,-1,0.001084,-0.004982,-0.005265,0.001960,0.011706,0.003679
"2019-11-26 16:53:19.359 +0000",1574787199.358969,2.721262,-1.482740,-0.764452,0.035886,0.996126,0.080288,0.000000,0.000000,0.000000,-1,0.001070,0.001394,-0.005219,-0.001066,0.007003,0.004902
"2019-11-26 16:53:19.379 +0000",1574787199.378947,2.722490,-1.482762,-0.763251,0.035778,0.996127,0.080311,0.000000,0.000000,0.000000,-1,0.003193,0.001406,-0.004147,-0.000561,0.008450,0.003521
"2019-11-26 16:53:19.399 +0000",1574787199.398925,2.723440,-1.482822,-0.762272,0.035678,0.996133,0.080291,0.000000,0.000000,0.000000,-1,0.003201,-0.002844,-0.004178,-0.000125,0.013801,0.003159
"2019-11-26 16:53:19.419 +0000",1574787199.418898,2.724364,-1.482904,-0.761254,0.035571,0.996140,0.080249,0.000000,0.000000,0.000000,-1,0.004270,-0.004968,-0.004190,0.000608,0.014526,0.002011
"2019-11-26 16:53:19.439 +0000",1574787199.438876,2.724459,-1.482954,-0.761101,0.035543,0.996144,0.080207,0.000000,0.000000,0.000000,-1,0.004252,-0.003879,-0.000990,0.001429,0.010844,0.003274
"2019-11-26 16:53:19.459 +0000",1574787199.458854,2.723231,-1.483000,-0.762258,0.035623,0.996148,0.080121,0.000000,0.000000,0.000000,-1,0.003168,-0.004910,0.003256,0.001990,0.007636,0.000476
"2019-11-26 16:53:19.479 +0000",1574787199.478811,2.721922,-1.483002,-0.763483,0.035727,0.996149,0.080073,0.000000,0.000000,0.000000,-1,0.005312,-0.003832,0.002243,0.001017,0.014212,0.002874
"2019-11-26 16:53:19.499 +0000",1574787199.498806,2.721950,-1.483132,-0.763448,0.035672,0.996160,0.079956,0.000000,0.000000,0.000000,-1,0.008532,-0.000690,-0.004107,0.001071,0.014201,0.002991
"2019-11-26 16:53:19.519 +0000",1574787199.518782,2.722753,-1.483298,-0.762622,0.035541,0.996174,0.079834,0.000000,0.000000,0.000000,-1,0.007475,0.000354,-0.006232,0.000623,0.010265,0.003067
"2019-11-26 16:53:19.539 +0000",1574787199.538758,2.723021,-1.483391,-0.762370,0.035481,0.996183,0.079757,0.000000,0.000000,0.000000,-1,0.005335,0.000367,-0.004111,0.000789,0.009387,0.001542
"2019-11-26 16:53:19.559 +0000",1574787199.558735,2.722688,-1.483498,-0.762685,0.035464,0.996192,0.079648,0.000000,0.000000,0.000000,-1,0.006386,-0.000668,-0.000922,0.000654,0.011514,0.001575
"2019-11-26 16:53:19.579 +0000",1574787199.578711,2.721417,-1.483579,-0.763942,0.035532,0.996199,0.079529,0.000000,0.000000,0.000000,-1,0.006384,0.000395,-0.000914,0.002630,0.015916,0.002319
"2019-11-26 16:53:19.599 +0000",1574787199.598687,2.720707,-1.483704,-0.764715,0.035538,0.996210,0.079391,0.000000,0.000000,0.000000,-1,0.007443,0.005701,-0.001936,0.000991,0.014471,0.001404
"2019-11-26 16:53:19.619 +0000",1574787199.618664,2.720233,-1.483841,-0.765282,0.035520,0.996222,0.079250,0.000000,0.000000,0.000000,-1,0.005310,0.004643,-0.000887,0.000979,0.011896,-0.000179
"2019-11-26 16:53:19.639 +0000",1574787199.638640,2.720722,-1.484039,-0.764833,0.035401,0.996239,0.079087,0.000000,0.000000,0.000000,-1,0.008546,-0.000690,-0.007270,-0.000626,0.014763,-0.000428
"2019-11-26 16:53:19.659 +0000",1574787199.658617,2.723388,-1.484319,-0.762040,0.035077,0.996263,0.078927,0.000000,0.000000,0.000000,-1,0.009676,-0.009266,-0.016906,-0.000165,0.019804,0.002021
"2019-11-26 16:53:19.679 +0000",1574787199.678594,2.727374,-1.484714,-0.757746,0.034603,0.996297,0.078705,0.000000,0.000000,0.000000,-1,0.011872,-0.018902,-0.026545,0.000767,0.018992,0.001801
"2019-11-26 16:53:19.699 +0000",1574787199.698571,2.732089,-1.485165,-0.752435,0.034053,0.996336,0.078455,0.000000,0.000000,0.000000,-1,0.007693,-0.034925,-0.036254,0.002904,0.016375,0.000174
"2019-11-26 16:53:19.719 +0000",1574787199.718545,2.737735,-1.485518,-0.746072,0.033471,0.996366,0.078323,0.000000,0.000000,0.000000,-1,0.002425,-0.025491,-0.051102,0.008765,0.022204,0.002686
"2019-11-26 16:53:19.739 +0000",1574787199.738517,2.745864,-1.485638,-0.738054,0.032787,0.996376,0.078482,0.000000,0.000000,0.000000,-1,-0.007221,0.024375,-0.058222,0.022602,0.018455,0.004740
"2019-11-26 16:53:19.758 +0000",1574787199.758499,2.757393,-1.486332,-0.727149,0.031621,0.996435,0.078214,0.000000,0.000000,0.000000,-1,-0.002935,0.035994,-0.067697,0.005183,0.027231,-0.006024
"2019-11-26 16:53:19.778 +0000",1574787199.778476,2.771959,-1.486980,-0.712988,0.030245,0.996490,0.078063,0.000000,0.000000,0.000000,-1,-0.010325,0.015758,-0.072128,0.002256,0.004655,-0.005172
"2019-11-26 16:53:19.798 +0000",1574787199.798451,2.787568,-1.487371,-0.697450,0.028888,0.996522,0.078160,0.000000,0.000000,0.000000,-1,-0.008242,0.004194,-0.060476,-0.001254,-0.001664,-0.003880
"2019-11-26 16:53:19.818 +0000",1574787199.818427,2.798623,-1.487596,-0.686371,0.027947,0.996541,0.078265,0.000000,0.000000,0.000000,-1,0.002349,-0.005232,-0.045606,0.008201,0.005519,-0.003222
"2019-11-26 16:53:19.838 +0000",1574787199.838404,2.802852,-1.487558,-0.682190,0.027628,0.996538,0.078418,0.000000,0.000000,0.000000,-1,0.005410,0.012991,-0.026305,0.008428,0.009673,0.005490
"2019-11-26 16:53:19.858 +0000",1574787199.858380,2.806156,-1.487797,-0.679010,0.027291,0.996558,0.078284,0.000000,0.000000,0.000000,-1,0.020244,-0.001697,-0.006138,-0.003640,0.010477,0.008813
"2019-11-26 16:53:19.878 +0000",1574787199.878348,2.802503,-1.487976,-0.682190,0.027517,0.996572,0.078015,0.000000,0.000000,0.000000,-1,0.020300,-0.030387,-0.006345,0.007151,0.036966,0.005038
"2019-11-26 16:53:19.898 +0000",1574787199.898332,2.800174,-1.487886,-0.684035,0.027728,0.996565,0.078035,0.000000,0.000000,0.000000,-1,0.011675,-0.017523,0.009680,0.004864,-0.001783,0.006255
"2019-11-26 16:53:19.918 +0000",1574787199.918309,2.794926,-1.487698,-0.688855,0.028202,0.996549,0.078065,0.000000,0.000000,0.000000,-1,0.018105,-0.022876,0.003282,0.013607,-0.013624,0.014143
"2019-11-26 16:53:19.938 +0000",1574787199.938285,2.793071,-1.487845,-0.689871,0.028296,0.996562,0.077875,0.000000,0.000000,0.000000,-1,0.024674,-0.045401,-0.024524,0.010629,0.010839,0.011374
"2019-11-26 16:53:19.958 +0000",1574787199.958261,2.792007,-1.488082,-0.690170,0.028298,0.996581,0.077623,0.000000,0.000000,0.000000,-1,0.023584,-0.029476,-0.029711,0.008750,0.016175,0.002516
"2019-11-26 16:53:19.978 +0000",1574787199.978238,2.793238,-1.488458,-0.688769,0.028074,0.996612,0.077305,0.000000,0.000000,0.000000,-1,0.009538,0.008958,-0.003943,0.005892,0.029862,0.003566
"2019-11-26 16:53:19.998 +0000",1574787199.998213,2.791177,-1.488440,-0.691607,0.028240,0.996611,0.077264,0.000000,0.000000,0.000000,-1,0.003766,0.057328,0.066619,-0.008281,0.026323,0.002494
"2019-11-26 16:53:20.018 +0000",1574787200.018191,2.777667,-1.487807,-0.705936,0.029506,0.996558,0.077465,0.000000,0.000000,0.000000,-1,-0.006793,0.026452,0.061034,-0.001323,-0.000419,0.000324
"2019-11-26 16:53:20.038 +0000",1574787200.038151,2.768682,-1.487404,-0.715367,0.030347,0.996525,0.077571,0.000000,0.000000,0.000000,-1,-0.000200,0.019780,0.022701,0.002750,0.006359,0.000554
"2019-11-26 16:53:20.058 +0000",1574787200.058123,2.769782,-1.487625,-0.714608,0.030182,0.996543,0.077399,0.000000,0.000000,0.000000,-1,0.013771,0.016421,-0.001748,-0.000717,-0.002647,0.000436
"2019-11-26 16:53:20.078 +0000",1574787200.078120,2.770216,-1.487942,-0.714263,0.030034,0.996570,0.077119,0.000000,0.000000,0.000000,-1,0.002176,-0.004971,-0.016846,0.005153,-0.028949,-0.004319
"2019-11-26 16:53:20.098 +0000",1574787200.098074,2.776100,-1.488471,-0.708264,0.029391,0.996613,0.076801,0.000000,0.000000,0.000000,-1,0.001954,0.000683,0.025757,-0.033648,0.036270,-0.008335
"2019-11-26 16:53:20.118 +0000",1574787200.118071,2.766488,-1.488446,-0.717615,0.030136,0.996611,0.076537,0.000000,0.000000,0.000000,-1,-0.031946,-0.028251,-0.002226,0.006500,0.010133,-0.013275
"2019-11-26 16:53:20.138 +0000",1574787200.138050,2.768834,-1.488632,-0.714870,0.029889,0.996626,0.076436,0.000000,0.000000,0.000000,-1,-0.012859,-0.001610,0.003358,0.002658,0.012865,-0.005147
"2019-11-26 16:53:20.158 +0000",1574787200.158013,2.769739,-1.488408,-0.713943,0.029902,0.996608,0.076671,0.000000,0.000000,0.000000,-1,-0.010675,0.000425,-0.008324,0.005407,-0.010722,-0.004818
"2019-11-26 16:53:20.178 +0000",1574787200.177979,2.768581,-1.488669,-0.715137,0.029895,0.996629,0.076394,0.000000,0.000000,0.000000,-1,-0.009590,0.004635,-0.013609,0.005093,0.020857,-0.011056
"2019-11-26 16:53:20.198 +0000",1574787200.197978,2.768834,-1.489121,-0.714942,0.029712,0.996666,0.075982,0.000000,0.000000,0.000000,-1,-0.011692,0.005651,-0.018929,0.003995,0.026130,-0.012139
"2019-11-26 16:53:20.218 +0000",1574787200.217943,2.772515,-1.489192,-0.711482,0.029406,0.996672,0.076024,0.000000,0.000000,0.000000,-1,-0.012794,0.014184,-0.014614,0.004407,0.017244,-0.008870
"2019-11-26 16:53:20.238 +0000",1574787200.237923,2.773845,-1.488950,-0.710498,0.029392,0.996652,0.076288,0.000000,0.000000,0.000000,-1,-0.011783,0.019567,-0.006057,0.005398,-0.000894,0.001180
"2019-11-26 16:53:20.258 +0000",1574787200.257907,2.774152,-1.488694,-0.710533,0.029460,0.996632,0.076536,0.000000,0.000000,0.000000,-1,-0.004273,0.015253,-0.015636,0.008183,0.012417,0.001437
"2019-11-26 16:53:20.278 +0000",1574787200.277883,2.778128,-1.488710,-0.706610,0.029150,0.996633,0.076636,0.000000,0.000000,0.000000,-1,-0.002074,-0.000760,-0.029559,0.010035,0.020014,0.002923
"2019-11-26 16:53:20.298 +0000",1574787200.297861,2.782856,-1.488175,-0.701776,0.028974,0.996589,0.077273,0.000000,0.000000,0.000000,-1,-0.004222,-0.006034,-0.024283,0.009005,0.007928,0.016126
"2019-11-26 16:53:20.318 +0000",1574787200.317836,2.785642,-1.487255,-0.698958,0.029079,0.996512,0.078213,0.000000,0.000000,0.000000,-1,-0.006428,0.003611,-0.013577,0.010671,0.006905,0.018299
"2019-11-26 16:53:20.338 +0000",1574787200.337813,2.787598,-1.486923,-0.697173,0.029040,0.996485,0.078581,0.000000,0.000000,0.000000,-1,-0.003263,0.012134,-0.011374,0.010190,0.016989,0.014498
"2019-11-26 16:53:20.358 +0000",1574787200.357790,2.787223,-1.486584,-0.697892,0.029187,0.996456,0.078886,0.000000,0.000000,0.000000,-1,-0.008633,0.021731,-0.006001,0.009036,0.022343,0.004716
"2019-11-26 16:53:20.378 +0000",1574787200.377767,2.786514,-1.485745,-0.699214,0.029534,0.996385,0.079650,0.000000,0.000000,0.000000,-1,-0.011926,0.037766,0.006875,0.008186,-0.002168,0.014024
"2019-11-26 16:53:20.398 +0000",1574787200.397717,2.786209,-1.485188,-0.700428,0.029751,0.996338,0.080162,0.000000,0.000000,0.000000,-1,-0.003440,0.050541,0.008064,0.005497,-0.005951,0.014626
"2019-11-26 16:53:20.418 +0000",1574787200.417718,2.789353,-1.485126,-0.698199,0.029520,0.996333,0.080312,0.000000,0.000000,0.000000,-1,0.005145,0.037737,-0.000511,-0.007807,0.017004,0.000926
"2019-11-26 16:53:20.438 +0000",1574787200.437694,2.793984,-1.485693,-0.693862,0.028956,0.996381,0.079917,0.000000,0.000000,0.000000,-1,0.000957,-0.001595,-0.006097,-0.010035,0.030749,-0.006705
"2019-11-26 16:53:20.458 +0000",1574787200.457672,2.798227,-1.485754,-0.689199,0.028596,0.996386,0.079982,0.000000,0.000000,0.000000,-1,-0.007477,-0.030342,-0.011660,-0.009354,0.022932,0.001058
"2019-11-26 16:53:20.478 +0000",1574787200.477647,2.807203,-1.485700,-0.679510,0.027894,0.996381,0.080286,0.000000,0.000000,0.000000,-1,-0.003164,-0.038895,-0.019157,-0.011018,-0.001447,0.002203
"2019-11-26 16:53:20.498 +0000",1574787200.497624,2.818374,-1.486301,-0.667330,0.026805,0.996432,0.080025,0.000000,0.000000,0.000000,-1,0.006501,-0.061252,-0.026737,-0.016353,0.019925,-0.005165
"2019-11-26 16:53:20.518 +0000",1574787200.517598,2.825878,-1.486816,-0.658114,0.026045,0.996476,0.079736,0.000000,0.000000,0.000000,-1,0.001279,-0.098495,-0.032349,-0.011870,0.029068,-0.006006
"2019-11-26 16:53:20.538 +0000",1574787200.537576,2.830633,-1.486755,-0.651193,0.025684,0.996471,0.079917,0.000000,0.000000,0.000000,-1,0.003441,-0.107018,-0.035595,0.005978,-0.000957,0.009667
"2019-11-26 16:53:20.558 +0000",1574787200.557554,2.836198,-1.486878,-0.643599,0.025202,0.996481,0.079941,0.000000,0.000000,0.000000,-1,0.011932,-0.094251,-0.035470,-0.000925,-0.006933,0.001526
"2019-11-26 16:53:20.578 +0000",1574787200.577520,2.840517,-1.487379,-0.637377,0.024708,0.996523,0.079572,0.000000,0.000000,0.000000,-1,0.020406,-0.096285,-0.025876,-0.002614,0.004072,0.002612
"2019-11-26 16:53:20.598 +0000",1574787200.597506,2.837378,-1.487905,-0.638614,0.024801,0.996566,0.078994,0.000000,0.000000,0.000000,-1,0.014955,-0.090829,-0.011951,0.010309,0.024994,-0.000900
"2019-11-26 16:53:20.617 +0000",1574787200.617482,2.828396,-1.488031,-0.645987,0.025471,0.996577,0.078649,0.000000,0.000000,0.000000,-1,0.002115,-0.069565,-0.007584,0.018780,0.016317,-0.003591
"2019-11-26 16:53:20.637 +0000",1574787200.637458,2.825515,-1.488091,-0.647969,0.025679,0.996582,0.078519,0.000000,0.000000,0.000000,-1,-0.001100,-0.027169,-0.020055,0.020464,0.011719,-0.003583
"2019-11-26 16:53:20.657 +0000",1574787200.657434,2.825731,-1.488277,-0.647560,0.025605,0.996597,0.078349,0.000000,0.000000,0.000000,-1,0.005324,0.000324,-0.037919,0.012802,0.006561,-0.001795
"2019-11-26 16:53:20.677 +0000",1574787200.677410,2.828734,-1.488495,-0.644581,0.025302,0.996615,0.078218,0.000000,0.000000,0.000000,-1,0.004269,0.003485,-0.041090,0.011761,0.014295,0.000762
"2019-11-26 16:53:20.697 +0000",1574787200.697388,2.834701,-1.488587,-0.638686,0.024807,0.996623,0.078279,0.000000,0.000000,0.000000,-1,-0.004307,0.005680,-0.030464,0.010548,0.018895,0.003462
"2019-11-26 16:53:20.717 +0000",1574787200.717363,2.836241,-1.488450,-0.637244,0.024728,0.996611,0.078449,0.000000,0.000000,0.000000,-1,-0.011817,0.007877,-0.019832,0.010551,0.015901,-0.000644
"2019-11-26 16:53:20.737 +0000",1574787200.737339,2.835402,-1.488246,-0.638306,0.024855,0.996595,0.078621,0.000000,0.000000,0.000000,-1,-0.010824,0.017528,-0.009115,0.009706,0.008349,-0.001549
"2019-11-26 16:53:20.757 +0000",1574787200.757316,2.834869,-1.488122,-0.639287,0.024934,0.996584,0.078726,0.000000,0.000000,0.000000,-1,-0.008800,0.026134,-0.000466,0.009474,0.006681,-0.004096
"2019-11-26 16:53:20.777 +0000",1574787200.777294,2.830029,-1.488092,-0.644772,0.025324,0.996582,0.078632,0.000000,0.000000,0.000000,-1,-0.007753,0.035699,-0.000390,0.009512,0.015152,-0.006062
"2019-11-26 16:53:20.797 +0000",1574787200.797267,2.828868,-1.488273,-0.646689,0.025360,0.996597,0.078432,0.000000,0.000000,0.000000,-1,-0.009855,0.044128,-0.008849,0.002564,0.019150,-0.010088
"2019-11-26 16:53:20.817 +0000",1574787200.817247,2.832446,-1.488259,-0.644057,0.025083,0.996596,0.078535,0.000000,0.000000,0.000000,-1,-0.016199,0.046165,-0.018435,0.006823,0.019319,-0.007948
"2019-11-26 16:53:20.837 +0000",1574787200.837222,2.841883,-1.488046,-0.635474,0.024404,0.996578,0.078972,0.000000,0.000000,0.000000,-1,-0.017308,0.044115,-0.008878,-0.011602,0.007160,0.003441
"2019-11-26 16:53:20.857 +0000",1574787200.857197,2.842343,-1.487744,-0.636075,0.024456,0.996553,0.079271,0.000000,0.000000,0.000000,-1,-0.016300,0.056919,-0.002395,0.009357,0.017393,0.001082
"2019-11-26 16:53:20.877 +0000",1574787200.877175,2.842099,-1.487475,-0.637484,0.024554,0.996531,0.079520,0.000000,0.000000,0.000000,-1,-0.016365,0.065496,0.007245,-0.000003,0.019064,-0.005148
"2019-11-26 16:53:20.897 +0000",1574787200.897142,2.843646,-1.487273,-0.637510,0.024491,0.996514,0.079752,0.000000,0.000000,0.000000,-1,-0.020708,0.081513,0.017986,-0.005936,0.011344,-0.002954
"2019-11-26 16:53:20.917 +0000",1574787200.917126,2.844613,-1.486715,-0.638180,0.024576,0.996467,0.080306,0.000000,0.000000,0.000000,-1,-0.018593,0.080480,0.021178,-0.008112,0.004403,0.005234
"2019-11-26 16:53:20.937 +0000",1574787200.937103,2.844744,-1.485898,-0.639667,0.024803,0.996398,0.081087,0.000000,0.000000,0.000000,-1,-0.016463,0.077255,0.011669,0.004204,0.004059,0.008497
"2019-11-26 16:53:20.957 +0000",1574787200.957079,2.845410,-1.485291,-0.640280,0.024926,0.996347,0.081682,0.000000,0.000000,0.000000,-1,-0.018477,0.059059,-0.004433,0.003639,0.009299,0.004927
"2019-11-26 16:53:20.977 +0000",1574787200.977025,2.851867,-1.484880,-0.634970,0.024515,0.996311,0.082234,0.000000,0.000000,0.000000,-1,-0.024835,0.056880,-0.009794,-0.005518,0.011211,0.004237
"2019-11-26 16:53:20.997 +0000",1574787200.997033,2.863296,-1.484251,-0.624556,0.023746,0.996257,0.083112,0.000000,0.000000,0.000000,-1,-0.031196,0.045172,-0.010969,-0.008350,0.014287,0.008822
"2019-11-26 16:53:21.017 +0000",1574787201.017008,2.874734,-1.483473,-0.613737,0.022998,0.996190,0.084125,0.000000,0.000000,0.000000,-1,-0.029038,0.019708,-0.006892,-0.012515,0.014995,0.010586
"2019-11-26 16:53:21.037 +0000",1574787201.036983,2.878396,-1.482867,-0.610141,0.022847,0.996137,0.084792,0.000000,0.000000,0.000000,-1,-0.023671,-0.002598,-0.007034,0.000224,0.018359,0.008775
"2019-11-26 16:53:21.057 +0000",1574787201.056962,2.881607,-1.482252,-0.606911,0.022732,0.996082,0.085457,0.000000,0.000000,0.000000,-1,-0.023695,0.003795,-0.004860,-0.001370,0.002941,0.005272
"2019-11-26 16:53:21.077 +0000",1574787201.076937,2.887740,-1.481269,-0.600986,0.022453,0.995995,0.086542,0.000000,0.000000,0.000000,-1,-0.030148,0.015498,-0.003667,-0.004784,-0.001412,0.013799
"2019-11-26 16:53:21.097 +0000",1574787201.096914,2.894092,-1.480501,-0.595035,0.022091,0.995926,0.087425,0.000000,0.000000,0.000000,-1,-0.032230,0.020714,-0.015343,-0.005199,0.006393,0.010521
"2019-11-26 16:53:21.117 +0000",1574787201.116891,2.907443,-1.479974,-0.581385,0.021043,0.995879,0.088222,0.000000,0.000000,0.000000,-1,-0.022546,-0.033453,-0.014641,-0.020051,0.019808,0.007237
"2019-11-26 16:53:21.137 +0000",1574787201.136867,2.913449,-1.479582,-0.574456,0.020601,0.995843,0.088728,0.000000,0.000000,0.000000,-1,-0.026787,-0.055732,-0.009499,0.000059,0.035132,0.002749
"2019-11-26 16:53:21.157 +0000",1574787201.156842,2.915727,-1.479061,-0.570593,0.020516,0.995795,0.089281,0.000000,0.000000,0.000000,-1,-0.023495,-0.088718,-0.016112,0.000908,0.010736,0.003981
"2019-11-26 16:53:21.177 +0000",1574787201.176785,2.920196,-1.478705,-0.564399,0.020194,0.995763,0.089716,0.000000,0.000000,0.000000,-1,-0.017032,-0.083531,-0.033076,0.001214,-0.007314,0.001180
"2019-11-26 16:53:21.197 +0000",1574787201.196795,2.922054,-1.478661,-0.561086,0.020037,0.995759,0.089796,0.000000,0.000000,0.000000,-1,-0.017057,-0.060188,-0.037161,0.013594,0.009536,-0.003828
"2019-11-26 16:53:21.217 +0000",1574787201.216773,2.925898,-1.478427,-0.556415,0.019741,0.995737,0.090101,0.000000,0.000000,0.000000,-1,-0.029931,-0.021922,-0.032673,0.015705,0.021093,-0.006406
"2019-11-26 16:53:21.237 +0000",1574787201.236749,2.925420,-1.478126,-0.556907,0.019849,0.995709,0.090384,0.000000,0.000000,0.000000,-1,-0.034332,0.015331,-0.025935,0.015613,0.027087,-0.006857
"2019-11-26 16:53:21.257 +0000",1574787201.256725,2.926512,-1.477739,-0.556292,0.019832,0.995673,0.090782,0.000000,0.000000,0.000000,-1,-0.030079,0.032297,-0.031114,0.010975,0.001473,-0.005714
"2019-11-26 16:53:21.277 +0000",1574787201.276700,2.933410,-1.477449,-0.550191,0.019265,0.995646,0.091199,0.000000,0.000000,0.000000,-1,-0.010975,0.044079,-0.023507,0.004493,-0.001551,0.000445
"2019-11-26 16:53:21.297 +0000",1574787201.296677,2.936523,-1.477330,-0.547954,0.019005,0.995635,0.091375,0.000000,0.000000,0.000000,-1,-0.001502,0.043212,-0.001131,-0.003869,0.000535,0.003611
"2019-11-26 16:53:21.317 +0000",1574787201.316654,2.936996,-1.477100,-0.548412,0.019009,0.995614,0.091608,0.000000,0.000000,0.000000,-1,-0.000575,0.047669,0.024444,-0.002285,0.003868,0.007147
"2019-11-26 16:53:21.337 +0000",1574787201.336621,2.931654,-1.476914,-0.554798,0.019537,0.995596,0.091687,0.000000,0.000000,0.000000,-1,-0.001732,0.050992,0.041490,-0.003851,0.008249,0.002551
"2019-11-26 16:53:21.357 +0000",1574787201.356607,2.922861,-1.476658,-0.564689,0.020397,0.995572,0.091759,0.000000,0.000000,0.000000,-1,-0.009255,0.054269,0.054255,0.000965,0.020175,-0.001961
"2019-11-26 16:53:21.377 +0000",1574787201.376582,2.908798,-1.476397,-0.579814,0.021745,0.995548,0.091717,0.000000,0.000000,0.000000,-1,-0.006014,0.049964,0.046789,0.009138,0.021863,-0.000545
"2019-11-26 16:53:21.397 +0000",1574787201.396535,2.902837,-1.476221,-0.586728,0.022333,0.995531,0.091755,0.000000,0.000000,0.000000,-1,0.001508,0.046658,0.027749,0.008551,0.021879,-0.000584
"2019-11-26 16:53:21.417 +0000",1574787201.416536,2.898324,-1.476051,-0.592038,0.022788,0.995515,0.091818,0.000000,0.000000,0.000000,-1,-0.004811,0.032764,0.019111,-0.002143,0.012023,0.002664
"2019-11-26 16:53:21.437 +0000",1574787201.436512,2.900528,-1.475797,-0.590212,0.022646,0.995491,0.092113,0.000000,0.000000,0.000000,-1,-0.010086,0.008315,0.018911,-0.012788,-0.001457,0.004566
"2019-11-26 16:53:21.456 +0000",1574787201.456487,2.897992,-1.475476,-0.592701,0.022956,0.995460,0.092366,0.000000,0.000000,0.000000,-1,-0.001575,-0.009666,0.027325,-0.006736,-0.001015,0.005626
"2019-11-26 16:53:21.476 +0000",1574787201.476465,2.891977,-1.475253,-0.598381,0.023566,0.995439,0.092442,0.000000,0.000000,0.000000,-1,0.012231,-0.021236,0.038998,-0.003608,-0.000124,0.009792
"2019-11-26 16:53:21.496 +0000",1574787201.496407,2.881013,-1.475109,-0.608905,0.024615,0.995425,0.092316,0.000000,0.000000,0.000000,-1,0.023853,-0.027429,0.059215,-0.002399,0.003934,0.010925
"2019-11-26 16:53:21.516 +0000",1574787201.516417,2.866049,-1.474646,-0.623354,0.026119,0.995381,0.092381,0.000000,0.000000,0.000000,-1,0.026968,-0.031538,0.076224,0.002094,0.012523,0.012676
"2019-11-26 16:53:21.536 +0000",1574787201.536393,2.846356,-1.474189,-0.642495,0.028066,0.995337,0.092283,0.000000,0.000000,0.000000,-1,0.022679,-0.030440,0.081538,0.005580,0.017099,0.010149
"2019-11-26 16:53:21.556 +0000",1574787201.556361,2.827358,-1.473768,-0.661028,0.029944,0.995296,0.092133,0.000000,0.000000,0.000000,-1,0.020549,-0.024071,0.074247,0.006601,0.018803,0.006850
"2019-11-26 16:53:21.576 +0000",1574787201.576347,2.811584,-1.473384,-0.676396,0.031517,0.995259,0.092010,0.000000,0.000000,0.000000,-1,0.011063,-0.020008,0.052959,0.006279,0.021068,0.005829
"2019-11-26 16:53:21.596 +0000",1574787201.596323,2.802507,-1.473003,-0.685246,0.032477,0.995222,0.092078,0.000000,0.000000,0.000000,-1,0.000505,-0.006400,0.029608,0.003626,0.019640,0.005563
"2019-11-26 16:53:21.616 +0000",1574787201.616300,2.798974,-1.472506,-0.688893,0.032968,0.995173,0.092428,0.000000,0.000000,0.000000,-1,-0.004797,0.011561,0.018013,0.001517,0.014714,0.005579
"2019-11-26 16:53:21.636 +0000",1574787201.636276,2.797426,-1.472126,-0.690789,0.033239,0.995136,0.092733,0.000000,0.000000,0.000000,-1,-0.007965,0.018926,0.009542,0.000483,0.010037,0.003596
"2019-11-26 16:53:21.656 +0000",1574787201.656252,2.797594,-1.471919,-0.691057,0.033292,0.995116,0.092932,0.000000,0.000000,0.000000,-1,-0.005817,0.023137,0.004259,-0.000623,0.005769,0.000238
"2019-11-26 16:53:21.676 +0000",1574787201.676156,2.799312,-1.471818,-0.689888,0.033166,0.995106,0.093084,0.000000,0.000000,0.000000,-1,-0.000499,0.028451,0.003253,-0.002206,0.003689,0.001993
"2019-11-26 16:53:21.696 +0000",1574787201.696133,2.799041,-1.471902,-0.690685,0.033164,0.995114,0.092997,0.000000,0.000000,0.000000,-1,0.004809,0.023190,0.008555,-0.000311,0.011447,-0.000635
"2019-11-26 16:53:21.716 +0000",1574787201.716108,2.797819,-1.471903,-0.692286,0.033277,0.995114,0.092955,0.000000,0.000000,0.000000,-1,0.001583,0.014776,0.017106,-0.003141,0.015781,0.001420
"2019-11-26 16:53:21.736 +0000",1574787201.736086,2.797738,-1.471929,-0.692631,0.033275,0.995117,0.092927,0.000000,0.000000,0.000000,-1,0.001594,0.009463,0.017066,-0.007259,0.012513,-0.001054
"2019-11-26 16:53:21.756 +0000",1574787201.756062,2.796644,-1.472029,-0.693793,0.033344,0.995126,0.092799,0.000000,0.000000,0.000000,-1,0.004796,-0.002195,0.020184,-0.007206,0.007819,-0.001673
"2019-11-26 16:53:21.776 +0000",1574787201.776037,2.795181,-1.472145,-0.695075,0.033440,0.995138,0.092640,0.000000,0.000000,0.000000,-1,0.010161,-0.014962,0.016918,-0.006325,0.006068,-0.000538
"2019-11-26 16:53:21.796 +0000",1574787201.796015,2.792876,-1.472451,-0.697037,0.033550,0.995168,0.092277,0.000000,0.000000,0.000000,-1,0.014452,-0.020301,0.012637,-0.003368,0.012568,-0.002342
"2019-11-26 16:53:21.816 +0000",1574787201.815990,2.789952,-1.472674,-0.699592,0.033743,0.995190,0.091970,0.000000,0.000000,0.000000,-1,0.012319,-0.018180,0.012644,-0.001608,0.013096,0.000254
"2019-11-26 16:53:21.836 +0000",1574787201.835966,2.787692,-1.472769,-0.701498,0.033918,0.995199,0.091805,0.000000,0.000000,0.000000,-1,0.010196,-0.019255,0.011564,-0.001371,0.007761,0.002052
"2019-11-26 16:53:21.856 +0000",1574787201.855943,2.786242,-1.472941,-0.702607,0.033991,0.995216,0.091596,0.000000,0.000000,0.000000,-1,0.010227,-0.016126,0.004137,0.000142,0.012505,0.000156
"2019-11-26 16:53:21.876 +0000",1574787201.875918,2.785435,-1.473235,-0.703113,0.033964,0.995245,0.091294,0.000000,0.000000,0.000000,-1,0.007106,-0.011966,-0.008491,0.001422,0.017695,-0.002915
"2019-11-26 16:53:21.896 +0000",1574787201.895896,2.786017,-1.473655,-0.702396,0.033764,0.995285,0.090921,0.000000,0.000000,0.000000,-1,-0.002434,-0.003575,-0.020171,0.004154,0.016845,-0.008280
"2019-11-26 16:53:21.916 +0000",1574787201.915873,2.787768,-1.473886,-0.700588,0.033526,0.995308,0.090764,0.000000,0.000000,0.000000,-1,-0.010938,0.000626,-0.024428,0.006025,0.011620,-0.006795
"2019-11-26 16:53:21.936 +0000",1574787201.935850,2.792279,-1.473921,-0.696125,0.033104,0.995311,0.090883,0.000000,0.000000,0.000000,-1,-0.010919,0.004834,-0.029718,0.008247,0.011357,-0.006471
"2019-11-26 16:53:21.956 +0000",1574787201.955824,2.795247,-1.474133,-0.693251,0.032762,0.995332,0.090781,0.000000,0.000000,0.000000,-1,-0.006653,0.010128,-0.032855,0.007231,0.015578,-0.004402
"2019-11-26 16:53:21.976 +0000",1574787201.975800,2.799141,-1.474464,-0.689552,0.032298,0.995364,0.090598,0.000000,0.000000,0.000000,-1,0.000764,0.012318,-0.026425,0.003743,0.010160,-0.003379
"2019-11-26 16:53:21.996 +0000",1574787201.995776,2.799969,-1.474826,-0.688909,0.032102,0.995398,0.090285,0.000000,0.000000,0.000000,-1,0.009178,0.009324,-0.004068,0.002032,0.006219,-0.003799
"2019-11-26 16:53:22.016 +0000",1574787202.015754,2.796054,-1.475062,-0.692995,0.032376,0.995421,0.089938,0.000000,0.000000,0.000000,-1,0.015443,0.007414,0.021481,0.001254,0.008333,-0.003375
"2019-11-26 16:53:22.036 +0000",1574787202.035714,2.788594,-1.475315,-0.700598,0.032959,0.995445,0.089458,0.000000,0.000000,0.000000,-1,0.018619,0.003272,0.034358,0.000961,0.011314,0.000020
"2019-11-26 16:53:22.056 +0000",1574787202.055706,2.780067,-1.475514,-0.709112,0.033651,0.995464,0.088988,0.000000,0.000000,0.000000,-1,0.019701,-0.005227,0.034300,-0.001287,0.011585,-0.000289
"2019-11-26 16:53:22.076 +0000",1574787202.075657,2.773286,-1.475634,-0.715748,0.034210,0.995475,0.088647,0.000000,0.000000,0.000000,-1,0.017614,-0.010594,0.027868,-0.002518,0.010475,0.003028
"2019-11-26 16:53:22.096 +0000",1574787202.095656,2.770503,-1.475645,-0.718322,0.034453,0.995477,0.088541,0.000000,0.000000,0.000000,-1,0.017665,-0.012796,0.018274,-0.002379,0.014030,0.007407
"2019-11-26 16:53:22.116 +0000",1574787202.115635,2.768799,-1.475672,-0.719793,0.034594,0.995479,0.088457,0.000000,0.000000,0.000000,-1,0.011332,-0.011838,0.006551,-0.002291,0.017064,0.005141
"2019-11-26 16:53:22.136 +0000",1574787202.135603,2.769593,-1.475639,-0.718783,0.034536,0.995476,0.088515,0.000000,0.000000,0.000000,-1,0.001775,-0.011898,0.001193,-0.001806,0.016640,0.005555
"2019-11-26 16:53:22.156 +0000",1574787202.155572,2.772283,-1.475436,-0.715896,0.034370,0.995457,0.088796,0.000000,0.000000,0.000000,-1,-0.000345,-0.006622,-0.003033,-0.003914,0.010235,0.010310
"2019-11-26 16:53:22.176 +0000",1574787202.175564,2.776261,-1.475196,-0.711890,0.034102,0.995434,0.089155,0.000000,0.000000,0.000000,-1,-0.000327,-0.000298,-0.009373,-0.002425,0.009647,0.009081
"2019-11-26 16:53:22.196 +0000",1574787202.195540,2.780150,-1.475036,-0.707992,0.033811,0.995419,0.089436,0.000000,0.000000,0.000000,-1,0.000796,0.001792,-0.012442,-0.000883,0.009617,0.007915
"2019-11-26 16:53:22.216 +0000",1574787202.215507,2.782866,-1.475058,-0.705313,0.033561,0.995421,0.089507,0.000000,0.000000,0.000000,-1,0.002909,0.001821,-0.009241,-0.000434,0.009233,0.002702
"2019-11-26 16:53:22.235 +0000",1574787202.235493,2.784151,-1.475052,-0.704119,0.033448,0.995420,0.089556,0.000000,0.000000,0.000000,-1,-0.000313,0.005037,-0.004973,0.001281,0.018145,0.002424
"2019-11-26 16:53:22.255 +0000",1574787202.255470,2.784836,-1.475103,-0.703537,0.033369,0.995425,0.089531,0.000000,0.000000,0.000000,-1,-0.003504,0.006086,-0.006042,0.002245,0.017347,-0.002602
"2019-11-26 16:53:22.275 +0000",1574787202.275446,2.786613,-1.475287,-0.701920,0.033146,0.995442,0.089418,0.000000,0.000000,0.000000,-1,-0.006657,0.012371,-0.016649,0.000744,0.011119,-0.003908
"2019-11-26 16:53:22.295 +0000",1574787202.295418,2.790735,-1.475485,-0.698014,0.032709,0.995461,0.089369,0.000000,0.000000,0.000000,-1,-0.007674,0.010175,-0.025182,0.001425,0.011741,-0.003325
"2019-11-26 16:53:22.315 +0000",1574787202.315399,2.795654,-1.475717,-0.693240,0.032191,0.995483,0.089312,0.000000,0.000000,0.000000,-1,-0.012975,0.010132,-0.029459,0.002279,0.011780,-0.007753
"2019-11-26 16:53:22.335 +0000",1574787202.335376,2.800991,-1.475968,-0.687995,0.031630,0.995507,0.089247,0.000000,0.000000,0.000000,-1,-0.010823,0.004806,-0.031617,0.002534,0.011405,-0.008574
"2019-11-26 16:53:22.355 +0000",1574787202.355351,2.806455,-1.476279,-0.682496,0.031041,0.995537,0.089127,0.000000,0.000000,0.000000,-1,-0.010754,-0.002651,-0.032668,0.002254,0.014733,-0.007858
"2019-11-26 16:53:22.375 +0000",1574787202.375327,2.810903,-1.476433,-0.677864,0.030594,0.995551,0.089119,0.000000,0.000000,0.000000,-1,-0.009711,-0.010028,-0.025268,0.002991,0.011560,-0.003517
"2019-11-26 16:53:22.395 +0000",1574787202.395304,2.814385,-1.476457,-0.674115,0.030276,0.995553,0.089202,0.000000,0.000000,0.000000,-1,-0.008660,-0.013179,-0.021030,0.003614,0.014105,-0.001357
"2019-11-26 16:53:22.415 +0000",1574787202.415280,2.817595,-1.476395,-0.670659,0.030009,0.995548,0.089356,0.000000,0.000000,0.000000,-1,-0.009747,-0.009968,-0.017818,0.002783,0.014035,0.001998
"2019-11-26 16:53:22.435 +0000",1574787202.435258,2.820296,-1.476282,-0.667743,0.029803,0.995537,0.089545,0.000000,0.000000,0.000000,-1,-0.005517,-0.008855,-0.012473,0.002500,0.005409,0.001504
"2019-11-26 16:53:22.455 +0000",1574787202.455233,2.821266,-1.476112,-0.666653,0.029769,0.995521,0.089734,0.000000,0.000000,0.000000,-1,-0.001294,-0.004555,-0.007105,0.003968,0.004983,0.005374
"2019-11-26 16:53:22.475 +0000",1574787202.475210,2.821928,-1.475917,-0.665934,0.029771,0.995502,0.089939,0.000000,0.000000,0.000000,-1,-0.001309,-0.000296,-0.006009,0.002516,0.014660,0.005078
"2019-11-26 16:53:22.495 +0000",1574787202.495186,2.823732,-1.475730,-0.664172,0.029667,0.995485,0.090168,0.000000,0.000000,0.000000,-1,-0.006630,0.006045,-0.009175,0.001568,0.016799,0.003872
"2019-11-26 16:53:22.515 +0000",1574787202.515162,2.826746,-1.475503,-0.661216,0.029465,0.995463,0.090472,0.000000,0.000000,0.000000,-1,-0.012938,0.001722,-0.013447,0.001724,0.013967,0.005215
"2019-11-26 16:53:22.535 +0000",1574787202.535137,2.832532,-1.474993,-0.655368,0.029095,0.995414,0.091124,0.000000,0.000000,0.000000,-1,-0.024613,-0.003654,-0.018850,0.000949,0.007637,0.007326
"2019-11-26 16:53:22.555 +0000",1574787202.555114,2.838975,-1.474430,-0.648894,0.028675,0.995360,0.091845,0.000000,0.000000,0.000000,-1,-0.021406,0.004801,-0.025161,0.001812,0.011399,0.006360
"2019-11-26 16:53:22.575 +0000",1574787202.575092,2.845054,-1.473960,-0.642988,0.028252,0.995315,0.092465,0.000000,0.000000,0.000000,-1,-0.019301,0.011197,-0.022978,0.002753,0.011841,0.008609
"2019-11-26 16:53:22.595 +0000",1574787202.595067,2.850829,-1.473623,-0.637429,0.027814,0.995282,0.092947,0.000000,0.000000,0.000000,-1,-0.017188,0.011227,-0.019778,0.000247,0.010607,0.003549
"2019-11-26 16:53:22.615 +0000",1574787202.615044,2.855991,-1.473397,-0.632447,0.027397,0.995260,0.093306,0.000000,0.000000,0.000000,-1,-0.012917,0.008038,-0.020849,-0.001580,0.009699,0.001955
"2019-11-26 16:53:22.635 +0000",1574787202.635021,2.860725,-1.473296,-0.627981,0.026983,0.995251,0.093531,0.000000,0.000000,0.000000,-1,-0.001238,0.018701,-0.018600,0.001474,0.008366,0.002462
"2019-11-26 16:53:22.655 +0000",1574787202.654995,2.864273,-1.473217,-0.624817,0.026673,0.995243,0.093702,0.000000,0.000000,0.000000,-1,-0.002334,0.020867,-0.013267,0.002197,0.010403,0.006625
"2019-11-26 16:53:22.675 +0000",1574787202.674973,2.867109,-1.473161,-0.622336,0.026422,0.995237,0.093832,0.000000,0.000000,0.000000,-1,-0.002338,0.016669,-0.003698,-0.001688,0.008379,0.002878
"2019-11-26 16:53:22.695 +0000",1574787202.694949,2.869367,-1.473164,-0.620391,0.026209,0.995238,0.093888,0.000000,0.000000,0.000000,-1,0.002962,0.012479,0.002675,-0.005045,0.013109,0.004287
"2019-11-26 16:53:22.715 +0000",1574787202.714924,2.868846,-1.473238,-0.621118,0.026238,0.995245,0.093803,0.000000,0.000000,0.000000,-1,0.008278,0.008263,0.005857,-0.000924,0.012766,0.002999
"2019-11-26 16:53:22.735 +0000",1574787202.734902,2.867204,-1.473306,-0.622890,0.026374,0.995252,0.093695,0.000000,0.000000,0.000000,-1,0.008263,0.005110,0.010090,0.000436,0.012378,0.002939
"2019-11-26 16:53:22.755 +0000",1574787202.754879,2.865429,-1.473249,-0.624804,0.026556,0.995246,0.093703,0.000000,0.000000,0.000000,-1,0.007204,0.007216,0.007974,0.000696,0.007668,0.004976
"2019-11-26 16:53:22.775 +0000",1574787202.774852,2.864145,-1.473239,-0.626285,0.026679,0.995245,0.093678,0.000000,0.000000,0.000000,-1,0.010407,0.010384,0.004816,0.000787,0.012094,0.005520
"2019-11-26 16:53:22.795 +0000",1574787202.794830,2.863129,-1.473296,-0.627468,0.026758,0.995251,0.093596,0.000000,0.000000,0.000000,-1,0.005107,0.006099,0.001573,0.000463,0.019047,0.002473
"2019-11-26 16:53:22.815 +0000",1574787202.814808,2.863433,-1.473372,-0.627183,0.026709,0.995258,0.093532,0.000000,0.000000,0.000000,-1,0.004044,-0.002378,0.004699,-0.003745,0.014004,0.000676
"2019-11-26 16:53:22.835 +0000",1574787202.834781,2.863537,-1.473355,-0.627034,0.026704,0.995256,0.093551,0.000000,0.000000,0.000000,-1,0.008328,-0.003441,0.006845,-0.004716,0.010252,0.004304
"2019-11-26 16:53:22.855 +0000",1574787202.854761,2.861075,-1.473443,-0.629417,0.026910,0.995265,0.093401,0.000000,0.000000,0.000000,-1,0.014713,-0.004484,0.007925,0.001105,0.009481,0.002409
"2019-11-26 16:53:22.875 +0000",1574787202.874736,2.859335,-1.473642,-0.631068,0.027017,0.995284,0.093163,0.000000,0.000000,0.000000,-1,0.015779,-0.005545,0.007921,-0.002146,0.011002,0.001655
"2019-11-26 16:53:22.895 +0000",1574787202.894696,2.857098,-1.473944,-0.633182,0.027141,0.995313,0.092814,0.000000,0.000000,0.000000,-1,0.018968,-0.005530,0.008997,0.000035,0.013842,0.000829
"2019-11-26 16:53:22.915 +0000",1574787202.914688,2.854853,-1.474324,-0.635364,0.027243,0.995350,0.092390,0.000000,0.000000,0.000000,-1,0.020026,-0.004457,0.010073,-0.001119,0.014080,-0.000135
"2019-11-26 16:53:22.935 +0000",1574787202.934667,2.851591,-1.474632,-0.638539,0.027456,0.995380,0.092007,0.000000,0.000000,0.000000,-1,0.019992,-0.006523,0.017506,-0.003012,0.008298,0.000003
"2019-11-26 16:53:22.955 +0000",1574787202.954614,2.846727,-1.474918,-0.643231,0.027821,0.995407,0.091600,0.000000,0.000000,0.000000,-1,0.021033,-0.012837,0.024913,-0.002583,0.014160,-0.000459
"2019-11-26 16:53:22.975 +0000",1574787202.974617,2.839653,-1.475157,-0.650001,0.028397,0.995430,0.091173,0.000000,0.000000,0.000000,-1,0.023160,-0.017066,0.027018,0.000335,0.016029,0.003187
"2019-11-26 16:53:22.995 +0000",1574787202.994596,2.833107,-1.475401,-0.656179,0.028919,0.995453,0.090754,0.000000,0.000000,0.000000,-1,0.020038,-0.020339,0.020602,0.002056,0.018554,0.001135
"2019-11-26 16:53:23.015 +0000",1574787203.014541,2.827861,-1.475575,-0.661078,0.029342,0.995470,0.090436,0.000000,0.000000,0.000000,-1,0.015812,-0.018281,0.013152,0.001191,0.012846,-0.000028
"2019-11-26 16:53:23.035 +0000",1574787203.034547,2.825136,-1.475876,-0.663514,0.029495,0.995498,0.090072,0.000000,0.000000,0.000000,-1,0.019044,-0.013039,0.003625,-0.000320,0.010971,0.001191
"2019-11-26 16:53:23.055 +0000",1574787203.054524,2.825314,-1.476247,-0.663141,0.029364,0.995534,0.089726,0.000000,0.000000,0.000000,-1,0.016929,-0.009889,-0.000617,-0.002951,0.013149,0.003597
"2019-11-26 16:53:23.074 +0000",1574787203.074473,2.824819,-1.476507,-0.663411,0.029328,0.995558,0.089466,0.000000,0.000000,0.000000,-1,0.013728,-0.012002,0.001483,-0.000413,0.011385,0.002835
"2019-11-26 16:53:23.094 +0000",1574787203.094463,2.823643,-1.476757,-0.664318,0.029355,0.995582,0.089195,0.000000,0.000000,0.000000,-1,0.013735,-0.015190,0.001460,-0.001890,0.015542,0.002434
"2019-11-26 16:53:23.114 +0000",1574787203.114454,2.822522,-1.477163,-0.665205,0.029328,0.995620,0.088777,0.000000,0.000000,0.000000,-1,0.016931,-0.010951,-0.000626,-0.000428,0.013612,-0.000597
"2019-11-26 16:53:23.134 +0000",1574787203.134450,2.820257,-1.477600,-0.667275,0.029392,0.995660,0.088299,0.000000,0.000000,0.000000,-1,0.020102,-0.009849,0.003651,0.000668,0.010092,-0.001217
"2019-11-26 16:53:23.154 +0000",1574787203.154404,2.816216,-1.477988,-0.671021,0.029625,0.995696,0.087813,0.000000,0.000000,0.000000,-1,0.017985,-0.017261,0.009988,0.002006,0.011780,-0.002165
"2019-11-26 16:53:23.174 +0000",1574787203.174382,2.811707,-1.478294,-0.675235,0.029922,0.995725,0.087390,0.000000,0.000000,0.000000,-1,0.014785,-0.014079,0.010000,0.003159,0.020465,-0.001605
"2019-11-26 16:53:23.194 +0000",1574787203.194345,2.808071,-1.478620,-0.678705,0.030133,0.995755,0.086974,0.000000,0.000000,0.000000,-1,0.012666,-0.005625,0.004733,0.002734,0.014743,-0.001845
"2019-11-26 16:53:23.214 +0000",1574787203.214334,2.805422,-1.478885,-0.681356,0.030277,0.995779,0.086645,0.000000,0.000000,0.000000,-1,0.014780,0.001817,0.004795,0.002637,0.010080,0.000163
"2019-11-26 16:53:23.234 +0000",1574787203.234311,2.802507,-1.479088,-0.684281,0.030461,0.995798,0.086364,0.000000,0.000000,0.000000,-1,0.013711,-0.001355,0.006897,0.002681,0.010931,0.000062
"2019-11-26 16:53:23.254 +0000",1574787203.254265,2.798847,-1.479454,-0.687915,0.030655,0.995831,0.085910,0.000000,0.000000,0.000000,-1,0.015839,-0.000289,0.006913,0.001480,0.018039,-0.004153
"2019-11-26 16:53:23.274 +0000",1574787203.274264,2.795878,-1.479826,-0.690977,0.030784,0.995865,0.085470,0.000000,0.000000,0.000000,-1,0.015825,0.007149,0.006967,-0.000648,0.014267,-0.002202
"2019-11-26 16:53:23.294 +0000",1574787203.294240,2.792131,-1.480137,-0.694839,0.030999,0.995893,0.085064,0.000000,0.000000,0.000000,-1,0.012621,0.001865,0.011173,0.002235,0.010027,-0.001308
"2019-11-26 16:53:23.314 +0000",1574787203.314214,2.787462,-1.480387,-0.699532,0.031309,0.995916,0.084684,0.000000,0.000000,0.000000,-1,0.010531,0.001828,0.010126,0.002871,0.014353,-0.002637
"2019-11-26 16:53:23.334 +0000",1574787203.334193,2.784388,-1.480624,-0.702708,0.031486,0.995937,0.084366,0.000000,0.000000,0.000000,-1,0.009486,0.008151,0.003783,0.002678,0.017643,-0.001480
"2019-11-26 16:53:23.354 +0000",1574787203.354170,2.782187,-1.480820,-0.705185,0.031603,0.995955,0.084113,0.000000,0.000000,0.000000,-1,0.008401,0.015596,0.004898,0.001691,0.014680,-0.001807
"2019-11-26 16:53:23.374 +0000",1574787203.374119,2.780349,-1.480920,-0.707288,0.031723,0.995964,0.083962,0.000000,0.000000,0.000000,-1,0.005202,0.010303,0.008040,0.000031,0.010964,0.000602
"2019-11-26 16:53:23.394 +0000",1574787203.394121,2.778971,-1.481077,-0.708825,0.031783,0.995978,0.083772,0.000000,0.000000,0.000000,-1,0.007367,0.006013,0.002696,-0.001143,0.012460,-0.002886
"2019-11-26 16:53:23.414 +0000",1574787203.414099,2.778769,-1.481271,-0.709159,0.031731,0.995995,0.083585,0.000000,0.000000,0.000000,-1,0.008464,0.005964,-0.003686,0.000175,0.016029,-0.000120
"2019-11-26 16:53:23.434 +0000",1574787203.434065,2.778805,-1.481410,-0.709190,0.031679,0.996008,0.083457,0.000000,0.000000,0.000000,-1,0.003141,0.002776,-0.002664,0.001616,0.010431,-0.000037
"2019-11-26 16:53:23.454 +0000",1574787203.454050,2.779321,-1.481443,-0.708687,0.031624,0.996011,0.083442,0.000000,0.000000,0.000000,-1,0.003135,0.000667,-0.000552,-0.000786,0.008353,0.002053
"2019-11-26 16:53:23.474 +0000",1574787203.474028,2.779588,-1.481499,-0.708433,0.031582,0.996016,0.083398,0.000000,0.000000,0.000000,-1,0.004228,0.000649,0.000547,0.000202,0.013796,-0.000559
"2019-11-26 16:53:23.494 +0000",1574787203.493986,2.779466,-1.481738,-0.708469,0.031508,0.996037,0.083172,0.000000,0.000000,0.000000,-1,0.003179,-0.006791,0.000488,-0.003081,0.014629,-0.000179
"2019-11-26 16:53:23.514 +0000",1574787203.513979,2.778913,-1.481746,-0.708854,0.031552,0.996038,0.083148,0.000000,0.000000,0.000000,-1,0.003173,-0.008899,0.002601,-0.000210,0.012431,0.002668
"2019-11-26 16:53:23.534 +0000",1574787203.533956,2.777311,-1.481731,-0.710311,0.031690,0.996036,0.083111,0.000000,0.000000,0.000000,-1,0.005282,-0.006745,0.005817,0.001070,0.007763,0.001407
"2019-11-26 16:53:23.554 +0000",1574787203.553913,2.774897,-1.481807,-0.712723,0.031864,0.996043,0.082964,0.000000,0.000000,0.000000,-1,0.007392,0.002823,0.005895,0.000775,0.013433,-0.001619
"2019-11-26 16:53:23.574 +0000",1574787203.573908,2.773413,-1.481910,-0.714237,0.031950,0.996052,0.082820,0.000000,0.000000,0.000000,-1,0.006348,0.000670,0.002683,0.000262,0.013118,0.000554
"2019-11-26 16:53:23.594 +0000",1574787203.593885,2.772465,-1.481958,-0.715232,0.032011,0.996056,0.082746,0.000000,0.000000,0.000000,-1,0.003156,0.004898,0.000573,-0.000074,0.012672,0.004260
"2019-11-26 16:53:23.614 +0000",1574787203.613856,2.773492,-1.481859,-0.714382,0.031961,0.996048,0.082870,0.000000,0.000000,0.000000,-1,-0.001112,0.009141,0.000588,-0.001703,0.014084,0.002396
"2019-11-26 16:53:23.634 +0000",1574787203.633836,2.774142,-1.481764,-0.713923,0.031941,0.996039,0.082979,0.000000,0.000000,0.000000,-1,-0.003223,0.008063,0.002729,-0.001958,0.012368,0.002898
"2019-11-26 16:53:23.654 +0000",1574787203.653814,2.775872,-1.481649,-0.712307,0.031839,0.996029,0.083142,0.000000,0.000000,0.000000,-1,-0.004267,0.002731,0.000558,-0.002634,0.011845,0.000705
"2019-11-26 16:53:23.674 +0000",1574787203.673766,2.778651,-1.481632,-0.709520,0.031614,0.996027,0.083245,0.000000,0.000000,0.000000,-1,-0.005315,-0.002592,-0.000550,-0.006971,0.009618,0.002066
"2019-11-26 16:53:23.694 +0000",1574787203.693767,2.780239,-1.481485,-0.707873,0.031533,0.996014,0.083433,0.000000,0.000000,0.000000,-1,-0.004268,-0.004681,0.003695,-0.004907,0.007739,0.005449
"2019-11-26 16:53:23.714 +0000",1574787203.713738,2.779456,-1.481322,-0.708440,0.031656,0.996000,0.083560,0.000000,0.000000,0.000000,-1,-0.002162,-0.014172,0.012147,-0.001764,0.006731,0.003156
"2019-11-26 16:53:23.734 +0000",1574787203.733702,2.777022,-1.481208,-0.710503,0.031900,0.995990,0.083589,0.000000,0.000000,0.000000,-1,-0.002155,-0.020539,0.013164,0.001196,0.018598,0.001647
"2019-11-26 16:53:23.754 +0000",1574787203.753695,2.774446,-1.480971,-0.712711,0.032200,0.995968,0.083726,0.000000,0.000000,0.000000,-1,-0.007471,-0.016324,0.009983,0.002087,0.017139,0.003035
"2019-11-26 16:53:23.774 +0000",1574787203.773672,2.773117,-1.480653,-0.713791,0.032425,0.995940,0.083979,0.000000,0.000000,0.000000,-1,-0.012790,-0.011046,0.006809,0.001968,0.008409,-0.000422
"2019-11-26 16:53:23.794 +0000",1574787203.793630,2.772530,-1.480302,-0.714181,0.032600,0.995908,0.084286,0.000000,0.000000,0.000000,-1,-0.011700,-0.008964,0.003657,0.001610,0.014056,0.001118
"2019-11-26 16:53:23.814 +0000",1574787203.813624,2.773363,-1.480089,-0.713254,0.032607,0.995889,0.084511,0.000000,0.000000,0.000000,-1,-0.011683,-0.001577,-0.002674,0.001070,0.012778,0.000557
"2019-11-26 16:53:23.834 +0000",1574787203.833601,2.774452,-1.479948,-0.712164,0.032565,0.995876,0.084678,0.000000,0.000000,0.000000,-1,-0.009558,0.000552,-0.002650,0.000699,0.013035,0.001382
"2019-11-26 16:53:23.854 +0000",1574787203.853563,2.775573,-1.479653,-0.711074,0.032575,0.995849,0.084988,0.000000,0.000000,0.000000,-1,-0.006409,0.001689,0.005883,-0.003446,0.010361,0.002948
"2019-11-26 16:53:23.874 +0000",1574787203.873554,2.774968,-1.479520,-0.711720,0.032674,0.995837,0.085092,0.000000,0.000000,0.000000,-1,-0.003250,0.000691,0.013336,-0.004247,0.012555,0.000846
"2019-11-26 16:53:23.894 +0000",1574787203.893530,2.772474,-1.479414,-0.714227,0.032924,0.995828,0.085109,0.000000,0.000000,0.000000,-1,-0.000091,-0.000306,0.020789,-0.004116,0.013694,0.002217
"2019-11-26 16:53:23.913 +0000",1574787203.913498,2.768547,-1.479246,-0.718145,0.033319,0.995812,0.085135,0.000000,0.000000,0.000000,-1,-0.000129,-0.002363,0.029287,-0.002695,0.009895,0.001596
"2019-11-26 16:53:23.933 +0000",1574787203.933483,2.762023,-1.478962,-0.724647,0.033979,0.995786,0.085178,0.000000,0.000000,0.000000,-1,-0.000151,-0.002329,0.033544,-0.000425,0.012087,0.002942
"2019-11-26 16:53:23.953 +0000",1574787203.953459,2.756172,-1.478686,-0.730565,0.034580,0.995761,0.085233,0.000000,0.000000,0.000000,-1,0.000923,0.002939,0.029344,-0.000263,0.013181,0.004489
"2019-11-26 16:53:23.973 +0000",1574787203.973429,2.753266,-1.478387,-0.733680,0.034940,0.995733,0.085408,0.000000,0.000000,0.000000,-1,-0.000128,0.011386,0.023016,-0.002607,0.012568,0.005733
"2019-11-26 16:53:23.993 +0000",1574787203.993412,2.750713,-1.478134,-0.736443,0.035254,0.995710,0.085551,0.000000,0.000000,0.000000,-1,-0.002226,0.006036,0.018713,-0.002463,0.013323,0.005209
"2019-11-26 16:53:24.013 +0000",1574787204.013389,2.749390,-1.477860,-0.737843,0.035471,0.995685,0.085756,0.000000,0.000000,0.000000,-1,-0.006450,0.001735,0.013344,-0.002940,0.014295,0.007475
"2019-11-26 16:53:24.033 +0000",1574787204.033336,2.751141,-1.477530,-0.736193,0.035447,0.995654,0.086123,0.000000,0.000000,0.000000,-1,-0.002174,0.005951,0.008070,-0.004166,0.008954,0.006575
"2019-11-26 16:53:24.053 +0000",1574787204.053334,2.749508,-1.477498,-0.738000,0.035599,0.995651,0.086092,0.000000,0.000000,0.000000,-1,0.004200,0.008104,0.010238,-0.004318,0.008957,0.006605
"2019-11-26 16:53:24.073 +0000",1574787204.073316,2.749829,-1.477319,-0.737859,0.035639,0.995634,0.086268,0.000000,0.000000,0.000000,-1,0.005239,0.007086,0.015554,-0.003916,0.010637,0.004811
"2019-11-26 16:53:24.093 +0000",1574787204.093264,2.748193,-1.477246,-0.739619,0.035808,0.995627,0.086277,0.000000,0.000000,0.000000,-1,0.008434,0.003913,0.016606,-0.002208,0.011285,0.003261
"2019-11-26 16:53:24.113 +0000",1574787204.113267,2.745675,-1.477312,-0.742215,0.036000,0.995634,0.086127,0.000000,0.000000,0.000000,-1,0.010582,0.002797,0.010230,-0.001485,0.013278,0.002237
"2019-11-26 16:53:24.133 +0000",1574787204.133227,2.745038,-1.477372,-0.742897,0.036032,0.995639,0.086049,0.000000,0.000000,0.000000,-1,0.006375,0.000588,0.000621,-0.003927,0.011929,0.006389
"2019-11-26 16:53:24.153 +0000",1574787204.153206,2.747370,-1.477465,-0.740605,0.035796,0.995648,0.086048,0.000000,0.000000,0.000000,-1,0.005320,0.003748,-0.002553,-0.003783,0.011203,0.003934
"2019-11-26 16:53:24.173 +0000",1574787204.173169,2.747559,-1.477617,-0.740473,0.035721,0.995662,0.085914,0.000000,0.000000,0.000000,-1,0.006378,0.001642,-0.000437,-0.001831,0.013127,0.000664
"2019-11-26 16:53:24.193 +0000",1574787204.193146,2.747120,-1.477827,-0.740804,0.035679,0.995681,0.085707,0.000000,0.000000,0.000000,-1,0.008528,-0.011097,0.000543,-0.003346,0.012787,-0.000914
"2019-11-26 16:53:24.213 +0000",1574787204.213140,2.746990,-1.478048,-0.740660,0.035605,0.995702,0.085498,0.000000,0.000000,0.000000,-1,0.010648,-0.014256,0.003720,-0.000968,0.011699,0.001645
"2019-11-26 16:53:24.233 +0000",1574787204.233104,2.745323,-1.478243,-0.742120,0.035673,0.995720,0.085259,0.000000,0.000000,0.000000,-1,0.012767,-0.008939,0.003766,-0.001157,0.012749,0.001655
"2019-11-26 16:53:24.253 +0000",1574787204.253097,2.744083,-1.478475,-0.743261,0.035689,0.995741,0.085002,0.000000,0.000000,0.000000,-1,0.014901,-0.003648,0.000620,-0.001387,0.012147,-0.000346
"2019-11-26 16:53:24.273 +0000",1574787204.273074,2.742613,-1.479009,-0.744710,0.035607,0.995791,0.084459,0.000000,0.000000,0.000000,-1,0.014865,-0.001509,0.002766,-0.003609,0.014082,-0.002290
"2019-11-26 16:53:24.293 +0000",1574787204.293052,2.740492,-1.479339,-0.746828,0.035658,0.995821,0.084082,0.000000,0.000000,0.000000,-1,0.010585,-0.001483,0.007007,-0.002165,0.013853,-0.003607
"2019-11-26 16:53:24.313 +0000",1574787204.313032,2.738347,-1.479495,-0.749001,0.035778,0.995835,0.083862,0.000000,0.000000,0.000000,-1,0.009505,0.000658,0.009146,-0.002636,0.013031,0.000381
