timestamp,timeIntervalSince1970,attitude.roll,attitude.pitch,attitude.yaw,gravity.x,gravity.y,gravity.z,magneticField.x,magneticField.y,magneticField.z,magneticField.accuracy,rotationRate.x,rotationRate.y,rotationRate.z,userAcceleration.x,userAcceleration.y,userAcceleration.z
"2019-04-16 11:01:37.814 +0000",1555412497.813674,-0.125621,0.465366,0.057413,-0.111967,-0.448749,-0.886616,0.000000,0.000000,0.000000,-1,-1.028957,0.058827,0.147137,0.083159,0.065311,0.116276
"2019-04-16 11:01:37.834 +0000",1555412497.833707,-0.125059,0.448607,0.058475,-0.112391,-0.433711,-0.894015,0.000000,0.000000,0.000000,-1,-0.606271,0.043270,0.155403,0.075694,0.055659,0.055255
"2019-04-16 11:01:37.854 +0000",1555412497.853739,-0.124704,0.440212,0.061470,-0.112523,-0.426132,-0.897636,0.000000,0.000000,0.000000,-1,-0.219160,0.153622,0.216273,0.063008,0.061996,0.026146
"2019-04-16 11:01:37.874 +0000",1555412497.873772,-0.121912,0.437929,0.066331,-0.110134,-0.424065,-0.898910,0.000000,0.000000,0.000000,-1,0.039206,0.317138,0.251494,0.073147,0.121559,0.003845
"2019-04-16 11:01:37.894 +0000",1555412497.893805,-0.117673,0.440647,0.072379,-0.106187,-0.426524,-0.898221,0.000000,0.000000,0.000000,-1,0.294445,0.322964,0.247448,0.062638,0.179912,-0.053027
"2019-04-16 11:01:37.914 +0000",1555412497.913839,-0.116048,0.447711,0.078505,-0.104376,-0.432903,-0.895377,0.000000,0.000000,0.000000,-1,0.425088,0.067288,0.233328,0.039938,0.223629,-0.138635
"2019-04-16 11:01:37.934 +0000",1555412497.933872,-0.120849,0.454105,0.084485,-0.108337,-0.438659,-0.892100,0.000000,0.000000,0.000000,-1,0.224198,-0.268334,0.211331,0.073318,0.199599,-0.075994
"2019-04-16 11:01:37.954 +0000",1555412497.953904,-0.092274,0.389919,0.072509,-0.085226,-0.380113,-0.921005,0.000000,0.000000,0.000000,-1,-0.312582,-0.420267,0.115053,0.035132,0.139604,0.063171
"2019-04-16 11:01:37.974 +0000",1555412497.973938,-0.072914,0.322140,0.066409,-0.069102,-0.316597,-0.946040,0.000000,0.000000,0.000000,-1,-0.732775,-0.105749,0.334742,-0.004308,0.077874,0.097880
"2019-04-16 11:01:37.994 +0000",1555412497.993971,-0.068960,0.267743,0.074533,-0.066450,-0.264556,-0.962078,0.000000,0.000000,0.000000,-1,-0.537120,0.508509,0.621826,-0.048372,0.043105,-0.036564
"2019-04-16 11:01:38.014 +0000",1555412498.014004,-0.051552,0.250228,0.086987,-0.049924,-0.247625,-0.967569,0.000000,0.000000,0.000000,-1,-0.003443,0.671152,0.709664,-0.053515,0.041829,-0.180930
"2019-04-16 11:01:38.034 +0000",1555412498.034036,-0.040253,0.255394,0.099705,-0.038937,-0.252627,-0.966780,0.000000,0.000000,0.000000,-1,0.100627,0.964326,0.515872,-0.193775,0.017870,-0.065797
"2019-04-16 11:01:38.054 +0000",1555412498.054070,-0.030106,0.257945,0.111892,-0.029105,-0.255094,-0.966478,0.000000,0.000000,0.000000,-1,-0.174151,1.198701,0.476679,-0.213128,0.009214,-0.097533
"2019-04-16 11:01:38.074 +0000",1555412498.074103,-0.010388,0.249367,0.126443,-0.010066,-0.246790,-0.969017,0.000000,0.000000,0.000000,-1,-0.621582,1.813596,0.871826,-0.176564,0.019297,-0.037270
"2019-04-16 11:01:38.094 +0000",1555412498.094136,0.024178,0.229400,0.153168,0.023543,-0.227393,-0.973518,0.000000,0.000000,0.000000,-1,-1.475637,2.345485,1.728962,-0.105025,0.016700,-0.017433
"2019-04-16 11:01:38.114 +0000",1555412498.114168,0.073934,0.193077,0.199077,0.072494,-0.191880,-0.978737,0.000000,0.000000,0.000000,-1,-2.246099,3.660794,2.537957,-0.007949,-0.037979,0.081597
"2019-04-16 11:01:38.134 +0000",1555412498.134201,0.142488,0.149934,0.257644,0.140414,-0.149373,-0.978760,0.000000,0.000000,0.000000,-1,-2.573559,4.008456,2.529762,-0.016878,0.097691,-0.109954
"2019-04-16 11:01:38.154 +0000",1555412498.154234,0.213214,0.109038,0.308023,0.210346,-0.108822,-0.971552,0.000000,0.000000,0.000000,-1,-2.177432,3.617305,1.603665,-0.142536,0.108181,-0.139395
"2019-04-16 11:01:38.174 +0000",1555412498.174268,0.275009,0.082249,0.338720,0.270638,-0.082156,-0.959169,0.000000,0.000000,0.000000,-1,-1.106185,2.858896,0.780193,-0.173592,0.040393,-0.219877
"2019-04-16 11:01:38.194 +0000",1555412498.194300,0.326123,0.071967,0.353463,0.319544,-0.071905,-0.944839,0.000000,0.000000,0.000000,-1,-0.460824,2.457040,0.394905,-0.101786,0.011388,-0.096375
"2019-04-16 11:01:38.214 +0000",1555412498.214334,0.376285,0.064065,0.364112,0.366714,-0.064021,-0.928128,0.000000,0.000000,0.000000,-1,-0.776212,2.690579,0.366194,-0.053878,-0.010029,0.151395
"2019-04-16 11:01:38.234 +0000",1555412498.234366,0.432819,0.045707,0.381484,0.418993,-0.045691,-0.906839,0.000000,0.000000,0.000000,-1,-1.609096,3.045331,0.506346,-0.037035,-0.024652,0.300607
"2019-04-16 11:01:38.254 +0000",1555412498.254400,0.495440,0.015695,0.409324,0.475360,-0.015694,-0.879651,0.000000,0.000000,0.000000,-1,-2.252873,3.250730,0.612528,-0.082385,-0.055076,0.301282
"2019-04-16 11:01:38.274 +0000",1555412498.274433,0.542203,-0.014737,0.437020,0.515969,0.014737,-0.856481,0.000000,0.000000,0.000000,-1,-1.452617,1.801679,0.240311,-0.154274,-0.040051,-0.269008
"2019-04-16 11:01:38.294 +0000",1555412498.294466,0.580665,-0.031279,0.450641,0.548312,0.031274,-0.835689,0.000000,0.000000,0.000000,-1,-0.836774,1.485102,-0.070375,-0.170581,-0.127954,0.149471
"2019-04-16 11:01:38.314 +0000",1555412498.314498,0.605074,-0.047936,0.447644,0.568170,0.047918,-0.821515,0.000000,0.000000,0.000000,-1,-0.173668,0.793650,-1.004044,-0.638345,-0.175878,0.006818
"2019-04-16 11:01:38.335 +0000",1555412498.334531,0.608849,-0.056492,0.426217,0.571012,0.056462,-0.818998,0.000000,0.000000,0.000000,-1,0.553574,-0.044311,-1.230519,-0.219541,-0.244374,-0.215563
"2019-04-16 11:01:38.355 +0000",1555412498.354564,0.604054,-0.055977,0.398249,0.567094,0.055948,-0.821750,0.000000,0.000000,0.000000,-1,0.928122,-0.057547,-0.827009,-0.057924,-0.191370,0.104725
"2019-04-16 11:01:38.375 +0000",1555412498.374597,0.609009,-0.050387,0.385769,0.571329,0.050366,-0.819174,0.000000,0.000000,0.000000,-1,0.205939,0.555572,0.040263,0.210852,0.195697,0.285941
"2019-04-16 11:01:38.395 +0000",1555412498.394630,0.619688,-0.048064,0.384676,0.580111,0.048045,-0.813119,0.000000,0.000000,0.000000,-1,0.225745,0.283875,-0.081456,-0.074709,0.067296,-0.008261
"2019-04-16 11:01:38.415 +0000",1555412498.414663,0.624911,-0.043075,0.375637,0.584483,0.043062,-0.810263,0.000000,0.000000,0.000000,-1,0.648350,0.490647,-0.598565,-0.028681,-0.213701,0.040914
"2019-04-16 11:01:38.435 +0000",1555412498.434696,0.631456,-0.041689,0.350982,0.589808,0.041677,-0.806468,0.000000,0.000000,0.000000,-1,0.930190,0.365983,-1.239935,-0.141489,-0.049566,0.220896
"2019-04-16 11:01:38.455 +0000",1555412498.454730,0.637159,-0.044115,0.314666,0.594336,0.044101,-0.803007,0.000000,0.000000,0.000000,-1,0.992014,0.257492,-1.821254,0.049890,0.048779,0.185209
"2019-04-16 11:01:38.475 +0000",1555412498.474763,0.641057,-0.051695,0.271939,0.597244,0.051672,-0.800394,0.000000,0.000000,0.000000,-1,0.910823,0.210321,-1.918387,-0.008072,-0.013769,0.178934
"2019-04-16 11:01:38.495 +0000",1555412498.494796,0.640253,-0.059861,0.233651,0.596328,0.059825,-0.800508,0.000000,0.000000,0.000000,-1,0.683039,-0.031090,-1.649771,-0.035446,-0.128643,0.095827
"2019-04-16 11:01:38.515 +0000",1555412498.514828,0.636964,-0.071562,0.201634,0.593235,0.071501,-0.801847,0.000000,0.000000,0.000000,-1,0.275358,-0.154301,-1.645695,-0.153370,-0.013030,0.118773
"2019-04-16 11:01:38.535 +0000",1555412498.534861,0.629746,-0.089764,0.173303,0.586569,0.089643,-0.804923,0.000000,0.000000,0.000000,-1,-0.064354,-0.194650,-1.682004,-0.240759,0.044130,-0.007699
"2019-04-16 11:01:38.555 +0000",1555412498.554895,0.626748,-0.112423,0.148698,0.582811,0.112186,-0.804826,0.000000,0.000000,0.000000,-1,-0.294083,0.108467,-1.627192,-0.320619,0.084881,0.061021
"2019-04-16 11:01:38.575 +0000",1555412498.574928,0.627390,-0.136300,0.125534,0.581590,0.135878,-0.802054,0.000000,0.000000,0.000000,-1,-0.255212,0.163715,-1.642390,-0.346207,0.126008,0.036353
"2019-04-16 11:01:38.595 +0000",1555412498.594960,0.629445,-0.159486,0.101069,0.581225,0.158811,-0.798095,0.000000,0.000000,0.000000,-1,-0.176285,0.623779,-1.603493,-0.242770,0.133472,-0.079636
"2019-04-16 11:01:38.615 +0000",1555412498.614994,0.644981,-0.181592,0.079237,0.591298,0.180596,-0.785972,0.000000,0.000000,0.000000,-1,-0.397876,1.214482,-1.451223,-0.233678,0.156242,-0.152428
"2019-04-16 11:01:38.635 +0000",1555412498.635027,0.668686,-0.209629,0.062461,0.606384,0.208097,-0.767460,0.000000,0.000000,0.000000,-1,-0.798611,1.399933,-1.617712,-0.221573,0.203769,-0.173229
"2019-04-16 11:01:38.655 +0000",1555412498.655061,0.691138,-0.246260,0.046024,0.618184,0.243778,-0.747276,0.000000,0.000000,0.000000,-1,-1.004191,1.189958,-1.920417,-0.202748,0.147244,-0.214364
"2019-04-16 11:01:38.675 +0000",1555412498.675094,0.708581,-0.288349,0.027437,0.623891,0.284370,-0.727938,0.000000,0.000000,0.000000,-1,-1.031792,1.121469,-2.136176,-0.151662,0.064233,-0.185346
"2019-04-16 11:01:38.695 +0000",1555412498.695127,0.731961,-0.330345,0.007358,0.632193,0.324370,-0.703645,0.000000,0.000000,0.000000,-1,-0.805726,1.914972,-1.940939,-0.079672,-0.023558,-0.275481
"2019-04-16 11:01:38.715 +0000",1555412498.715160,0.774973,-0.361812,-0.008305,0.654396,0.353969,-0.668185,0.000000,0.000000,0.000000,-1,-0.423065,2.706075,-1.287500,0.120216,0.035298,-0.314816
"2019-04-16 11:01:38.735 +0000",1555412498.735192,0.822562,-0.377960,-0.024461,0.681163,0.369025,-0.632327,0.000000,0.000000,0.000000,-1,0.405572,2.543030,-0.981885,0.026341,0.120263,-0.381208
"2019-04-16 11:01:38.755 +0000",1555412498.755226,0.857255,-0.383815,-0.052128,0.701041,0.374461,-0.606894,0.000000,0.000000,0.000000,-1,1.038944,2.010748,-1.234091,-0.038916,0.087972,-0.382180
"2019-04-16 11:01:38.775 +0000",1555412498.775259,0.885283,-0.390419,-0.091440,0.715843,0.380575,-0.585432,0.000000,0.000000,0.000000,-1,1.257866,2.324971,-1.582056,-0.040031,0.045267,-0.352175
"2019-04-16 11:01:38.795 +0000",1555412498.795292,0.916773,-0.400945,-0.134556,0.730701,0.390289,-0.560135,0.000000,0.000000,0.000000,-1,1.168539,2.346027,-1.653848,0.026135,0.007035,-0.344895
"2019-04-16 11:01:38.815 +0000",1555412498.815325,0.942498,-0.414116,-0.173368,0.740643,0.402381,-0.538086,0.000000,0.000000,0.000000,-1,0.878663,1.720449,-1.520419,0.094257,-0.003547,-0.413558
"2019-04-16 11:01:38.835 +0000",1555412498.835358,0.957378,-0.429801,-0.205159,0.743315,0.416690,-0.523309,0.000000,0.000000,0.000000,-1,0.604884,1.073671,-1.464112,0.166688,0.032453,-0.439246
"2019-04-16 11:01:38.855 +0000",1555412498.855391,0.960260,-0.446488,-0.235393,0.739020,0.431800,-0.517105,0.000000,0.000000,0.000000,-1,0.770517,0.491359,-1.449823,0.164178,0.008767,-0.405426
"2019-04-16 11:01:38.875 +0000",1555412498.875423,0.948722,-0.456693,-0.271735,0.729386,0.440982,-0.523002,0.000000,0.000000,0.000000,-1,1.299017,-0.034148,-1.247154,0.241714,-0.066745,-0.388191
"2019-04-16 11:01:38.895 +0000",1555412498.895457,0.926371,-0.457669,-0.312230,0.717170,0.441858,-0.538914,0.000000,0.000000,0.000000,-1,1.509339,-0.377583,-0.974416,0.239724,-0.013758,-0.269695
"2019-04-16 11:01:38.915 +0000",1555412498.915490,0.899846,-0.452813,-0.351164,0.704297,0.437497,-0.559073,0.000000,0.000000,0.000000,-1,1.567135,-0.591738,-0.808846,0.196566,-0.027294,-0.142725
"2019-04-16 11:01:38.936 +0000",1555412498.935523,0.864812,-0.445204,-0.389262,0.686796,0.430642,-0.585542,0.000000,0.000000,0.000000,-1,1.480511,-1.356965,-0.775469,0.178988,-0.024193,-0.110137
"2019-04-16 11:01:38.956 +0000",1555412498.955555,0.816970,-0.440960,-0.418964,0.659334,0.426807,-0.618962,0.000000,0.000000,0.000000,-1,0.709614,-2.080594,-0.690392,0.159605,-0.071186,0.033101
"2019-04-16 11:01:38.976 +0000",1555412498.975589,0.765720,-0.445755,-0.431631,0.625334,0.431139,-0.650443,0.000000,0.000000,0.000000,-1,-0.189207,-2.374322,-0.375387,0.206819,-0.244280,0.132178
"2019-04-16 11:01:38.996 +0000",1555412498.995622,0.720023,-0.453821,-0.425960,0.592656,0.438403,-0.675693,0.000000,0.000000,0.000000,-1,-0.696324,-2.594480,0.164672,0.406077,-0.309680,0.149662
"2019-04-16 11:01:39.016 +0000",1555412499.015655,0.666170,-0.465761,-0.410840,0.552153,0.449102,-0.702449,0.000000,0.000000,0.000000,-1,-1.055049,-3.405437,0.032681,0.175478,-0.124991,-0.020451
"2019-04-16 11:01:39.036 +0000",1555412499.035687,0.593220,-0.485123,-0.404319,0.494531,0.466317,-0.733476,0.000000,0.000000,0.000000,-1,-0.759934,-4.016850,-0.837697,0.083594,0.215247,-0.225508
"2019-04-16 11:01:39.056 +0000",1555412499.055721,0.503530,-0.504269,-0.423432,0.422460,0.483167,-0.766862,0.000000,0.000000,0.000000,-1,0.008733,-3.982675,-1.443869,-0.019979,0.219286,-0.201812
"2019-04-16 11:01:39.076 +0000",1555412499.075753,0.411020,-0.510533,-0.456562,0.348596,0.488643,-0.799818,0.000000,0.000000,0.000000,-1,0.669454,-3.543407,-1.415239,-0.039347,0.080846,-0.169649
"2019-04-16 11:01:39.096 +0000",1555412499.095787,0.332016,-0.504123,-0.493353,0.285401,0.483040,-0.827780,0.000000,0.000000,0.000000,-1,1.055786,-2.470150,-1.330277,0.048629,0.002297,0.029516
"2019-04-16 11:01:39.116 +0000",1555412499.115820,0.280077,-0.489445,-0.525665,0.243975,0.470136,-0.848203,0.000000,0.000000,0.000000,-1,1.108627,-1.172734,-0.952521,0.032774,-0.168119,0.233548
"2019-04-16 11:01:39.136 +0000",1555412499.135853,0.253958,-0.475753,-0.555016,0.223336,0.458008,-0.860436,0.000000,0.000000,0.000000,-1,0.929848,-0.274024,-1.184407,0.037131,0.010193,0.306954
"2019-04-16 11:01:39.156 +0000",1555412499.155885,0.234915,-0.463659,-0.587548,0.208186,0.447223,-0.869856,0.000000,0.000000,0.000000,-1,0.902025,-0.151062,-1.232265,-0.050166,-0.068058,0.136626
"2019-04-16 11:01:39.176 +0000",1555412499.175919,0.219313,-0.454177,-0.614026,0.195504,0.438723,-0.877098,0.000000,0.000000,0.000000,-1,0.514323,-0.329789,-0.896352,0.130485,-0.255861,0.156547
"2019-04-16 11:01:39.196 +0000",1555412499.195952,0.199604,-0.452052,-0.632971,0.178364,0.436812,-0.881692,0.000000,0.000000,0.000000,-1,0.032577,-0.898751,-0.736464,0.116664,-0.231719,0.149163
"2019-04-16 11:01:39.216 +0000",1555412499.215986,0.165572,-0.458201,-0.646063,0.147816,0.442335,-0.884585,0.000000,0.000000,0.000000,-1,-0.439441,-1.901841,-0.565579,0.006359,-0.197477,0.061892
"2019-04-16 11:01:39.236 +0000",1555412499.236018,0.118694,-0.474230,-0.655149,0.105348,0.456654,-0.883385,0.000000,0.000000,0.000000,-1,-1.001098,-2.296449,-0.409379,-0.088045,-0.208057,0.133706
"2019-04-16 11:01:39.256 +0000",1555412499.256052,0.073610,-0.496576,-0.657755,0.064661,0.476418,-0.876838,0.000000,0.000000,0.000000,-1,-1.021886,-1.916653,-0.060887,-0.038980,-0.195015,-0.023324
"2019-04-16 11:01:39.276 +0000",1555412499.276083,0.048433,-0.511031,-0.658735,0.042228,0.489077,-0.871218,0.000000,0.000000,0.000000,-1,-0.375671,-0.556593,-0.159422,-0.066230,-0.020647,-0.143583
"2019-04-16 11:01:39.296 +0000",1555412499.296117,0.047787,-0.513716,-0.663212,0.041603,0.491417,-0.869930,0.000000,0.000000,0.000000,-1,0.070982,0.407728,-0.150259,0.015709,-0.031838,-0.201359
"2019-04-16 11:01:39.316 +0000",1555412499.316151,0.054325,-0.509538,-0.664323,0.047401,0.487774,-0.871682,0.000000,0.000000,0.000000,-1,0.437598,0.085934,0.036913,0.068993,-0.143429,-0.267844
"2019-04-16 11:01:39.336 +0000",1555412499.336184,0.046122,-0.493919,-0.665545,0.040595,0.474080,-0.879546,0.000000,0.000000,0.000000,-1,1.180334,-0.790772,-0.105507,0.087868,-0.058385,-0.270158
"2019-04-16 11:01:39.356 +0000",1555412499.356216,0.018744,-0.463158,-0.672940,0.016769,0.446776,-0.894489,0.000000,0.000000,0.000000,-1,1.866014,-1.510837,-0.438748,0.044511,0.021211,-0.141232
"2019-04-16 11:01:39.376 +0000",1555412499.376249,-0.016571,-0.425489,-0.685828,-0.015093,0.412766,-0.910712,0.000000,0.000000,0.000000,-1,1.742709,-1.258506,-0.746334,-0.058531,-0.069001,0.078528
"2019-04-16 11:01:39.396 +0000",1555412499.396283,-0.034455,-0.397514,-0.703680,-0.031762,0.387127,-0.921479,0.000000,0.000000,0.000000,-1,0.945888,0.175949,-0.846672,-0.049720,-0.130566,0.282502
"2019-04-16 11:01:39.416 +0000",1555412499.416316,-0.025389,-0.385990,-0.715484,-0.023518,0.376476,-0.926128,0.000000,0.000000,0.000000,-1,0.278619,0.905671,-0.218246,0.157933,-0.267727,0.218242
"2019-04-16 11:01:39.436 +0000",1555412499.436349,-0.017072,-0.381875,-0.716942,-0.015841,0.372661,-0.927832,0.000000,0.000000,0.000000,-1,0.168481,-0.112530,-0.056483,0.042865,-0.129085,-0.013421
"2019-04-16 11:01:39.456 +0000",1555412499.456382,-0.026975,-0.380192,-0.722271,-0.025045,0.371099,-0.928255,0.000000,0.000000,0.000000,-1,-0.069468,-0.424288,-0.486652,-0.117929,0.091441,0.076800
"2019-04-16 11:01:39.476 +0000",1555412499.476414,-0.037086,-0.386041,-0.737522,-0.034349,0.376524,-0.925770,0.000000,0.000000,0.000000,-1,-0.549164,-0.006354,-0.838905,-0.094618,0.147264,0.161350
"2019-04-16 11:01:39.496 +0000",1555412499.496447,-0.041814,-0.398321,-0.757791,-0.038530,0.387871,-0.920908,0.000000,0.000000,0.000000,-1,-0.676903,0.298784,-0.966339,-0.040557,0.005073,0.033258
"2019-04-16 11:01:39.516 +0000",1555412499.516480,-0.044451,-0.410796,-0.779366,-0.040739,0.399340,-0.915897,0.000000,0.000000,0.000000,-1,-0.649933,0.213106,-0.903085,-0.024294,-0.083116,-0.019314
"2019-04-16 11:01:39.537 +0000",1555412499.536514,-0.044789,-0.424003,-0.796589,-0.040810,0.411412,-0.910535,0.000000,0.000000,0.000000,-1,-0.732986,0.536843,-0.573718,0.131767,-0.212728,-0.007632
"2019-04-16 11:01:39.557 +0000",1555412499.556545,-0.033263,-0.438255,-0.806383,-0.030114,0.424360,-0.904993,0.000000,0.000000,0.000000,-1,-0.679526,0.967565,-0.298019,0.114099,-0.215253,0.020670
"2019-04-16 11:01:39.577 +0000",1555412499.576580,-0.012122,-0.450095,-0.812128,-0.010914,0.435052,-0.900339,0.000000,0.000000,0.000000,-1,-0.571644,1.316374,-0.205776,0.050343,-0.188439,-0.047292
"2019-04-16 11:01:39.597 +0000",1555412499.596612,0.012090,-0.462301,-0.816324,0.010821,0.446008,-0.894963,0.000000,0.000000,0.000000,-1,-0.683529,1.357558,-0.184458,-0.033343,-0.089411,-0.228846
"2019-04-16 11:01:39.617 +0000",1555412499.616645,0.035068,-0.478234,-0.820796,0.031127,0.460212,-0.887263,0.000000,0.000000,0.000000,-1,-0.837995,0.740462,-0.326022,-0.042251,-0.125877,-0.101857
"2019-04-16 11:01:39.637 +0000",1555412499.636678,0.031259,-0.497138,-0.830469,0.027471,0.476912,-0.878522,0.000000,0.000000,0.000000,-1,-0.998259,-0.370541,-0.402855,-0.330861,-0.282714,0.022107
"2019-04-16 11:01:39.657 +0000",1555412499.656712,0.024185,-0.510490,-0.831872,0.021099,0.488604,-0.872250,0.000000,0.000000,0.000000,-1,-0.290762,-0.574609,0.329208,0.365482,-0.076861,0.180630
"2019-04-16 11:01:39.677 +0000",1555412499.676745,0.015910,-0.512081,-0.817162,0.013869,0.489992,-0.871616,0.000000,0.000000,0.000000,-1,-0.033363,-0.779535,0.896640,0.344423,-0.230822,-0.038616
"2019-04-16 11:01:39.697 +0000",1555412499.696778,0.018353,-0.513643,-0.793463,0.015984,0.491354,-0.870813,0.000000,0.000000,0.000000,-1,-0.155607,-0.165068,1.089210,-0.010964,-0.201727,0.075556
"2019-04-16 11:01:39.717 +0000",1555412499.716810,0.026024,-0.515937,-0.770472,0.022634,0.493350,-0.869536,0.000000,0.000000,0.000000,-1,-0.163286,-0.306056,0.824603,-0.040090,0.041638,-0.200822
"2019-04-16 11:01:39.737 +0000",1555412499.736843,0.022797,-0.521190,-0.757638,0.019768,0.497913,-0.867002,0.000000,0.000000,0.000000,-1,-0.444549,-0.610716,0.255368,-0.177056,0.212368,-0.156131
"2019-04-16 11:01:39.757 +0000",1555412499.756876,0.008771,-0.530325,-0.757685,0.007566,0.505814,-0.862609,0.000000,0.000000,0.000000,-1,-0.337597,-0.770054,-0.182044,-0.095212,0.135833,-0.066575
"2019-04-16 11:01:39.777 +0000",1555412499.776909,-0.008462,-0.531755,-0.761208,-0.007294,0.507047,-0.861887,0.000000,0.000000,0.000000,-1,0.082503,-0.656849,-0.077162,0.103073,-0.040479,-0.122320
"2019-04-16 11:01:39.797 +0000",1555412499.796942,-0.012808,-0.531713,-0.757138,-0.011039,0.507010,-0.861869,0.000000,0.000000,0.000000,-1,-0.127467,-0.079067,0.445878,0.082328,-0.154639,-0.032845
"2019-04-16 11:01:39.817 +0000",1555412499.816975,-0.006914,-0.534194,-0.745066,-0.005951,0.509147,-0.860659,0.000000,0.000000,0.000000,-1,-0.007989,0.063020,0.458805,0.024445,-0.120796,-0.013685
"2019-04-16 11:01:39.837 +0000",1555412499.837008,-0.002065,-0.531860,-0.739859,-0.001780,0.507138,-0.861863,0.000000,0.000000,0.000000,-1,0.165789,0.180266,0.105110,-0.138372,0.000080,-0.090453
"2019-04-16 11:01:39.857 +0000",1555412499.857041,0.003736,-0.528810,-0.734358,0.003226,0.504506,-0.863402,0.000000,0.000000,0.000000,-1,0.078475,0.021147,0.366816,0.003381,-0.019948,-0.070772
"2019-04-16 11:01:39.877 +0000",1555412499.877075,0.003091,-0.528469,-0.724401,0.002669,0.504212,-0.863576,0.000000,0.000000,0.000000,-1,-0.083570,-0.658495,0.472440,-0.035689,0.048767,-0.109675
"2019-04-16 11:01:39.897 +0000",1555412499.897108,-0.017942,-0.538001,-0.714685,-0.015407,0.512420,-0.858597,0.000000,0.000000,0.000000,-1,-1.079030,-1.846960,0.291282,-0.044911,-0.011169,-0.232376
"2019-04-16 11:01:39.917 +0000",1555412499.917140,-0.065152,-0.576183,-0.715282,-0.054594,0.544827,-0.836769,0.000000,0.000000,0.000000,-1,-2.753002,-2.899185,-0.115993,-0.032945,-0.009076,-0.356667
"2019-04-16 11:01:39.937 +0000",1555412499.937174,-0.143686,-0.638632,-0.723638,-0.114971,0.596098,-0.794638,0.000000,0.000000,0.000000,-1,-3.220573,-4.409389,0.233877,-0.086766,0.027682,-0.320902
"2019-04-16 11:01:39.957 +0000",1555412499.957207,-0.259992,-0.688882,-0.731853,-0.198449,0.635674,-0.746013,0.000000,0.000000,0.000000,-1,-1.566198,-6.829778,-0.258887,-0.030539,-0.056405,-0.210377
"2019-04-16 11:01:39.977 +0000",1555412499.977239,-0.428731,-0.696157,-0.767156,-0.318985,0.641274,-0.697866,0.000000,0.000000,0.000000,-1,-0.844896,-6.425016,-1.297011,-0.488190,0.241966,-0.620539
"2019-04-16 11:01:39.997 +0000",1555412499.997272,-0.557679,-0.703898,-0.792113,-0.403436,0.647194,-0.646822,0.000000,0.000000,0.000000,-1,-0.635429,-4.957387,-0.764742,0.066126,-0.270576,0.359850
"2019-04-16 11:01:40.017 +0000",1555412500.017305,-0.666499,-0.701524,-0.822442,-0.472247,0.645383,-0.600387,0.000000,0.000000,0.000000,-1,-0.606958,-3.953992,-1.146171,-0.225416,0.168689,0.107589
"2019-04-16 11:01:40.037 +0000",1555412500.037338,-0.755667,-0.698360,-0.857217,-0.525233,0.642963,-0.557431,0.000000,0.000000,0.000000,-1,-0.847603,-2.433216,-1.005551,-0.119405,-0.079364,0.186429
"2019-04-16 11:01:40.057 +0000",1555412500.057371,-0.806238,-0.699509,-0.886944,-0.552206,0.643842,-0.529657,0.000000,0.000000,0.000000,-1,-0.812721,-1.094195,-0.594262,-0.123744,-0.278440,0.288644
"2019-04-16 11:01:40.077 +0000",1555412500.077404,-0.847155,-0.704869,-0.908002,-0.570816,0.647934,-0.504333,0.000000,0.000000,0.000000,-1,-0.751031,-1.940981,-0.001085,0.034179,-0.250183,-0.181809
"2019-04-16 11:01:40.097 +0000",1555412500.097438,-0.903080,-0.717608,-0.920485,-0.591583,0.657584,-0.466489,0.000000,0.000000,0.000000,-1,-0.738026,-2.578391,0.223442,0.194580,-0.200187,-0.386691
"2019-04-16 11:01:40.117 +0000",1555412500.117470,-0.960943,-0.726538,-0.930308,-0.612732,0.664286,-0.428116,0.000000,0.000000,0.000000,-1,-0.428288,-2.484968,0.051816,0.183594,-0.064738,-0.154724
"2019-04-16 11:01:40.138 +0000",1555412500.137503,-1.016379,-0.731476,-0.941782,-0.632715,0.667969,-0.391777,0.000000,0.000000,0.000000,-1,-0.479215,-2.195212,-0.090392,0.122461,-0.029251,0.007484
"2019-04-16 11:01:40.158 +0000",1555412500.157536,-1.055557,-0.728446,-0.943214,-0.649333,0.665711,-0.367690,0.000000,0.000000,0.000000,-1,0.398022,-1.744847,-0.317096,0.033870,-0.107941,-0.183549
"2019-04-16 11:01:40.178 +0000",1555412500.177569,-1.085197,-0.717106,-0.939668,-0.666578,0.657206,-0.351786,0.000000,0.000000,0.000000,-1,0.380268,-1.603487,-0.475844,-0.111849,0.009801,-0.008306
"2019-04-16 11:01:40.198 +0000",1555412500.197602,-1.113989,-0.703143,-0.935097,-0.684599,0.646619,-0.336465,0.000000,0.000000,0.000000,-1,0.620925,-1.765576,-0.641175,-0.200365,0.011905,-0.047751
"2019-04-16 11:01:40.218 +0000",1555412500.217635,-1.145216,-0.684167,-0.932135,-0.705820,0.632028,-0.319936,0.000000,0.000000,0.000000,-1,0.262396,-1.553356,-0.934331,-0.233191,0.031149,0.038106
"2019-04-16 11:01:40.238 +0000",1555412500.237668,-1.181952,-0.666653,-0.946635,-0.727227,0.618359,-0.297948,0.000000,0.000000,0.000000,-1,-0.718742,-1.283260,-1.048116,0.011864,-0.165722,0.044057
"2019-04-16 11:01:40.258 +0000",1555412500.257701,-1.230532,-0.665638,-0.980799,-0.741429,0.617561,-0.262491,0.000000,0.000000,0.000000,-1,-1.429911,-1.209974,0.225440,0.436085,-0.306267,-0.032278
"2019-04-16 11:01:40.278 +0000",1555412500.277734,-1.244479,-0.671290,-0.992393,-0.741699,0.621997,-0.251003,0.000000,0.000000,0.000000,-1,0.117988,0.287783,-0.083036,0.158249,-0.047763,-0.087178
"2019-04-16 11:01:40.298 +0000",1555412500.297767,-1.245311,-0.672023,-0.995670,-0.741476,0.622571,-0.250240,0.000000,0.000000,0.000000,-1,-0.369837,-0.183394,0.197671,0.251668,-0.033047,0.005428
"2019-04-16 11:01:40.318 +0000",1555412500.317800,-1.257513,-0.679098,-1.004137,-0.740265,0.628091,-0.239810,0.000000,0.000000,0.000000,-1,-0.338970,-0.388068,0.105647,0.125427,-0.021158,-0.022412
"2019-04-16 11:01:40.338 +0000",1555412500.337833,-1.267718,-0.681548,-1.008992,-0.741203,0.629996,-0.231783,0.000000,0.000000,0.000000,-1,-0.135539,-0.312570,0.094684,-0.032692,-0.016181,0.007677
"2019-04-16 11:01:40.358 +0000",1555412500.357866,-1.270633,-0.688545,-1.007880,-0.737646,0.635414,-0.228313,0.000000,0.000000,0.000000,-1,-0.035998,-0.018599,0.708878,0.037344,-0.195290,0.042338
"2019-04-16 11:01:40.378 +0000",1555412500.377900,-1.270203,-0.712491,-1.003908,-0.722804,0.653721,-0.224059,0.000000,0.000000,0.000000,-1,-0.435484,-0.321207,1.483621,0.170726,-0.286625,0.026946
"2019-04-16 11:01:40.398 +0000",1555412500.397932,-1.285449,-0.736676,-1.009663,-0.710755,0.671829,-0.208502,0.000000,0.000000,0.000000,-1,-0.454657,-0.687423,0.960884,-0.357010,0.069778,-0.050394
"2019-04-16 11:01:40.418 +0000",1555412500.417965,-1.296956,-0.758160,-1.009224,-0.699047,0.687587,-0.196360,0.000000,0.000000,0.000000,-1,-0.293699,-0.535176,1.052150,-0.207828,-0.052669,-0.058950
"2019-04-16 11:01:40.438 +0000",1555412500.437998,-1.305839,-0.779396,-1.011331,-0.686515,0.702850,-0.186277,0.000000,0.000000,0.000000,-1,-0.329981,-0.125091,0.937072,-0.112435,-0.060577,-0.042544
"2019-04-16 11:01:40.458 +0000",1555412500.458031,-1.305171,-0.798405,-1.010803,-0.673375,0.716244,-0.183195,0.000000,0.000000,0.000000,-1,-0.152445,0.073148,0.947729,-0.058207,-0.071621,-0.040285
"2019-04-16 11:01:40.478 +0000",1555412500.478064,-1.300857,-0.822216,-1.004427,-0.655953,0.732656,-0.181498,0.000000,0.000000,0.000000,-1,-0.049837,-0.053442,1.331501,0.080651,-0.285176,-0.008368
"2019-04-16 11:01:40.498 +0000",1555412500.498097,-1.294496,-0.848812,-0.995278,-0.635809,0.750496,-0.180285,0.000000,0.000000,0.000000,-1,-0.063373,0.031702,1.416866,-0.075327,-0.008873,0.106494
"2019-04-16 11:01:40.518 +0000",1555412500.518130,-1.290933,-0.885596,-0.987544,-0.608207,0.774292,-0.174803,0.000000,0.000000,0.000000,-1,-0.600808,-0.386726,2.348838,-0.006036,-0.206299,-0.002718
"2019-04-16 11:01:40.538 +0000",1555412500.538163,-1.323685,-0.941749,-0.998365,-0.570502,0.808588,-0.143919,0.000000,0.000000,0.000000,-1,-1.407446,-2.149500,2.662055,-0.091181,-0.497324,0.001264
"2019-04-16 11:01:40.558 +0000",1555412500.558196,-1.360125,-0.995450,-1.000222,-0.532096,0.839004,-0.113785,0.000000,0.000000,0.000000,-1,0.005704,-1.133987,2.363319,-0.088556,0.094163,-0.179916
"2019-04-16 11:01:40.578 +0000",1555412500.578229,-1.374356,-1.039341,-0.993636,-0.497041,0.862071,-0.098914,0.000000,0.000000,0.000000,-1,-0.374267,-0.927011,2.087098,-0.133848,-0.059672,0.229881
"2019-04-16 11:01:40.598 +0000",1555412500.598262,-1.391638,-1.085376,-0.996511,-0.459112,0.884479,-0.083145,0.000000,0.000000,0.000000,-1,-0.453982,-0.622221,2.326482,0.058447,-0.301258,-0.090622
"2019-04-16 11:01:40.618 +0000",1555412500.618294,-1.417047,-1.130783,-1.009991,-0.420927,0.904746,-0.065232,0.000000,0.000000,0.000000,-1,-0.663083,-0.583627,1.999949,-0.001101,0.065621,-0.080551
"2019-04-16 11:01:40.638 +0000",1555412500.638328,-1.459901,-1.167714,-1.041674,-0.389845,0.919856,-0.043410,0.000000,0.000000,0.000000,-1,-0.973944,-0.529867,1.459348,-0.056840,0.337620,0.001921
"2019-04-16 11:01:40.658 +0000",1555412500.658361,-1.532894,-1.196263,-1.099176,-0.365575,0.930679,-0.013863,0.000000,0.000000,0.000000,-1,-1.402281,-0.850267,1.121145,0.015111,0.337327,0.124519
"2019-04-16 11:01:40.678 +0000",1555412500.678394,-1.595860,-1.209083,-1.160076,-0.353766,0.935292,0.008868,0.000000,0.000000,0.000000,-1,-0.780844,-0.154213,0.244128,-0.157785,0.434825,0.022992
"2019-04-16 11:01:40.698 +0000",1555412500.698428,-1.649963,-1.210853,-1.208948,-0.351118,0.935917,0.027855,0.000000,0.000000,0.000000,-1,-1.032330,-1.185665,0.151757,-0.109682,0.105968,-0.043678
"2019-04-16 11:01:40.718 +0000",1555412500.718460,-1.728439,-1.207649,-1.263156,-0.350813,0.934784,0.055766,0.000000,0.000000,0.000000,-1,-0.711209,-1.744992,-0.364120,-0.365068,0.069870,0.015188
"2019-04-16 11:01:40.738 +0000",1555412500.738493,-1.780738,-1.189276,-1.269053,-0.364156,0.928100,0.077595,0.000000,0.000000,0.000000,-1,0.099363,-2.260424,-1.281124,-0.447214,-0.227584,-0.239384
"2019-04-16 11:01:40.759 +0000",1555412500.758527,-1.790545,-1.167058,-1.237946,-0.383411,0.919599,0.085637,0.000000,0.000000,0.000000,-1,0.735322,-1.306543,-1.044591,0.221790,-0.312925,-0.079823
"2019-04-16 11:01:40.779 +0000",1555412500.778559,-1.759140,-1.148680,-1.196590,-0.402447,0.912224,0.076707,0.000000,0.000000,0.000000,-1,0.324111,-0.070310,-1.308916,0.137646,-0.220268,0.140257
"2019-04-16 11:01:40.799 +0000",1555412500.798593,-1.744577,-1.121569,-1.178619,-0.427729,0.900783,0.075088,0.000000,0.000000,0.000000,-1,0.040197,0.054460,-1.407150,-0.091818,-0.147121,-0.039062
"2019-04-16 11:01:40.819 +0000",1555412500.818625,-1.732422,-1.094805,-1.168745,-0.452248,0.888839,0.073738,0.000000,0.000000,0.000000,-1,-0.022435,0.158998,-1.282250,-0.160530,-0.051315,-0.030464
"2019-04-16 11:01:40.839 +0000",1555412500.838658,-1.723086,-1.072069,-1.159898,-0.472773,0.878192,0.072560,0.000000,0.000000,0.000000,-1,0.098052,-0.044219,-0.987996,-0.211935,-0.011432,-0.020360
"2019-04-16 11:01:40.859 +0000",1555412500.858691,-1.715100,-1.056741,-1.147510,-0.486602,0.870758,0.070710,0.000000,0.000000,0.000000,-1,0.249859,-0.169981,-0.630696,-0.176027,-0.074508,-0.026917
"2019-04-16 11:01:40.879 +0000",1555412500.878725,-1.706006,-1.046304,-1.134339,-0.496203,0.865579,0.067503,0.000000,0.000000,0.000000,-1,0.208770,-0.054803,-0.544044,-0.072263,-0.030740,-0.005980
"2019-04-16 11:01:40.899 +0000",1555412500.898757,-1.700572,-1.035009,-1.127163,-0.506226,0.859867,0.066067,0.000000,0.000000,0.000000,-1,-0.024532,-0.016770,-0.632362,-0.013031,0.000759,-0.020413
"2019-04-16 11:01:40.919 +0000",1555412500.918790,-1.701238,-1.023708,-1.129735,-0.515783,0.854043,0.067664,0.000000,0.000000,0.000000,-1,-0.240912,0.201001,-0.240750,-0.023691,0.011543,0.019601
"2019-04-16 11:01:40.939 +0000",1555412500.938823,-1.708101,-1.030761,-1.142279,-0.509327,0.857691,0.070376,0.000000,0.000000,0.000000,-1,-0.219003,0.097586,0.766004,-0.204571,0.094671,-0.017779
"2019-04-16 11:01:40.959 +0000",1555412500.958856,-1.714992,-1.041146,-1.149717,-0.499988,0.862984,0.072600,0.000000,0.000000,0.000000,-1,-0.012173,-0.123256,0.706701,-0.038922,-0.205833,-0.018065
"2019-04-16 11:01:40.979 +0000",1555412500.978889,-1.713300,-1.050428,-1.146674,-0.492160,0.867636,0.070613,0.000000,0.000000,0.000000,-1,0.079658,0.046671,0.387429,-0.011441,0.042581,0.019963
"2019-04-16 11:01:40.999 +0000",1555412500.998926,-1.715603,-1.048374,-1.149682,-0.493758,0.866613,0.072004,0.000000,0.000000,0.000000,-1,-0.078000,0.069245,-0.041646,0.032409,0.097819,0.013018
"2019-04-16 11:01:41.019 +0000",1555412501.018959,-1.713338,-1.034515,-1.150130,-0.505761,0.859614,0.072584,0.000000,0.000000,0.000000,-1,-0.104096,0.090132,-0.193294,0.037179,0.085194,0.031038
"2019-04-16 11:01:41.039 +0000",1555412501.038992,-1.705749,-1.012568,-1.144485,-0.524868,0.848195,0.071266,0.000000,0.000000,0.000000,-1,0.168462,0.035727,-0.419200,0.008084,-0.086476,0.036141
"2019-04-16 11:01:41.059 +0000",1555412501.059025,-1.701491,-1.006195,-1.136807,-0.530516,0.844802,0.069733,0.000000,0.000000,0.000000,-1,0.178788,-0.153188,-0.388229,-0.047304,-0.072356,0.005813
"2019-04-16 11:01:41.079 +0000",1555412501.079058,-1.703069,-1.008191,-1.133638,-0.528733,0.845868,0.070348,0.000000,0.000000,0.000000,-1,0.078659,-0.274108,-0.035292,-0.063445,-0.000577,-0.017323
"2019-04-16 11:01:41.099 +0000",1555412501.099091,-1.706588,-1.019286,-1.134356,-0.519151,0.851734,0.070933,0.000000,0.000000,0.000000,-1,0.009005,0.064957,0.132934,-0.066878,-0.001530,0.075979
"2019-04-16 11:01:41.119 +0000",1555412501.119125,-1.713844,-1.016796,-1.140972,-0.520721,0.850427,0.075000,0.000000,0.000000,0.000000,-1,-0.062760,-0.050227,-0.063278,-0.040635,0.052466,-0.032581
"2019-04-16 11:01:41.139 +0000",1555412501.139157,-1.715136,-1.008690,-1.140898,-0.527427,0.846134,0.076662,0.000000,0.000000,0.000000,-1,0.109294,-0.016240,-0.033195,-0.052361,-0.019322,0.043654
"2019-04-16 11:01:41.159 +0000",1555412501.159190,-1.706814,-1.004161,-1.132133,-0.531838,0.843712,0.072789,0.000000,0.000000,0.000000,-1,0.096664,0.044381,0.048681,-0.060615,-0.024376,0.023998
"2019-04-16 11:01:41.179 +0000",1555412501.179224,-1.711447,-0.999003,-1.136234,-0.535797,0.840932,0.075861,0.000000,0.000000,0.000000,-1,-0.139939,-0.191941,0.062945,-0.017182,-0.027669,-0.013026
"2019-04-16 11:01:41.199 +0000",1555412501.199255,-1.717221,-1.004636,-1.133148,-0.530655,0.843967,0.078261,0.000000,0.000000,0.000000,-1,0.282333,-0.637846,-0.088801,-0.049286,-0.058414,-0.070098
"2019-04-16 11:01:41.219 +0000",1555412501.219288,-1.698786,-1.001861,-1.102589,-0.534329,0.842475,0.068764,0.000000,0.000000,0.000000,-1,1.006012,0.091142,-0.081059,-0.062503,-0.519751,0.153617
"2019-04-16 11:01:41.239 +0000",1555412501.239321,-1.690668,-1.007705,-1.097738,-0.529972,0.845609,0.063835,0.000000,0.000000,0.000000,-1,-0.621196,0.051804,0.543363,0.091739,-0.018400,-0.050834
"2019-04-16 11:01:41.259 +0000",1555412501.259354,-1.713199,-1.018547,-1.125704,-0.519294,0.851346,0.074453,0.000000,0.000000,0.000000,-1,-0.442688,-0.041281,0.615810,-0.064248,0.176806,-0.098210
"2019-04-16 11:01:41.279 +0000",1555412501.279387,-1.721221,-1.028386,-1.129871,-0.510373,0.856467,0.077357,0.000000,0.000000,0.000000,-1,0.292669,-0.323754,0.409770,-0.104679,0.167383,-0.006205
"2019-04-16 11:01:41.299 +0000",1555412501.299420,-1.717666,-1.033669,-1.118414,-0.506162,0.859182,0.074879,0.000000,0.000000,0.000000,-1,0.317843,-0.423889,-0.034824,-0.051974,0.122386,0.015346
"2019-04-16 11:01:41.319 +0000",1555412501.319453,-1.720729,-1.033159,-1.112429,-0.506363,0.858921,0.076494,0.000000,0.000000,0.000000,-1,-0.214450,-0.327842,0.023588,-0.017257,-0.025593,-0.067812
"2019-04-16 11:01:41.339 +0000",1555412501.339486,-1.747664,-1.030922,-1.137848,-0.506010,0.857773,0.090442,0.000000,0.000000,0.000000,-1,-0.771428,-0.198923,-0.157140,0.037794,-0.448837,-0.052142
"2019-04-16 11:01:41.360 +0000",1555412501.359519,-1.757068,-1.020999,-1.145423,-0.513476,0.852630,0.096768,0.000000,0.000000,0.000000,-1,0.241831,0.033907,-0.680719,-0.027982,-0.559936,0.024585
"2019-04-16 11:01:41.380 +0000",1555412501.379552,-1.725404,-1.012262,-1.120323,-0.523622,0.848033,0.081607,0.000000,0.000000,0.000000,-1,0.746807,0.924371,-0.351506,-0.049864,-0.295528,0.318921
"2019-04-16 11:01:41.400 +0000",1555412501.399585,-1.684749,-1.010217,-1.094171,-0.528229,0.846947,0.060455,0.000000,0.000000,0.000000,-1,0.610215,0.749521,-0.072052,-0.028564,-0.147912,0.020737
"2019-04-16 11:01:41.420 +0000",1555412501.419619,-1.653916,-1.011449,-1.072144,-0.528801,0.847602,0.044055,0.000000,0.000000,0.000000,-1,0.525377,0.598141,0.093566,-0.014137,-0.203208,-0.187808
"2019-04-16 11:01:41.440 +0000",1555412501.439652,-1.629601,-1.015407,-1.059109,-0.526363,0.849695,0.030988,0.000000,0.000000,0.000000,-1,0.147862,0.739741,0.274029,0.046504,-0.133905,0.044787
"2019-04-16 11:01:41.460 +0000",1555412501.459684,-1.613976,-1.023598,-1.061662,-0.519812,0.853985,0.022459,0.000000,0.000000,0.000000,-1,-0.214954,1.023961,0.516084,-0.035486,-0.101620,0.080736
"2019-04-16 11:01:41.480 +0000",1555412501.479717,-1.600383,-1.034423,-1.075690,-0.510798,0.859568,0.015117,0.000000,0.000000,0.000000,-1,-0.376431,1.465284,0.566429,-0.073278,-0.001734,0.018070
"2019-04-16 11:01:41.500 +0000",1555412501.499750,-1.579115,-1.051011,-1.082603,-0.496677,0.867926,0.004132,0.000000,0.000000,0.000000,-1,0.153455,1.212219,1.306683,0.128101,0.160425,-0.105832
"2019-04-16 11:01:41.520 +0000",1555412501.519783,-1.529068,-1.085199,-1.062118,-0.466330,0.884396,-0.019470,0.000000,0.000000,0.000000,-1,0.609294,2.033076,1.837912,0.243918,-0.037183,-0.027908
"2019-04-16 11:01:41.540 +0000",1555412501.539816,-1.463657,-1.117587,-1.031425,-0.435342,0.899047,-0.046822,0.000000,0.000000,0.000000,-1,0.713026,1.911862,1.496053,0.053918,-0.222930,-0.083595
"2019-04-16 11:01:41.560 +0000",1555412501.559850,-1.368228,-1.141618,-0.976818,-0.407615,0.909308,-0.083718,0.000000,0.000000,0.000000,-1,1.174373,2.754062,1.301857,0.108695,0.007059,0.118645
"2019-04-16 11:01:41.580 +0000",1555412501.579882,-1.235004,-1.160008,-0.904575,-0.377030,0.916806,-0.131587,0.000000,0.000000,0.000000,-1,1.237943,4.173263,1.231135,0.074356,-0.011533,0.207820
"2019-04-16 11:01:41.600 +0000",1555412501.599916,-1.060403,-1.172086,-0.828092,-0.338751,0.921562,-0.189659,0.000000,0.000000,0.000000,-1,0.197359,4.885688,0.968337,0.164160,-0.225060,0.434593
"2019-04-16 11:01:41.620 +0000",1555412501.619948,-0.996955,-1.192653,-0.837585,-0.310058,0.929352,-0.200422,0.000000,0.000000,0.000000,-1,-0.956990,2.964569,0.783182,0.009475,-0.221359,-0.585558
"2019-04-16 11:01:41.640 +0000",1555412501.639982,-0.945058,-1.216455,-0.836438,-0.281232,0.937875,-0.203221,0.000000,0.000000,0.000000,-1,-0.264116,1.592860,1.518608,-0.231570,0.590537,-0.235882
"2019-04-16 11:01:41.660 +0000",1555412501.660014,-0.904510,-1.248957,-0.801398,-0.248660,0.948655,-0.195504,0.000000,0.000000,0.000000,-1,-0.970736,0.048327,1.387043,-1.305051,0.904006,-0.331230
"2019-04-16 11:01:41.680 +0000",1555412501.680048,-0.899697,-1.282251,-0.803276,-0.222848,0.958659,-0.176952,0.000000,0.000000,0.000000,-1,-0.952120,0.483919,1.182751,0.431466,0.065542,0.004329
"2019-04-16 11:01:41.700 +0000",1555412501.700080,-0.884913,-1.309373,-0.797731,-0.200009,0.966023,-0.163695,0.000000,0.000000,0.000000,-1,-0.657656,0.372735,0.995832,-0.054248,0.041271,0.042235
"2019-04-16 11:01:41.720 +0000",1555412501.720113,-0.872587,-1.328642,-0.790895,-0.183682,0.970824,-0.154151,0.000000,0.000000,0.000000,-1,-0.432390,0.205020,0.606987,0.036312,0.116304,-0.046761
"2019-04-16 11:01:41.740 +0000",1555412501.740145,-0.869785,-1.338852,-0.792052,-0.175664,0.973221,-0.148264,0.000000,0.000000,0.000000,-1,-0.197668,0.131346,0.132717,-0.017207,0.127365,-0.018896
"2019-04-16 11:01:41.760 +0000",1555412501.760178,-0.873263,-1.338989,-0.797315,-0.176077,0.973253,-0.147566,0.000000,0.000000,0.000000,-1,0.016857,0.011286,-0.122025,0.039602,0.045103,0.034499
"2019-04-16 11:01:41.780 +0000",1555412501.780212,-0.886233,-1.336004,-0.810248,-0.180226,0.972563,-0.147107,0.000000,0.000000,0.000000,-1,-0.062668,0.031415,-0.261114,0.026997,0.030520,-0.047077
"2019-04-16 11:01:41.800 +0000",1555412501.800245,-0.901023,-1.333872,-0.824542,-0.184007,0.972064,-0.145712,0.000000,0.000000,0.000000,-1,-0.067023,-0.201626,-0.065069,-0.019728,-0.175235,-0.126565
"2019-04-16 11:01:41.820 +0000",1555412501.820278,-0.902123,-1.333975,-0.819766,-0.184088,0.972089,-0.145448,0.000000,0.000000,0.000000,-1,0.088653,-0.181662,0.053480,-0.135309,-0.069943,-0.066680
"2019-04-16 11:01:41.840 +0000",1555412501.840310,-0.898595,-1.334181,-0.815399,-0.183417,0.972137,-0.145971,0.000000,0.000000,0.000000,-1,-0.021103,-0.021889,-0.001824,-0.020196,0.006470,-0.023706
"2019-04-16 11:01:41.860 +0000",1555412501.860344,-0.905536,-1.332750,-0.818534,-0.185521,0.971801,-0.145554,0.000000,0.000000,0.000000,-1,0.000692,-0.151842,-0.098362,0.019581,-0.018645,-0.082214
"2019-04-16 11:01:41.880 +0000",1555412501.880377,-0.895518,-1.328966,-0.808533,-0.186922,0.970901,-0.149703,0.000000,0.000000,0.000000,-1,0.020346,-0.071057,-0.053501,-0.038664,-0.006073,-0.009050
"2019-04-16 11:01:41.900 +0000",1555412501.900409,-0.897817,-1.317248,-0.808779,-0.196149,0.968028,-0.156353,0.000000,0.000000,0.000000,-1,0.039834,-0.027497,-0.041141,-0.046374,0.002827,-0.007969
"2019-04-16 11:01:41.920 +0000",1555412501.920442,-0.905454,-1.316965,-0.817826,-0.197552,0.967957,-0.155020,0.000000,0.000000,0.000000,-1,-0.099399,0.073575,-0.017115,-0.021228,-0.010804,-0.063669
"2019-04-16 11:01:41.940 +0000",1555412501.940475,-0.898725,-1.315624,-0.813149,-0.197521,0.967620,-0.157154,0.000000,0.000000,0.000000,-1,-0.072700,0.083998,0.005580,-0.016316,-0.024901,-0.019375
"2019-04-16 11:01:41.961 +0000",1555412501.960509,-0.905401,-1.316215,-0.821343,-0.198115,0.967769,-0.155478,0.000000,0.000000,0.000000,-1,-0.072797,0.066959,-0.002102,-0.016484,0.005544,-0.018594
"2019-04-16 11:01:41.981 +0000",1555412501.980541,-0.907636,-1.314294,-0.825158,-0.199928,0.967283,-0.156180,0.000000,0.000000,0.000000,-1,-0.070699,0.055260,-0.017192,-0.016991,-0.001143,-0.019419
"2019-04-16 11:01:42.001 +0000",1555412502.000574,-0.910709,-1.312090,-0.828487,-0.202090,0.966722,-0.156871,0.000000,0.000000,0.000000,-1,-0.081148,0.084146,-0.025454,-0.036878,-0.000932,-0.021626
"2019-04-16 11:01:42.021 +0000",1555412502.020607,-0.911020,-1.311076,-0.830830,-0.202914,0.966462,-0.157410,0.000000,0.000000,0.000000,-1,-0.121614,0.097221,-0.030840,0.000643,0.005905,-0.010040
"2019-04-16 11:01:42.041 +0000",1555412502.040640,-0.913720,-1.311069,-0.834194,-0.203344,0.966460,-0.156866,0.000000,0.000000,0.000000,-1,-0.042242,0.007053,-0.005862,-0.018809,0.010988,-0.023371
"2019-04-16 11:01:42.061 +0000",1555412502.060673,-0.916752,-1.310419,-0.838059,-0.204316,0.966293,-0.156630,0.000000,0.000000,0.000000,-1,-0.062244,0.048765,-0.003333,-0.033949,-0.063262,0.006270
"2019-04-16 11:01:42.081 +0000",1555412502.080705,-0.920743,-1.310029,-0.844058,-0.205240,0.966192,-0.156042,0.000000,0.000000,0.000000,-1,-0.120646,0.092878,-0.007373,-0.025473,0.071939,0.013814
"2019-04-16 11:01:42.101 +0000",1555412502.100740,-0.925990,-1.310671,-0.850111,-0.205560,0.966358,-0.154589,0.000000,0.000000,0.000000,-1,-0.052523,0.051991,-0.033174,-0.049140,-0.025684,-0.005292
"2019-04-16 11:01:42.121 +0000",1555412502.120772,-0.929051,-1.310042,-0.855474,-0.206519,0.966196,-0.154323,0.000000,0.000000,0.000000,-1,-0.085390,0.090555,-0.020056,0.009681,0.043326,0.016781
"2019-04-16 11:01:42.141 +0000",1555412502.140805,-0.937416,-1.310184,-0.865073,-0.207692,0.966232,-0.152509,0.000000,0.000000,0.000000,-1,-0.069545,0.061693,-0.031005,-0.065898,0.028671,0.014189
"2019-04-16 11:01:42.161 +0000",1555412502.160838,-0.940352,-1.310468,-0.869497,-0.207917,0.966306,-0.151737,0.000000,0.000000,0.000000,-1,-0.048303,0.055089,-0.008535,-0.034911,0.022479,0.028995
"2019-04-16 11:01:42.181 +0000",1555412502.180871,-0.946586,-1.309237,-0.876865,-0.209824,0.965988,-0.151133,0.000000,0.000000,0.000000,-1,-0.073925,0.044669,-0.034432,-0.010651,0.007843,0.018152
"2019-04-16 11:01:42.201 +0000",1555412502.200904,-0.951065,-1.310044,-0.882202,-0.209864,0.966196,-0.149739,0.000000,0.000000,0.000000,-1,-0.063460,0.024269,-0.011107,0.003443,0.015005,0.023609
"2019-04-16 11:01:42.221 +0000",1555412502.220937,-0.958654,-1.309347,-0.889741,-0.211545,0.966016,-0.148528,0.000000,0.000000,0.000000,-1,-0.050239,-0.062248,0.006113,-0.025836,0.013232,0.027831
"2019-04-16 11:01:42.241 +0000",1555412502.240970,-0.965190,-1.309990,-0.895797,-0.212001,0.966182,-0.146789,0.000000,0.000000,0.000000,-1,-0.018678,0.024977,0.011562,-0.024007,-0.021343,0.033966
"2019-04-16 11:01:42.261 +0000",1555412502.261003,-0.964952,-1.309058,-0.897128,-0.212707,0.965941,-0.147353,0.000000,0.000000,0.000000,-1,-0.017083,0.085853,-0.021919,0.047057,-0.139709,0.003111
"2019-04-16 11:01:42.281 +0000",1555412502.281036,-0.967493,-1.309961,-0.901688,-0.212362,0.966175,-0.146316,0.000000,0.000000,0.000000,-1,-0.052367,0.095561,0.017569,-0.067805,0.030178,0.032608
"2019-04-16 11:01:42.301 +0000",1555412502.301069,-0.972996,-1.311718,-0.908459,-0.211760,0.966626,-0.144190,0.000000,0.000000,0.000000,-1,-0.070952,0.038065,0.027495,-0.045610,0.029971,-0.012808
"2019-04-16 11:01:42.321 +0000",1555412502.321102,-0.978339,-1.312678,-0.914200,-0.211758,0.966872,-0.142539,0.000000,0.000000,0.000000,-1,-0.062570,0.013496,0.022972,-0.009098,0.006807,-0.013253
"2019-04-16 11:01:42.341 +0000",1555412502.341136,-0.980804,-1.313281,-0.917084,-0.211624,0.967026,-0.141692,0.000000,0.000000,0.000000,-1,-0.051757,0.022034,-0.002526,-0.004944,0.011704,0.001280
"2019-04-16 11:01:42.361 +0000",1555412502.361169,-0.985348,-1.313721,-0.922004,-0.211911,0.967138,-0.140493,0.000000,0.000000,0.000000,-1,-0.028422,0.007962,0.016659,-0.002521,-0.003454,-0.003366
"2019-04-16 11:01:42.381 +0000",1555412502.381202,-0.988276,-1.313385,-0.925067,-0.212593,0.967052,-0.140051,0.000000,0.000000,0.000000,-1,-0.017745,0.005776,0.011341,0.008751,-0.007198,-0.016672
"2019-04-16 11:01:42.401 +0000",1555412502.401234,-0.988233,-1.312963,-0.925389,-0.212928,0.966945,-0.140285,0.000000,0.000000,0.000000,-1,-0.012103,0.037812,-0.014976,0.032645,-0.001140,-0.023533
"2019-04-16 11:01:42.421 +0000",1555412502.421268,-0.988280,-1.312429,-0.926664,-0.213366,0.966808,-0.140559,0.000000,0.000000,0.000000,-1,0.022342,0.068577,-0.035826,0.037173,0.018482,-0.001119
"2019-04-16 11:01:42.441 +0000",1555412502.441301,-0.986744,-1.311425,-0.926200,-0.213959,0.966551,-0.141422,0.000000,0.000000,0.000000,-1,0.044552,0.033278,-0.047888,0.018143,0.009447,-0.012753
"2019-04-16 11:01:42.461 +0000",1555412502.461333,-0.983672,-1.309942,-0.923757,-0.214716,0.966170,-0.142872,0.000000,0.000000,0.000000,-1,0.053097,0.039579,-0.033879,0.011271,0.011033,-0.014965
"2019-04-16 11:01:42.481 +0000",1555412502.481367,-0.978431,-1.309170,-0.918500,-0.214584,0.965971,-0.144412,0.000000,0.000000,0.000000,-1,0.067392,-0.046938,-0.018792,-0.000382,0.036501,-0.000821
"2019-04-16 11:01:42.501 +0000",1555412502.501399,-0.974272,-1.308538,-0.912943,-0.214486,0.965807,-0.145646,0.000000,0.000000,0.000000,-1,0.110777,-0.110084,-0.036422,-0.026679,0.035139,0.005891
"2019-04-16 11:01:42.521 +0000",1555412502.521432,-0.966997,-1.307101,-0.902408,-0.214563,0.965433,-0.147990,0.000000,0.000000,0.000000,-1,0.169095,-0.143694,0.021179,-0.037695,-0.025400,-0.003834
"2019-04-16 11:01:42.541 +0000",1555412502.541465,-0.956320,-1.306241,-0.892744,-0.213649,0.965209,-0.150752,0.000000,0.000000,0.000000,-1,0.088890,0.280291,-0.011652,-0.108158,0.023271,-0.014715
"2019-04-16 11:01:42.561 +0000",1555412502.561497,-0.958925,-1.305127,-0.895722,-0.214921,0.964917,-0.150812,0.000000,0.000000,0.000000,-1,-0.119213,-0.177866,-0.052217,-0.204742,-0.004254,-0.019842
"2019-04-16 11:01:42.582 +0000",1555412502.581531,-0.964739,-1.307037,-0.901153,-0.214279,0.965417,-0.148510,0.000000,0.000000,0.000000,-1,-0.029343,0.052589,0.072754,0.234466,-0.067315,0.097744
"2019-04-16 11:01:42.602 +0000",1555412502.601563,-0.963511,-1.307527,-0.899796,-0.213708,0.965544,-0.148503,0.000000,0.000000,0.000000,-1,-0.014837,-0.046424,-0.012769,-0.015036,0.012895,-0.022442
"2019-04-16 11:01:42.622 +0000",1555412502.621597,-0.964973,-1.307572,-0.901301,-0.213889,0.965556,-0.148166,0.000000,0.000000,0.000000,-1,0.010102,0.016272,0.007323,0.027305,0.016027,0.011599
"2019-04-16 11:01:42.642 +0000",1555412502.641629,-0.967164,-1.307609,-0.902618,-0.214185,0.965566,-0.147676,0.000000,0.000000,0.000000,-1,-0.044080,-0.104892,-0.011456,-0.010486,0.036983,-0.004423
"2019-04-16 11:01:42.662 +0000",1555412502.661663,-0.970918,-1.308042,-0.904191,-0.214391,0.965678,-0.146635,0.000000,0.000000,0.000000,-1,-0.011147,-0.119036,0.010981,0.046621,0.008626,0.013975
"2019-04-16 11:01:42.682 +0000",1555412502.681695,-0.973789,-1.308158,-0.903772,-0.214719,0.965708,-0.145956,0.000000,0.000000,0.000000,-1,0.000034,-0.203326,0.001498,0.044949,0.022374,0.030614
"2019-04-16 11:01:42.702 +0000",1555412502.701728,-0.977798,-1.308181,-0.903520,-0.215284,0.965714,-0.145082,0.000000,0.000000,0.000000,-1,0.021169,-0.234389,0.001237,0.043974,0.016372,0.014344
"2019-04-16 11:01:42.722 +0000",1555412502.721761,-0.979462,-1.307772,-0.900643,-0.215853,0.965608,-0.144943,0.000000,0.000000,0.000000,-1,0.053246,-0.216549,0.028320,0.052828,-0.000566,0.012146
"2019-04-16 11:01:42.742 +0000",1555412502.741794,-0.978869,-1.308610,-0.895343,-0.215095,0.965826,-0.144619,0.000000,0.000000,0.000000,-1,0.056294,-0.231549,0.045260,0.013267,0.004603,-0.005283
"2019-04-16 11:01:42.762 +0000",1555412502.761827,-0.978072,-1.309759,-0.889596,-0.214059,0.966123,-0.144171,0.000000,0.000000,0.000000,-1,0.055127,-0.244348,0.048310,-0.013815,0.004626,-0.004816
"2019-04-16 11:01:42.782 +0000",1555412502.781860,-0.977022,-1.311035,-0.883348,-0.212886,0.966451,-0.143705,0.000000,0.000000,0.000000,-1,0.037946,-0.259159,0.045917,-0.010976,-0.000463,-0.022341
"2019-04-16 11:01:42.802 +0000",1555412502.801893,-0.977770,-1.312251,-0.878638,-0.212019,0.966763,-0.142890,0.000000,0.000000,0.000000,-1,0.017603,-0.271792,0.034983,-0.008028,0.000125,-0.024515
"2019-04-16 11:01:42.822 +0000",1555412502.821927,-0.979550,-1.312726,-0.875417,-0.211892,0.966884,-0.142256,0.000000,0.000000,0.000000,-1,0.018066,-0.212033,0.020722,-0.012077,-0.000225,-0.022569
"2019-04-16 11:01:42.842 +0000",1555412502.841960,-0.980866,-1.312446,-0.873232,-0.212304,0.966813,-0.142128,0.000000,0.000000,0.000000,-1,0.031476,-0.134219,0.003528,-0.016441,-0.005753,-0.021858
"2019-04-16 11:01:42.862 +0000",1555412502.861993,-0.980712,-1.311703,-0.870852,-0.212878,0.966623,-0.142560,0.000000,0.000000,0.000000,-1,0.031807,-0.090474,-0.004509,-0.023145,-0.012475,-0.027667
"2019-04-16 11:01:42.882 +0000",1555412502.882025,-0.980440,-1.310920,-0.869167,-0.213468,0.966422,-0.143039,0.000000,0.000000,0.000000,-1,0.009652,-0.058297,-0.018133,-0.039446,-0.006446,-0.033002
"2019-04-16 11:01:42.902 +0000",1555412502.902059,-0.981146,-1.310217,-0.868914,-0.214134,0.966241,-0.143266,0.000000,0.000000,0.000000,-1,-0.007352,-0.049637,-0.024526,-0.043785,-0.008569,-0.035262
"2019-04-16 11:01:42.922 +0000",1555412502.922091,-0.983401,-1.309530,-0.870281,-0.215009,0.966064,-0.143151,0.000000,0.000000,0.000000,-1,-0.014771,-0.043181,-0.027692,-0.042559,-0.005538,-0.033546
"2019-04-16 11:01:42.942 +0000",1555412502.942125,-0.984757,-1.308709,-0.871244,-0.215863,0.965851,-0.143298,0.000000,0.000000,0.000000,-1,-0.000613,-0.000637,-0.020714,-0.036410,-0.002320,-0.023557
"2019-04-16 11:01:42.962 +0000",1555412502.962158,-0.984374,-1.307677,-0.871241,-0.216639,0.965583,-0.143932,0.000000,0.000000,0.000000,-1,0.001705,0.028121,-0.013953,-0.030522,-0.006156,-0.028171
"2019-04-16 11:01:42.982 +0000",1555412502.982191,-0.983499,-1.306583,-0.871181,-0.217392,0.965298,-0.144707,0.000000,0.000000,0.000000,-1,0.007210,0.051549,-0.014721,-0.040375,-0.006421,-0.027855
"2019-04-16 11:01:43.002 +0000",1555412503.002223,-0.982419,-1.305374,-0.871376,-0.218206,0.964982,-0.145589,0.000000,0.000000,0.000000,-1,0.003100,0.070796,-0.023066,-0.047678,-0.009385,-0.021357
"2019-04-16 11:01:43.022 +0000",1555412503.022257,-0.982230,-1.304314,-0.872744,-0.219030,0.964703,-0.146198,0.000000,0.000000,0.000000,-1,-0.010686,0.081569,-0.029419,-0.043665,-0.006360,-0.012295
"2019-04-16 11:01:43.042 +0000",1555412503.042289,-0.982318,-1.303550,-0.874714,-0.219655,0.964502,-0.146588,0.000000,0.000000,0.000000,-1,-0.022335,0.100800,-0.016425,-0.037822,-0.005441,-0.009403
"2019-04-16 11:01:43.062 +0000",1555412503.062323,-0.981495,-1.302957,-0.876021,-0.220010,0.964345,-0.147086,0.000000,0.000000,0.000000,-1,-0.016943,0.112467,-0.006643,-0.041617,-0.005498,-0.017343
"2019-04-16 11:01:43.082 +0000",1555412503.082355,-0.980748,-1.302269,-0.877059,-0.220451,0.964163,-0.147620,0.000000,0.000000,0.000000,-1,-0.006558,0.072927,-0.001712,-0.039986,-0.015264,-0.016442
"2019-04-16 11:01:43.102 +0000",1555412503.102389,-0.980989,-1.301651,-0.878605,-0.220983,0.963998,-0.147898,0.000000,0.000000,0.000000,-1,-0.014102,0.060199,-0.008310,-0.035991,0.000693,-0.002263
"2019-04-16 11:01:43.122 +0000",1555412503.122421,-0.981963,-1.301102,-0.880713,-0.221566,0.963852,-0.147977,0.000000,0.000000,0.000000,-1,-0.017367,0.049569,-0.012725,-0.029700,0.007370,0.004239
"2019-04-16 11:01:43.142 +0000",1555412503.142455,-0.983331,-1.300477,-0.882903,-0.222270,0.963686,-0.148008,0.000000,0.000000,0.000000,-1,-0.017491,0.031445,-0.014007,-0.028890,-0.002534,0.002149
"2019-04-16 11:01:43.162 +0000",1555412503.162487,-0.984642,-1.299874,-0.884758,-0.222948,0.963524,-0.148037,0.000000,0.000000,0.000000,-1,-0.016559,0.013301,-0.011008,-0.022566,-0.000619,0.002453
"2019-04-16 11:01:43.183 +0000",1555412503.182521,-0.986399,-1.299535,-0.886598,-0.223480,0.963434,-0.147825,0.000000,0.000000,0.000000,-1,-0.011371,-0.002767,0.001654,-0.014542,0.001242,-0.003038
"2019-04-16 11:01:43.203 +0000",1555412503.202553,-0.987899,-1.299434,-0.888005,-0.223783,0.963407,-0.147544,0.000000,0.000000,0.000000,-1,-0.007077,0.001464,0.003862,-0.018893,0.002185,0.003058
"2019-04-16 11:01:43.223 +0000",1555412503.222587,-0.989523,-1.299249,-0.889791,-0.224170,0.963357,-0.147278,0.000000,0.000000,0.000000,-1,-0.019770,0.012255,-0.011036,-0.022946,0.005729,0.006317
"2019-04-16 11:01:43.243 +0000",1555412503.242620,-0.991885,-1.299130,-0.892812,-0.224614,0.963325,-0.146811,0.000000,0.000000,0.000000,-1,-0.037642,0.050770,-0.013878,-0.024898,0.005425,0.010794
"2019-04-16 11:01:43.263 +0000",1555412503.262652,-0.993723,-1.299063,-0.896100,-0.224938,0.963307,-0.146433,0.000000,0.000000,0.000000,-1,-0.037419,0.078524,-0.023171,-0.019203,0.000209,0.007380
"2019-04-16 11:01:43.283 +0000",1555412503.282686,-0.996233,-1.298863,-0.900396,-0.225466,0.963253,-0.145972,0.000000,0.000000,0.000000,-1,-0.050118,0.089308,-0.035931,-0.014265,0.003116,0.006812
"2019-04-16 11:01:43.303 +0000",1555412503.302719,-0.999892,-1.298631,-0.906047,-0.226186,0.963191,-0.145267,0.000000,0.000000,0.000000,-1,-0.059695,0.092579,-0.039145,-0.006037,0.003377,0.004886
"2019-04-16 11:01:43.323 +0000",1555412503.322752,-1.003797,-1.298474,-0.911880,-0.226879,0.963149,-0.144464,0.000000,0.000000,0.000000,-1,-0.054418,0.086131,-0.033851,0.000759,0.005815,0.005929
"2019-04-16 11:01:43.343 +0000",1555412503.342784,-1.007274,-1.298343,-0.917057,-0.227487,0.963114,-0.143742,0.000000,0.000000,0.000000,-1,-0.051359,0.066906,-0.030855,0.007349,0.009192,0.005024
"2019-04-16 11:01:43.363 +0000",1555412503.362818,-1.010405,-1.298200,-0.921433,-0.228054,0.963075,-0.143102,0.000000,0.000000,0.000000,-1,-0.035517,0.043334,-0.027848,0.016216,0.015883,0.012853
"2019-04-16 11:01:43.383 +0000",1555412503.382851,-1.012852,-1.298009,-0.924518,-0.228558,0.963024,-0.142641,0.000000,0.000000,0.000000,-1,-0.018655,0.011236,-0.029212,0.020062,0.016453,0.013277
"2019-04-16 11:01:43.403 +0000",1555412503.402884,-1.014495,-1.297658,-0.926075,-0.229079,0.962929,-0.142444,0.000000,0.000000,0.000000,-1,0.005669,-0.019863,-0.024115,0.019652,0.016838,0.014224
"2019-04-16 11:01:43.423 +0000",1555412503.422916,-1.014895,-1.297327,-0.925852,-0.229406,0.962840,-0.142520,0.000000,0.000000,0.000000,-1,0.022570,-0.041332,-0.013597,0.019339,0.013036,0.008975
"2019-04-16 11:01:43.443 +0000",1555412503.442950,-1.014516,-1.297148,-0.924243,-0.229499,0.962791,-0.142698,0.000000,0.000000,0.000000,-1,0.034057,-0.072373,-0.000011,0.015144,0.006325,0.003950
"2019-04-16 11:01:43.463 +0000",1555412503.462983,-1.014173,-1.297134,-0.921969,-0.229462,0.962788,-0.142784,0.000000,0.000000,0.000000,-1,0.028501,-0.104322,-0.002549,0.005997,0.006786,0.001533
"2019-04-16 11:01:43.483 +0000",1555412503.483016,-1.015321,-1.297209,-0.920557,-0.229564,0.962808,-0.142482,0.000000,0.000000,0.000000,-1,0.022916,-0.137360,0.002381,0.001171,0.003989,-0.007069
"2019-04-16 11:01:43.503 +0000",1555412503.503048,-1.016727,-1.297449,-0.918920,-0.229568,0.962873,-0.142038,0.000000,0.000000,0.000000,-1,0.015239,-0.161869,0.012745,0.003204,0.001651,-0.005957
"2019-04-16 11:01:43.523 +0000",1555412503.523082,-1.018676,-1.297787,-0.917395,-0.229567,0.962964,-0.141419,0.000000,0.000000,0.000000,-1,0.006582,-0.177812,0.013586,0.002928,-0.002316,-0.011123
"2019-04-16 11:01:43.543 +0000",1555412503.543114,-1.021837,-1.298086,-0.916762,-0.229768,0.963044,-0.140543,0.000000,0.000000,0.000000,-1,-0.006362,-0.197979,0.010081,-0.002700,-0.006166,-0.014456
"2019-04-16 11:01:43.563 +0000",1555412503.563148,-1.025971,-1.298380,-0.916940,-0.230104,0.963124,-0.139445,0.000000,0.000000,0.000000,-1,-0.019155,-0.194700,0.011127,-0.008299,-0.003743,-0.006261
"2019-04-16 11:01:43.583 +0000",1555412503.583181,-1.030172,-1.298871,-0.917554,-0.230283,0.963255,-0.138234,0.000000,0.000000,0.000000,-1,-0.028641,-0.174397,0.017731,-0.004076,-0.012099,-0.003108
"2019-04-16 11:01:43.603 +0000",1555412503.603214,-1.034101,-1.299533,-0.918170,-0.230276,0.963433,-0.137002,0.000000,0.000000,0.000000,-1,-0.034983,-0.161585,0.026401,-0.014139,-0.006753,-0.008216
"2019-04-16 11:01:43.623 +0000",1555412503.623246,-1.038552,-1.300288,-0.919516,-0.230257,0.963635,-0.135606,0.000000,0.000000,0.000000,-1,-0.051006,-0.163607,0.024163,-0.017638,-0.001721,-0.012862
"2019-04-16 11:01:43.643 +0000",1555412503.643280,-1.044540,-1.301127,-0.922295,-0.230365,0.963859,-0.133819,0.000000,0.000000,0.000000,-1,-0.068105,-0.166689,0.021907,-0.020505,0.003243,-0.009965
"2019-04-16 11:01:43.663 +0000",1555412503.663312,-1.051781,-1.302129,-0.926466,-0.230489,0.964126,-0.131668,0.000000,0.000000,0.000000,-1,-0.087230,-0.153765,0.020897,-0.022242,-0.001983,-0.012573
"2019-04-16 11:01:43.683 +0000",1555412503.683346,-1.059644,-1.303269,-0.931706,-0.230559,0.964427,-0.129314,0.000000,0.000000,0.000000,-1,-0.103098,-0.131278,0.024290,-0.024766,-0.013927,-0.014256
"2019-04-16 11:01:43.703 +0000",1555412503.703378,-1.067835,-1.304398,-0.937787,-0.230656,0.964725,-0.126896,0.000000,0.000000,0.000000,-1,-0.109252,-0.101335,0.009649,-0.027690,-0.010044,-0.018489
"2019-04-16 11:01:43.723 +0000",1555412503.723410,-1.076115,-1.305138,-0.944944,-0.231070,0.964920,-0.124643,0.000000,0.000000,0.000000,-1,-0.108735,-0.037285,-0.013112,-0.015268,-0.003097,-0.004340
"2019-04-16 11:01:43.743 +0000",1555412503.743443,-1.083460,-1.305451,-0.952235,-0.231713,0.965002,-0.122802,0.000000,0.000000,0.000000,-1,-0.093532,-0.005360,-0.023353,-0.000693,0.002848,-0.000673
"2019-04-16 11:01:43.763 +0000",1555412503.763477,-1.089575,-1.305468,-0.958439,-0.232445,0.965007,-0.121374,0.000000,0.000000,0.000000,-1,-0.073255,-0.007618,-0.025419,0.004692,0.013738,-0.009363
"2019-04-16 11:01:43.784 +0000",1555412503.783509,-1.094677,-1.305292,-0.963492,-0.233212,0.964960,-0.120265,0.000000,0.000000,0.000000,-1,-0.059470,-0.019450,-0.021216,0.010404,0.012701,-0.004979
"2019-04-16 11:01:43.804 +0000",1555412503.803543,-1.099067,-1.305226,-0.967311,-0.233795,0.964943,-0.119269,0.000000,0.000000,0.000000,-1,-0.039456,-0.054796,-0.012983,0.011154,0.021324,-0.012079
"2019-04-16 11:01:43.824 +0000",1555412503.823576,-1.102372,-1.305278,-0.969292,-0.234144,0.964956,-0.118473,0.000000,0.000000,0.000000,-1,-0.016166,-0.080560,-0.006760,0.002897,0.017496,-0.007030
"2019-04-16 11:01:43.844 +0000",1555412503.843609,-1.104577,-1.305219,-0.969907,-0.234455,0.964941,-0.117982,0.000000,0.000000,0.000000,-1,-0.005467,-0.080606,-0.014190,-0.007168,0.005197,-0.001540
"2019-04-16 11:01:43.864 +0000",1555412503.863642,-1.106545,-1.305101,-0.970400,-0.234788,0.964910,-0.117571,0.000000,0.000000,0.000000,-1,-0.009659,-0.069912,-0.015154,-0.019911,-0.003240,0.000582
"2019-04-16 11:01:43.884 +0000",1555412503.883675,-1.108591,-1.305122,-0.971289,-0.235010,0.964916,-0.117082,0.000000,0.000000,0.000000,-1,-0.021342,-0.059186,-0.010810,-0.034277,0.001027,0.007051
"2019-04-16 11:01:43.904 +0000",1555412503.903708,-1.111659,-1.305362,-0.973320,-0.235160,0.964979,-0.116257,0.000000,0.000000,0.000000,-1,-0.040539,-0.050569,0.002024,-0.034615,0.000262,-0.000701
"2019-04-16 11:01:43.924 +0000",1555412503.923741,-1.115385,-1.305718,-0.976275,-0.235283,0.965072,-0.115229,0.000000,0.000000,0.000000,-1,-0.047953,-0.041989,0.002089,-0.025688,-0.005615,-0.004507
"2019-04-16 11:01:43.944 +0000",1555412503.943774,-1.119017,-1.306025,-0.979305,-0.235434,0.965152,-0.114245,0.000000,0.000000,0.000000,-1,-0.037190,-0.026089,0.010877,-0.019815,-0.000507,-0.005613
"2019-04-16 11:01:43.964 +0000",1555412503.963807,-1.121916,-1.306076,-0.981906,-0.235720,0.965166,-0.113540,0.000000,0.000000,0.000000,-1,-0.038069,-0.006834,-0.007071,-0.024244,0.013854,-0.003021
"2019-04-16 11:01:43.984 +0000",1555412503.983840,-1.124841,-1.305894,-0.984971,-0.236209,0.965118,-0.112926,0.000000,0.000000,0.000000,-1,-0.029304,0.021924,-0.014174,-0.011747,0.006531,-0.003865
"2019-04-16 11:01:44.004 +0000",1555412504.003873,-1.126430,-1.305636,-0.987299,-0.236613,0.965050,-0.112658,0.000000,0.000000,0.000000,-1,-0.020592,0.045334,-0.015995,-0.010228,0.001716,-0.005491
"2019-04-16 11:01:44.024 +0000",1555412504.023906,-1.127044,-1.305311,-0.989060,-0.236965,0.964965,-0.112647,0.000000,0.000000,0.000000,-1,-0.010874,0.061263,-0.014693,-0.017444,0.000672,-0.001397
"2019-04-16 11:01:44.044 +0000",1555412504.043938,-1.127279,-1.304928,-0.990573,-0.237326,0.964865,-0.112750,0.000000,0.000000,0.000000,-1,-0.015137,0.060241,-0.020070,-0.024408,0.000605,0.002917
"2019-04-16 11:01:44.064 +0000",1555412504.063972,-1.128144,-1.304643,-0.992669,-0.237672,0.964790,-0.112662,0.000000,0.000000,0.000000,-1,-0.022629,0.057093,-0.021211,-0.021880,0.003457,0.010505
"2019-04-16 11:01:44.084 +0000",1555412504.084005,-1.129295,-1.304395,-0.995002,-0.238018,0.964724,-0.112491,0.000000,0.000000,0.000000,-1,-0.023737,0.051766,-0.020210,-0.013996,0.008435,0.012348
"2019-04-16 11:01:44.104 +0000",1555412504.104038,-1.130454,-1.304103,-0.997049,-0.238402,0.964648,-0.112335,0.000000,0.000000,0.000000,-1,-0.013223,0.030357,-0.016135,-0.001359,0.009382,0.010437
"2019-04-16 11:01:44.124 +0000",1555412504.124071,-1.131620,-1.303759,-0.998684,-0.238834,0.964557,-0.112198,0.000000,0.000000,0.000000,-1,-0.004822,0.011101,-0.014183,0.006916,0.009854,0.011200
"2019-04-16 11:01:44.144 +0000",1555412504.144104,-1.132600,-1.303389,-0.999749,-0.239266,0.964459,-0.112115,0.000000,0.000000,0.000000,-1,0.000420,-0.001736,-0.012170,0.007226,0.007754,0.013406
"2019-04-16 11:01:44.164 +0000",1555412504.164135,-1.133509,-1.303071,-1.000523,-0.239647,0.964375,-0.112028,0.000000,0.000000,0.000000,-1,0.002487,-0.012407,-0.014422,0.006599,0.006038,0.014921
"2019-04-16 11:01:44.184 +0000",1555412504.184169,-1.134590,-1.302778,-1.001306,-0.240024,0.964297,-0.111888,0.000000,0.000000,0.000000,-1,0.000338,-0.016642,-0.019826,0.002780,0.005551,0.014857
"2019-04-16 11:01:44.204 +0000",1555412504.204202,-1.135780,-1.302550,-1.002243,-0.240355,0.964237,-0.111695,0.000000,0.000000,0.000000,-1,-0.003875,-0.007027,-0.016528,0.002043,0.004757,0.013169
"2019-04-16 11:01:44.224 +0000",1555412504.224235,-1.136940,-1.302495,-1.003281,-0.240533,0.964223,-0.111438,0.000000,0.000000,0.000000,-1,-0.008167,-0.005962,-0.006917,0.000452,0.002483,0.010410
"2019-04-16 11:01:44.244 +0000",1555412504.244268,-1.138224,-1.302668,-1.004583,-0.240525,0.964268,-0.111060,0.000000,0.000000,0.000000,-1,-0.016664,0.002608,-0.001514,-0.004043,-0.000218,0.008490
"2019-04-16 11:01:44.264 +0000",1555412504.264301,-1.139660,-1.302920,-1.006146,-0.240463,0.964335,-0.110612,0.000000,0.000000,0.000000,-1,-0.017720,0.004745,-0.000425,-0.007797,0.002111,0.005083
"2019-04-16 11:01:44.284 +0000",1555412504.284334,-1.140964,-1.303129,-1.007622,-0.240425,0.964390,-0.110215,0.000000,0.000000,0.000000,-1,-0.017694,0.009007,0.000694,-0.003014,0.004741,0.004456
"2019-04-16 11:01:44.304 +0000",1555412504.304368,-1.141890,-1.303260,-1.008772,-0.240411,0.964425,-0.109940,0.000000,0.000000,0.000000,-1,-0.008092,0.007878,0.000727,0.001992,0.007270,0.003784
"2019-04-16 11:01:44.324 +0000",1555412504.324400,-1.142198,-1.303283,-1.009206,-0.240424,0.964431,-0.109856,0.000000,0.000000,0.000000,-1,0.002562,0.004610,0.000740,0.007255,0.010132,0.003029
"2019-04-16 11:01:44.344 +0000",1555412504.344434,-1.141859,-1.303155,-1.008868,-0.240499,0.964397,-0.109989,0.000000,0.000000,0.000000,-1,0.012124,-0.003970,-0.003590,0.006857,0.011967,0.002674
"2019-04-16 11:01:44.364 +0000",1555412504.364466,-1.141306,-1.302914,-1.008046,-0.240650,0.964334,-0.110219,0.000000,0.000000,0.000000,-1,0.021639,-0.017892,-0.004775,0.006672,0.010474,0.000645
"2019-04-16 11:01:44.384 +0000",1555412504.384499,-1.140549,-1.302694,-1.006741,-0.240759,0.964275,-0.110489,0.000000,0.000000,0.000000,-1,0.023654,-0.032850,0.000403,0.010992,0.008137,0.002701
"2019-04-16 11:01:44.405 +0000",1555412504.404532,-1.139529,-1.302557,-1.005008,-0.240766,0.964239,-0.110790,0.000000,0.000000,0.000000,-1,0.030050,-0.033961,0.001490,0.009947,0.008524,0.006863
"2019-04-16 11:01:44.425 +0000",1555412504.424565,-1.138153,-1.302374,-1.002805,-0.240774,0.964191,-0.111195,0.000000,0.000000,0.000000,-1,0.034248,-0.045709,-0.001834,0.002767,0.011075,0.006367
"2019-04-16 11:01:44.445 +0000",1555412504.444599,-1.136816,-1.302176,-1.000353,-0.240799,0.964138,-0.111598,0.000000,0.000000,0.000000,-1,0.033071,-0.058517,0.004423,0.000015,0.010853,0.008830
"2019-04-16 11:01:44.465 +0000",1555412504.464632,-1.135824,-1.302093,-0.997957,-0.240761,0.964116,-0.111870,0.000000,0.000000,0.000000,-1,0.031921,-0.068123,0.009649,-0.000252,0.005382,0.008980
"2019-04-16 11:01:44.485 +0000",1555412504.484664,-1.134242,-1.302131,-0.995055,-0.240550,0.964126,-0.112236,0.000000,0.000000,0.000000,-1,0.043747,-0.053293,0.017361,-0.001744,0.004487,0.010200
"2019-04-16 11:01:44.505 +0000",1555412504.504697,-1.131787,-1.302093,-0.991463,-0.240307,0.964116,-0.112841,0.000000,0.000000,0.000000,-1,0.049136,-0.046923,0.015324,-0.010044,0.004863,0.011172
"2019-04-16 11:01:44.525 +0000",1555412504.524730,-1.129015,-1.302040,-0.987644,-0.240039,0.964102,-0.113529,0.000000,0.000000,0.000000,-1,0.049150,-0.042674,0.020718,-0.010007,0.003733,0.012119
"2019-04-16 11:01:44.545 +0000",1555412504.544763,-1.126145,-1.301986,-0.983921,-0.239760,0.964087,-0.114240,0.000000,0.000000,0.000000,-1,0.051422,-0.024551,0.017734,-0.014192,0.005593,0.013211
"2019-04-16 11:01:44.565 +0000",1555412504.564795,-1.122542,-1.301825,-0.979882,-0.239487,0.964045,-0.115170,0.000000,0.000000,0.000000,-1,0.063327,-0.001171,0.019134,-0.020126,0.006536,0.011303
"2019-04-16 11:01:44.585 +0000",1555412504.584827,-1.118080,-1.301480,-0.975484,-0.239269,0.963953,-0.116383,0.000000,0.000000,0.000000,-1,0.060291,0.019136,0.010807,-0.028019,0.006598,0.005589
"2019-04-16 11:01:44.605 +0000",1555412504.604861,-1.113215,-1.301089,-0.970854,-0.239038,0.963849,-0.117712,0.000000,0.000000,0.000000,-1,0.058280,0.037274,0.012078,-0.014426,-0.012692,-0.000910
"2019-04-16 11:01:44.625 +0000",1555412504.624894,-1.109278,-1.300744,-0.967547,-0.238870,0.963757,-0.118800,0.000000,0.000000,0.000000,-1,0.049838,0.048018,0.003613,-0.016364,0.004230,0.009593
"2019-04-16 11:01:44.645 +0000",1555412504.644927,-1.105509,-1.300296,-0.964822,-0.238807,0.963637,-0.119893,0.000000,0.000000,0.000000,-1,0.043565,0.065134,-0.000492,-0.012933,0.008180,-0.003276
"2019-04-16 11:01:44.665 +0000",1555412504.664960,-1.101976,-1.299821,-0.962458,-0.238791,0.963510,-0.120943,0.000000,0.000000,0.000000,-1,0.044581,0.058723,0.001576,-0.006647,0.004919,-0.005644
"2019-04-16 11:01:44.685 +0000",1555412504.684994,-1.098205,-1.299308,-0.959578,-0.238772,0.963373,-0.122068,0.000000,0.000000,0.000000,-1,0.054089,0.043735,0.000377,0.003528,0.005743,-0.002871
"2019-04-16 11:01:44.705 +0000",1555412504.705026,-1.094191,-1.298705,-0.955980,-0.238797,0.963211,-0.123292,0.000000,0.000000,0.000000,-1,0.070963,0.014830,0.001192,0.011716,0.007981,-0.001083
"2019-04-16 11:01:44.725 +0000",1555412504.725059,-1.089267,-1.297954,-0.950768,-0.238827,0.963009,-0.124801,0.000000,0.000000,0.000000,-1,0.089889,-0.024765,0.006163,0.011090,0.008777,-0.001847
"2019-04-16 11:01:44.745 +0000",1555412504.745093,-1.083399,-1.297139,-0.943899,-0.238784,0.962789,-0.126567,0.000000,0.000000,0.000000,-1,0.108984,-0.039838,0.012491,0.004943,0.011027,0.001827
"2019-04-16 11:01:44.765 +0000",1555412504.765125,-1.076637,-1.296314,-0.936104,-0.238623,0.962566,-0.128556,0.000000,0.000000,0.000000,-1,0.117539,-0.038820,0.010407,0.000204,0.010487,0.001374
"2019-04-16 11:01:44.785 +0000",1555412504.785158,-1.070358,-1.295447,-0.928637,-0.238543,0.962330,-0.130452,0.000000,0.000000,0.000000,-1,0.106796,-0.050465,0.004875,-0.005369,0.002773,-0.005274
"2019-04-16 11:01:44.805 +0000",1555412504.805192,-1.064990,-1.294594,-0.921911,-0.238558,0.962098,-0.132129,0.000000,0.000000,0.000000,-1,0.099280,-0.057871,0.001546,-0.013014,-0.004456,-0.012967
"2019-04-16 11:01:44.825 +0000",1555412504.825224,-1.060783,-1.293888,-0.916193,-0.238592,0.961905,-0.133463,0.000000,0.000000,0.000000,-1,0.072472,-0.071579,0.007669,-0.028895,-0.009482,-0.014059
"2019-04-16 11:01:44.845 +0000",1555412504.845257,-1.059138,-1.293600,-0.912765,-0.238614,0.961826,-0.133991,0.000000,0.000000,0.000000,-1,0.031754,-0.090523,0.011526,-0.035816,-0.012302,-0.012585
"2019-04-16 11:01:44.865 +0000",1555412504.865290,-1.059458,-1.293753,-0.911132,-0.238527,0.961868,-0.133842,0.000000,0.000000,0.000000,-1,0.001799,-0.093566,0.024172,-0.020216,-0.014099,-0.011086
"2019-04-16 11:01:44.885 +0000",1555412504.885323,-1.061060,-1.294206,-0.910939,-0.238362,0.961992,-0.133247,0.000000,0.000000,0.000000,-1,-0.021666,-0.089155,0.026248,-0.006328,-0.011919,-0.011665
"2019-04-16 11:01:44.905 +0000",1555412504.905356,-1.063755,-1.294759,-0.911955,-0.238255,0.962143,-0.132346,0.000000,0.000000,0.000000,-1,-0.034438,-0.083737,0.025181,-0.005565,-0.006577,-0.011529
"2019-04-16 11:01:44.925 +0000",1555412504.925389,-1.067172,-1.295234,-0.913801,-0.238305,0.962272,-0.131311,0.000000,0.000000,0.000000,-1,-0.036484,-0.075164,0.015653,-0.005179,0.000176,-0.007636
"2019-04-16 11:01:44.945 +0000",1555412504.945421,-1.070090,-1.295667,-0.915108,-0.238323,0.962390,-0.130415,0.000000,0.000000,0.000000,-1,-0.025913,-0.088045,0.020897,0.003322,-0.002460,-0.009386
"2019-04-16 11:01:44.965 +0000",1555412504.965454,-1.072016,-1.296135,-0.915187,-0.238178,0.962517,-0.129740,0.000000,0.000000,0.000000,-1,-0.006772,-0.097776,0.024081,-0.003491,0.001427,-0.012090
"2019-04-16 11:01:44.985 +0000",1555412504.985488,-1.073314,-1.296446,-0.914308,-0.238082,0.962601,-0.129287,0.000000,0.000000,0.000000,-1,0.003805,-0.113828,0.019669,-0.009706,0.008163,-0.012314
"2019-04-16 11:01:45.006 +0000",1555412505.005520,-1.074271,-1.296689,-0.912910,-0.238001,0.962667,-0.128948,0.000000,0.000000,0.000000,-1,0.009098,-0.118144,0.024988,-0.016989,0.007258,-0.007999
"2019-04-16 11:01:45.026 +0000",1555412505.025553,-1.075028,-1.296966,-0.911291,-0.237863,0.962742,-0.128642,0.000000,0.000000,0.000000,-1,0.010232,-0.109614,0.022956,-0.021933,0.003338,-0.014043
"2019-04-16 11:01:45.046 +0000",1555412505.045586,-1.075308,-1.297167,-0.909423,-0.237729,0.962797,-0.128483,0.000000,0.000000,0.000000,-1,0.015650,-0.100038,0.018819,-0.022418,0.000033,-0.015057
"2019-04-16 11:01:45.066 +0000",1555412505.065620,-1.075244,-1.297197,-0.907304,-0.237695,0.962805,-0.128484,0.000000,0.000000,0.000000,-1,0.023158,-0.097935,0.012467,-0.020865,0.001505,-0.015757
"2019-04-16 11:01:45.086 +0000",1555412505.085651,-1.075242,-1.297057,-0.905284,-0.237814,0.962767,-0.128549,0.000000,0.000000,0.000000,-1,0.026414,-0.092608,0.007201,-0.015345,0.003832,-0.013327
"2019-04-16 11:01:45.106 +0000",1555412505.105685,-1.075016,-1.296748,-0.903275,-0.238046,0.962683,-0.128744,0.000000,0.000000,0.000000,-1,0.029749,-0.075555,0.003142,-0.012213,0.003656,-0.008372
"2019-04-16 11:01:45.126 +0000",1555412505.125718,-1.074292,-1.296376,-0.901175,-0.238268,0.962582,-0.129087,0.000000,0.000000,0.000000,-1,0.029892,-0.054235,0.005529,-0.011015,-0.000623,-0.009875
"2019-04-16 11:01:45.146 +0000",1555412505.145751,-1.073207,-1.296117,-0.899099,-0.238347,0.962512,-0.129464,0.000000,0.000000,0.000000,-1,0.024633,-0.041414,0.008860,-0.012996,-0.002033,-0.007880
"2019-04-16 11:01:45.166 +0000",1555412505.165785,-1.072243,-1.295936,-0.897406,-0.238375,0.962463,-0.129777,0.000000,0.000000,0.000000,-1,0.015134,-0.027476,0.004703,-0.013716,-0.003052,-0.007079
"2019-04-16 11:01:45.186 +0000",1555412505.185817,-1.071967,-1.295827,-0.896792,-0.238431,0.962433,-0.129893,0.000000,0.000000,0.000000,-1,0.001450,-0.000718,0.001744,-0.015017,-0.002518,-0.004979
"2019-04-16 11:01:45.206 +0000",1555412505.205850,-1.071876,-1.295869,-0.896864,-0.238384,0.962445,-0.129896,0.000000,0.000000,0.000000,-1,-0.013420,0.012162,0.006098,-0.012867,-0.004697,-0.004183
"2019-04-16 11:01:45.226 +0000",1555412505.225883,-1.072578,-1.296084,-0.897927,-0.238293,0.962503,-0.129630,0.000000,0.000000,0.000000,-1,-0.025090,0.022901,0.006167,-0.009937,-0.001062,-0.003015
"2019-04-16 11:01:45.246 +0000",1555412505.245915,-1.073910,-1.296413,-0.899783,-0.238188,0.962592,-0.129161,0.000000,0.000000,0.000000,-1,-0.035760,0.022977,0.003979,-0.010729,0.002358,-0.001988
"2019-04-16 11:01:45.266 +0000",1555412505.265949,-1.075682,-1.296671,-0.902050,-0.238197,0.962662,-0.128621,0.000000,0.000000,0.000000,-1,-0.034703,0.018724,-0.002478,-0.009880,0.004852,-0.003154
"2019-04-16 11:01:45.286 +0000",1555412505.285980,-1.077444,-1.296882,-0.904279,-0.238244,0.962720,-0.128104,0.000000,0.000000,0.000000,-1,-0.029353,0.020819,-0.001359,-0.007606,0.006061,-0.001946
"2019-04-16 11:01:45.306 +0000",1555412505.306013,-1.078694,-1.297100,-0.906043,-0.238220,0.962778,-0.127708,0.000000,0.000000,0.000000,-1,-0.026148,0.022918,0.002956,-0.006226,0.005163,-0.001122
"2019-04-16 11:01:45.326 +0000",1555412505.326047,-1.079644,-1.297288,-0.907495,-0.238181,0.962829,-0.127396,0.000000,0.000000,0.000000,-1,-0.019758,0.019683,0.000812,-0.008173,0.003708,0.000198
"2019-04-16 11:01:45.346 +0000",1555412505.346080,-1.080610,-1.297402,-0.908849,-0.238207,0.962860,-0.127114,0.000000,0.000000,0.000000,-1,-0.019774,0.016491,-0.001364,-0.009794,0.005188,0.002724
"2019-04-16 11:01:45.366 +0000",1555412505.366113,-1.081837,-1.297488,-0.910405,-0.238290,0.962883,-0.126783,0.000000,0.000000,0.000000,-1,-0.021929,0.012249,-0.004630,-0.008582,0.005348,0.003980
"2019-04-16 11:01:45.386 +0000",1555412505.386145,-1.082928,-1.297604,-0.911761,-0.238330,0.962914,-0.126471,0.000000,0.000000,0.000000,-1,-0.015559,0.008996,-0.000362,-0.005826,0.005179,0.002279
"2019-04-16 11:01:45.406 +0000",1555412505.406178,-1.083899,-1.297712,-0.912911,-0.238360,0.962944,-0.126190,0.000000,0.000000,0.000000,-1,-0.015611,0.001531,-0.000450,-0.005735,0.004830,0.001846
"2019-04-16 11:01:45.426 +0000",1555412505.426211,-1.085044,-1.297779,-0.914069,-0.238448,0.962962,-0.125887,0.000000,0.000000,0.000000,-1,-0.016684,-0.000585,-0.003686,-0.007997,0.003927,0.002871
"2019-04-16 11:01:45.446 +0000",1555412505.446245,-1.086484,-1.297857,-0.915526,-0.238562,0.962983,-0.125508,0.000000,0.000000,0.000000,-1,-0.018804,0.001562,-0.003671,-0.009149,0.003005,0.000676
"2019-04-16 11:01:45.466 +0000",1555412505.466278,-1.088090,-1.298016,-0.917340,-0.238628,0.963025,-0.125054,0.000000,0.000000,0.000000,-1,-0.030494,0.011222,0.000661,-0.004338,0.001300,-0.000510
"2019-04-16 11:01:45.486 +0000",1555412505.486310,-1.090042,-1.298295,-0.919637,-0.238633,0.963101,-0.124464,0.000000,0.000000,0.000000,-1,-0.039010,0.014480,-0.000411,-0.003844,0.001972,-0.000872
"2019-04-16 11:01:45.506 +0000",1555412505.506344,-1.092727,-1.298565,-0.922595,-0.238736,0.963173,-0.123703,0.000000,0.000000,0.000000,-1,-0.044396,0.004936,-0.006961,-0.005206,0.001762,-0.003036
"2019-04-16 11:01:45.526 +0000",1555412505.526377,-1.096088,-1.298876,-0.926239,-0.238884,0.963257,-0.122763,0.000000,0.000000,0.000000,-1,-0.058259,0.009279,-0.002702,0.001137,-0.000732,-0.002801
"2019-04-16 11:01:45.546 +0000",1555412505.546409,-1.099543,-1.299406,-0.930066,-0.238851,0.963399,-0.121705,0.000000,0.000000,0.000000,-1,-0.058256,0.012459,0.003748,0.004827,-0.002050,0.000428
"2019-04-16 11:01:45.566 +0000",1555412505.566442,-1.102817,-1.300056,-0.933692,-0.238690,0.963573,-0.120640,0.000000,0.000000,0.000000,-1,-0.060463,0.003929,0.007913,0.004849,-0.000026,0.000569
"2019-04-16 11:01:45.586 +0000",1555412505.586476,-1.106195,-1.300662,-0.937252,-0.238573,0.963735,-0.119571,0.000000,0.000000,0.000000,-1,-0.058370,-0.002479,0.006779,0.002261,0.004710,0.003024
"2019-04-16 11:01:45.607 +0000",1555412505.606508,-1.109688,-1.301231,-0.940791,-0.238498,0.963887,-0.118493,0.000000,0.000000,0.000000,-1,-0.057321,-0.005682,0.005678,0.001239,0.008083,0.004327
"2019-04-16 11:01:45.627 +0000",1555412505.626541,-1.112871,-1.301818,-0.943902,-0.238367,0.964043,-0.117483,0.000000,0.000000,0.000000,-1,-0.050974,-0.013194,0.007758,0.002283,0.007103,0.001929
"2019-04-16 11:01:45.647 +0000",1555412505.646573,-1.115431,-1.302394,-0.946300,-0.238168,0.964196,-0.116629,0.000000,0.000000,0.000000,-1,-0.031750,-0.011196,0.011080,0.002130,0.008903,0.000280
"2019-04-16 11:01:45.667 +0000",1555412505.666607,-1.116826,-1.302828,-0.947456,-0.237955,0.964311,-0.116113,0.000000,0.000000,0.000000,-1,-0.014724,-0.019834,0.009992,-0.002417,0.011534,-0.003455
"2019-04-16 11:01:45.687 +0000",1555412505.686640,-1.118093,-1.303037,-0.948173,-0.237920,0.964366,-0.115723,0.000000,0.000000,0.000000,-1,-0.008409,-0.036908,0.000204,-0.006404,0.012852,0.000336
"2019-04-16 11:01:45.707 +0000",1555412505.706672,-1.119566,-1.303044,-0.948618,-0.238085,0.964368,-0.115370,0.000000,0.000000,0.000000,-1,-0.000017,-0.060404,-0.006440,-0.006162,0.011539,-0.002764
"2019-04-16 11:01:45.727 +0000",1555412505.726706,-1.120316,-1.302920,-0.948409,-0.238279,0.964335,-0.115243,0.000000,0.000000,0.000000,-1,0.015162,-0.024268,0.001537,0.001111,0.007314,-0.006354
"2019-04-16 11:01:45.747 +0000",1555412505.746738,-1.118098,-1.302788,-0.946068,-0.238137,0.964300,-0.115827,0.000000,0.000000,0.000000,-1,0.043138,0.010712,0.011700,0.001016,0.002665,-0.015383
"2019-04-16 11:01:45.767 +0000",1555412505.766772,-1.115178,-1.302567,-0.943173,-0.237989,0.964242,-0.116615,0.000000,0.000000,0.000000,-1,0.032400,-0.003046,-0.000269,-0.013064,0.009284,-0.000160
"2019-04-16 11:01:45.787 +0000",1555412505.786805,-1.114446,-1.302191,-0.942208,-0.238229,0.964142,-0.116949,0.000000,0.000000,0.000000,-1,0.010993,-0.017785,-0.017645,-0.012534,0.004486,0.010687
"2019-04-16 11:01:45.807 +0000",1555412505.806837,-1.115399,-1.301803,-0.942623,-0.238676,0.964039,-0.116887,0.000000,0.000000,0.000000,-1,-0.000901,-0.040096,-0.020101,-0.004350,0.002529,0.008214
"2019-04-16 11:01:45.827 +0000",1555412505.826871,-1.116980,-1.301437,-0.943283,-0.239178,0.963942,-0.116664,0.000000,0.000000,0.000000,-1,-0.003105,-0.050739,-0.022374,-0.002262,0.008608,0.007869
"2019-04-16 11:01:45.847 +0000",1555412505.846904,-1.118013,-1.301115,-0.943667,-0.239577,0.963856,-0.116553,0.000000,0.000000,0.000000,-1,0.007819,-0.008206,-0.004723,0.005508,0.001888,-0.001444
"2019-04-16 11:01:45.867 +0000",1555412505.866938,-1.116914,-1.301002,-0.942648,-0.239548,0.963826,-0.116864,0.000000,0.000000,0.000000,-1,0.028211,0.011888,0.007367,0.006119,0.005153,-0.006717
"2019-04-16 11:01:45.887 +0000",1555412505.886970,-1.115190,-1.300770,-0.940965,-0.239546,0.963764,-0.117375,0.000000,0.000000,0.000000,-1,0.021734,-0.005084,-0.008894,-0.008776,0.011593,-0.000637
"2019-04-16 11:01:45.907 +0000",1555412505.907001,-1.115465,-1.300476,-0.940963,-0.239833,0.963685,-0.117434,0.000000,0.000000,0.000000,-1,-0.002905,-0.019831,-0.016667,-0.009404,0.001418,0.013170
"2019-04-16 11:01:45.927 +0000",1555412505.927034,-1.117032,-1.300248,-0.942059,-0.240214,0.963625,-0.117154,0.000000,0.000000,0.000000,-1,-0.012581,-0.029366,-0.016825,-0.002050,0.000502,0.012936
"2019-04-16 11:01:45.947 +0000",1555412505.947068,-1.118782,-1.300136,-0.943362,-0.240516,0.963595,-0.116780,0.000000,0.000000,0.000000,-1,-0.017858,-0.019740,-0.014600,0.000281,0.007673,0.005544
"2019-04-16 11:01:45.967 +0000",1555412505.967101,-1.120533,-1.300005,-0.944769,-0.240833,0.963560,-0.116414,0.000000,0.000000,0.000000,-1,-0.012504,-0.016583,-0.012400,0.001804,0.005816,-0.000408
"2019-04-16 11:01:45.987 +0000",1555412505.987134,-1.122113,-1.299869,-0.945971,-0.241135,0.963523,-0.116090,0.000000,0.000000,0.000000,-1,-0.007212,-0.021958,-0.009231,0.000061,0.004006,-0.003173
"2019-04-16 11:01:46.007 +0000",1555412506.007166,-1.123596,-1.299757,-0.946878,-0.241405,0.963493,-0.115779,0.000000,0.000000,0.000000,-1,-0.005156,-0.033699,-0.010428,-0.002873,0.005776,0.000988
"2019-04-16 11:01:46.027 +0000",1555412506.027200,-1.125106,-1.299653,-0.947736,-0.241669,0.963465,-0.115458,0.000000,0.000000,0.000000,-1,-0.005188,-0.036907,-0.007259,-0.002853,0.006673,0.006861
"2019-04-16 11:01:46.047 +0000",1555412506.047233,-1.126196,-1.299534,-0.948183,-0.241899,0.963433,-0.115244,0.000000,0.000000,0.000000,-1,-0.001922,-0.028394,-0.008212,-0.002272,0.008017,0.003656
"2019-04-16 11:01:46.067 +0000",1555412506.067266,-1.126760,-1.299339,-0.948244,-0.242134,0.963381,-0.115188,0.000000,0.000000,0.000000,-1,0.006655,-0.024178,-0.010259,-0.002160,0.005674,0.000167
"2019-04-16 11:01:46.087 +0000",1555412506.087299,-1.126929,-1.299072,-0.947957,-0.242385,0.963310,-0.115257,0.000000,0.000000,0.000000,-1,0.013065,-0.024216,-0.011298,-0.003068,0.006402,-0.002327
"2019-04-16 11:01:46.107 +0000",1555412506.107331,-1.127082,-1.298841,-0.947588,-0.242603,0.963248,-0.115316,0.000000,0.000000,0.000000,-1,0.011969,-0.026355,-0.007053,-0.002621,0.004160,-0.001307
"2019-04-16 11:01:46.127 +0000",1555412506.127365,-1.127285,-1.298649,-0.947229,-0.242794,0.963196,-0.115346,0.000000,0.000000,0.000000,-1,0.007680,-0.028463,-0.006029,-0.002598,0.002670,-0.000667
"2019-04-16 11:01:46.147 +0000",1555412506.147398,-1.127391,-1.298486,-0.946811,-0.242948,0.963152,-0.115387,0.000000,0.000000,0.000000,-1,0.010910,-0.024222,-0.004895,-0.003146,0.002760,-0.000701
"2019-04-16 11:01:46.167 +0000",1555412506.167430,-1.127350,-1.298343,-0.946322,-0.243068,0.963114,-0.115457,0.000000,0.000000,0.000000,-1,0.008813,-0.017816,-0.002693,-0.004429,0.003546,0.001016
"2019-04-16 11:01:46.187 +0000",1555412506.187464,-1.127333,-1.298193,-0.945913,-0.243196,0.963073,-0.115523,0.000000,0.000000,0.000000,-1,0.005613,-0.017792,-0.003777,-0.003920,0.004990,0.000914
"2019-04-16 11:01:46.207 +0000",1555412506.207495,-1.127641,-1.298059,-0.945884,-0.243348,0.963037,-0.115503,0.000000,0.000000,0.000000,-1,0.003499,-0.015639,-0.005899,-0.003325,0.004492,0.001291
"2019-04-16 11:01:46.228 +0000",1555412506.227529,-1.127849,-1.297921,-0.945746,-0.243492,0.963000,-0.115509,0.000000,0.000000,0.000000,-1,0.003481,-0.017775,-0.004856,-0.004890,0.003278,-0.000381
"2019-04-16 11:01:46.248 +0000",1555412506.247562,-1.128008,-1.297801,-0.945549,-0.243615,0.962968,-0.115520,0.000000,0.000000,0.000000,-1,0.006675,-0.017805,-0.001634,-0.004630,0.002486,0.000774
"2019-04-16 11:01:46.268 +0000",1555412506.267594,-1.127951,-1.297684,-0.945147,-0.243710,0.962936,-0.115582,0.000000,0.000000,0.000000,-1,0.006682,-0.016739,-0.001622,-0.004764,0.004364,0.000455
"2019-04-16 11:01:46.288 +0000",1555412506.287627,-1.127693,-1.297600,-0.944549,-0.243753,0.962914,-0.115680,0.000000,0.000000,0.000000,-1,0.009908,-0.012501,0.000581,-0.004049,0.005455,0.000781
"2019-04-16 11:01:46.308 +0000",1555412506.307660,-1.127409,-1.297515,-0.943892,-0.243795,0.962891,-0.115784,0.000000,0.000000,0.000000,-1,0.010950,-0.016770,-0.000533,-0.003718,0.006409,0.001893
"2019-04-16 11:01:46.328 +0000",1555412506.327694,-1.127090,-1.297372,-0.943223,-0.243883,0.962852,-0.115921,0.000000,0.000000,0.000000,-1,0.012046,-0.013572,-0.002628,-0.002760,0.006203,0.003479
"2019-04-16 11:01:46.348 +0000",1555412506.347727,-1.126757,-1.297171,-0.942585,-0.244018,0.962798,-0.116085,0.000000,0.000000,0.000000,-1,0.013102,-0.015708,-0.003716,-0.002793,0.006120,0.003186
"2019-04-16 11:01:46.368 +0000",1555412506.367759,-1.126450,-1.296986,-0.941969,-0.244144,0.962748,-0.116237,0.000000,0.000000,0.000000,-1,0.016320,-0.013596,-0.003676,-0.003720,0.004187,0.003551
"2019-04-16 11:01:46.388 +0000",1555412506.387793,-1.125939,-1.296788,-0.941143,-0.244256,0.962694,-0.116444,0.000000,0.000000,0.000000,-1,0.014177,-0.014649,-0.003699,-0.004096,0.004149,0.001865
"2019-04-16 11:01:46.408 +0000",1555412506.407826,-1.125577,-1.296639,-0.940464,-0.244344,0.962654,-0.116594,0.000000,0.000000,0.000000,-1,0.012064,-0.011436,-0.003671,-0.004313,0.002434,0.001528
"2019-04-16 11:01:46.428 +0000",1555412506.427859,-1.125132,-1.296468,-0.939721,-0.244439,0.962608,-0.116773,0.000000,0.000000,0.000000,-1,0.015245,-0.014655,-0.003694,-0.005927,0.003060,0.000730
"2019-04-16 11:01:46.448 +0000",1555412506.447891,-1.124726,-1.296304,-0.939025,-0.244535,0.962563,-0.116941,0.000000,0.000000,0.000000,-1,0.010993,-0.011432,-0.002608,-0.006731,0.004814,0.002897
"2019-04-16 11:01:46.468 +0000",1555412506.467924,-1.124427,-1.296111,-0.938532,-0.244668,0.962511,-0.117094,0.000000,0.000000,0.000000,-1,0.009955,-0.007160,-0.002563,-0.006263,0.004241,0.003615
"2019-04-16 11:01:46.488 +0000",1555412506.487957,-1.124059,-1.295958,-0.938032,-0.244757,0.962469,-0.117248,0.000000,0.000000,0.000000,-1,0.007857,-0.001814,-0.002510,-0.003061,0.001429,0.000320
"2019-04-16 11:01:46.508 +0000",1555412506.507989,-1.123531,-1.295881,-0.937550,-0.244762,0.962448,-0.117409,0.000000,0.000000,0.000000,-1,0.007897,0.005637,0.001852,-0.003956,0.000977,-0.000190
"2019-04-16 11:01:46.528 +0000",1555412506.528023,-1.123102,-1.295883,-0.937257,-0.244711,0.962449,-0.117514,0.000000,0.000000,0.000000,-1,0.000442,0.008882,0.002923,-0.003870,0.002532,-0.001276
"2019-04-16 11:01:46.548 +0000",1555412506.548055,-1.123404,-1.295948,-0.937819,-0.244689,0.962466,-0.117412,0.000000,0.000000,0.000000,-1,-0.017673,0.012211,-0.001400,-0.001313,0.003308,0.001125
"2019-04-16 11:01:46.568 +0000",1555412506.568088,-1.124733,-1.296187,-0.939554,-0.244637,0.962531,-0.116988,0.000000,0.000000,0.000000,-1,-0.029324,0.028263,0.005144,0.003457,-0.002616,-0.002290
"2019-04-16 11:01:46.588 +0000",1555412506.588122,-1.125996,-1.296707,-0.941567,-0.244333,0.962672,-0.116463,0.000000,0.000000,0.000000,-1,-0.038901,0.037887,0.016967,-0.000036,-0.011470,-0.005302
"2019-04-16 11:01:46.608 +0000",1555412506.608155,-1.127687,-1.297446,-0.944230,-0.243887,0.962872,-0.115745,0.000000,0.000000,0.000000,-1,-0.059109,0.048685,0.015928,-0.010462,-0.006512,-0.006218
"2019-04-16 11:01:46.628 +0000",1555412506.628187,-1.130786,-1.298276,-0.948542,-0.243522,0.963095,-0.114648,0.000000,0.000000,0.000000,-1,-0.080359,0.059516,0.006333,-0.015038,-0.000449,-0.004630
"2019-04-16 11:01:46.648 +0000",1555412506.648221,-1.134830,-1.299037,-0.954168,-0.243319,0.963300,-0.113353,0.000000,0.000000,0.000000,-1,-0.087691,0.076648,-0.000983,-0.019682,-0.000211,-0.004140
"2019-04-16 11:01:46.668 +0000",1555412506.668253,-1.138846,-1.299668,-0.960019,-0.243219,0.963469,-0.112120,0.000000,0.000000,0.000000,-1,-0.082273,0.086223,-0.005120,-0.022634,0.002763,-0.008119
"2019-04-16 11:01:46.688 +0000",1555412506.688287,-1.141972,-1.300119,-0.965174,-0.243173,0.963590,-0.111179,0.000000,0.000000,0.000000,-1,-0.064048,0.096769,-0.004909,-0.019201,0.008181,-0.007352
"2019-04-16 11:01:46.708 +0000",1555412506.708320,-1.143429,-1.300386,-0.968670,-0.243101,0.963661,-0.110718,0.000000,0.000000,0.000000,-1,-0.037387,0.092333,-0.005898,-0.015184,0.012214,-0.009064
"2019-04-16 11:01:46.728 +0000",1555412506.728353,-1.143813,-1.300386,-0.970764,-0.243144,0.963661,-0.110624,0.000000,0.000000,0.000000,-1,-0.012946,0.072999,-0.012420,-0.014119,0.015922,-0.009111
"2019-04-16 11:01:46.748 +0000",1555412506.748385,-1.143305,-1.300024,-0.971541,-0.243406,0.963565,-0.110893,0.000000,0.000000,0.000000,-1,0.009378,0.055814,-0.019995,-0.005481,0.015546,-0.008782
"2019-04-16 11:01:46.768 +0000",1555412506.768418,-1.141442,-1.299441,-0.970717,-0.243709,0.963409,-0.111580,0.000000,0.000000,0.000000,-1,0.030681,0.050332,-0.015681,0.005763,0.007645,-0.007897
"2019-04-16 11:01:46.788 +0000",1555412506.788451,-1.138674,-1.298947,-0.968784,-0.243831,0.963276,-0.112453,0.000000,0.000000,0.000000,-1,0.030561,0.038564,-0.002994,0.005504,0.000194,-0.004918
"2019-04-16 11:01:46.808 +0000",1555412506.808483,-1.136536,-1.298685,-0.967205,-0.243819,0.963206,-0.113080,0.000000,0.000000,0.000000,-1,0.012313,0.026936,0.002126,0.003173,0.001180,0.001920
"2019-04-16 11:01:46.829 +0000",1555412506.828517,-1.135781,-1.298773,-0.966982,-0.243657,0.963229,-0.113229,0.000000,0.000000,0.000000,-1,-0.009040,0.030251,0.009543,0.008351,-0.002475,0.008264
"2019-04-16 11:01:46.849 +0000",1555412506.848550,-1.135903,-1.299241,-0.967833,-0.243262,0.963355,-0.113009,0.000000,0.000000,0.000000,-1,-0.030373,0.037822,0.020217,0.008734,-0.006705,0.005877
"2019-04-16 11:01:46.869 +0000",1555412506.868583,-1.137013,-1.299955,-0.969751,-0.242763,0.963546,-0.112450,0.000000,0.000000,0.000000,-1,-0.048534,0.036870,0.021187,0.000560,-0.003646,0.003838
"2019-04-16 11:01:46.889 +0000",1555412506.888616,-1.139083,-1.300769,-0.972738,-0.242283,0.963764,-0.111619,0.000000,0.000000,0.000000,-1,-0.057035,0.042260,0.020140,-0.004147,0.000775,0.002747
"2019-04-16 11:01:46.909 +0000",1555412506.908649,-1.141728,-1.301664,-0.976297,-0.241792,0.964002,-0.110618,0.000000,0.000000,0.000000,-1,-0.060265,0.038019,0.019006,-0.008787,0.001315,-0.004585
"2019-04-16 11:01:46.929 +0000",1555412506.928681,-1.144787,-1.302544,-0.980147,-0.241358,0.964236,-0.109528,0.000000,0.000000,0.000000,-1,-0.065664,0.028463,0.016731,-0.012274,0.004133,-0.005157
"2019-04-16 11:01:46.949 +0000",1555412506.948715,-1.147861,-1.303312,-0.983923,-0.241018,0.964439,-0.108482,0.000000,0.000000,0.000000,-1,-0.052850,0.027323,0.013573,-0.010676,0.004921,-0.006066
"2019-04-16 11:01:46.969 +0000",1555412506.968748,-1.150197,-1.303903,-0.986962,-0.240750,0.964595,-0.107686,0.000000,0.000000,0.000000,-1,-0.041070,0.030459,0.009391,-0.009341,0.008412,-0.005596
"2019-04-16 11:01:46.989 +0000",1555412506.988781,-1.151806,-1.304287,-0.989238,-0.240585,0.964696,-0.107147,0.000000,0.000000,0.000000,-1,-0.029328,0.028262,0.005147,-0.011704,0.010905,-0.008408
"2019-04-16 11:01:47.009 +0000",1555412507.008813,-1.152751,-1.304473,-0.990746,-0.240522,0.964745,-0.106847,0.000000,0.000000,0.000000,-1,-0.016534,0.022867,-0.001267,-0.009707,0.011634,-0.010996
"2019-04-16 11:01:47.029 +0000",1555412507.028845,-1.153128,-1.304382,-0.991485,-0.240643,0.964721,-0.106792,0.000000,0.000000,0.000000,-1,-0.001673,0.006801,-0.009934,-0.007007,0.011979,-0.012364
"2019-04-16 11:01:47.049 +0000",1555412507.048879,-1.153091,-1.304092,-0.991486,-0.240894,0.964645,-0.106915,0.000000,0.000000,0.000000,-1,0.007881,-0.002846,-0.014276,-0.001659,0.006684,-0.013584
"2019-04-16 11:01:47.069 +0000",1555412507.068912,-1.153067,-1.303727,-0.991297,-0.241214,0.964548,-0.107063,0.000000,0.000000,0.000000,-1,0.008879,-0.012453,-0.013315,-0.001752,0.001333,-0.008919
"2019-04-16 11:01:47.089 +0000",1555412507.088944,-1.153158,-1.303464,-0.991136,-0.241455,0.964479,-0.107144,0.000000,0.000000,0.000000,-1,0.002446,-0.013497,-0.006945,-0.002396,-0.000993,-0.003025
"2019-04-16 11:01:47.109 +0000",1555412507.108978,-1.153488,-1.303334,-0.991256,-0.241604,0.964445,-0.107115,0.000000,0.000000,0.000000,-1,-0.003937,-0.009196,-0.004788,-0.001834,0.000872,-0.001360
"2019-04-16 11:01:47.129 +0000",1555412507.129011,-1.154106,-1.303304,-0.991650,-0.241698,0.964437,-0.106978,0.000000,0.000000,0.000000,-1,-0.008263,-0.016636,-0.003827,0.002364,0.002223,-0.002855
"2019-04-16 11:01:47.149 +0000",1555412507.149044,-1.155095,-1.303366,-0.992285,-0.241748,0.964453,-0.106714,0.000000,0.000000,0.000000,-1,-0.009394,-0.023047,0.002505,0.003559,0.000406,-0.005774
"2019-04-16 11:01:47.169 +0000",1555412507.169076,-1.156201,-1.303527,-0.992866,-0.241724,0.964496,-0.106384,0.000000,0.000000,0.000000,-1,-0.009459,-0.030524,0.006692,0.001414,0.001706,-0.004852
"2019-04-16 11:01:47.189 +0000",1555412507.189110,-1.157550,-1.303699,-0.993508,-0.241716,0.964541,-0.105991,0.000000,0.000000,0.000000,-1,-0.011667,-0.042230,0.003338,-0.000334,0.005521,-0.004711
"2019-04-16 11:01:47.209 +0000",1555412507.209143,-1.158958,-1.303791,-0.993981,-0.241784,0.964565,-0.105616,0.000000,0.000000,0.000000,-1,-0.004221,-0.047600,0.000105,-0.000602,0.007374,-0.008520
"2019-04-16 11:01:47.229 +0000",1555412507.229175,-1.159981,-1.303729,-0.994030,-0.241946,0.964549,-0.105392,0.000000,0.000000,0.000000,-1,0.001102,-0.052944,-0.007414,-0.005781,0.008000,-0.008912
"2019-04-16 11:01:47.249 +0000",1555412507.249208,-1.161246,-1.303534,-0.994213,-0.242252,0.964497,-0.105161,0.000000,0.000000,0.000000,-1,0.001078,-0.058263,-0.011751,-0.008282,0.006236,-0.007708
"2019-04-16 11:01:47.269 +0000",1555412507.269241,-1.163117,-1.303321,-0.994777,-0.242636,0.964441,-0.104789,0.000000,0.000000,0.000000,-1,-0.004380,-0.075290,-0.011977,-0.001428,0.003118,-0.005822
"2019-04-16 11:01:47.289 +0000",1555412507.289274,-1.165217,-1.303155,-0.995317,-0.243004,0.964397,-0.104342,0.000000,0.000000,0.000000,-1,-0.005526,-0.083833,-0.005669,0.009636,-0.000057,-0.006818
"2019-04-16 11:01:47.309 +0000",1555412507.309307,-1.167354,-1.303123,-0.995696,-0.243254,0.964389,-0.103835,0.000000,0.000000,0.000000,-1,-0.007765,-0.094511,0.003814,0.017699,0.000638,-0.005845
"2019-04-16 11:01:47.329 +0000",1555412507.329340,-1.170070,-1.303315,-0.996299,-0.243364,0.964440,-0.103101,0.000000,0.000000,0.000000,-1,-0.017568,-0.118997,0.010961,0.020861,0.003761,-0.003649
"2019-04-16 11:01:47.349 +0000",1555412507.349373,-1.173396,-1.303763,-0.997047,-0.243308,0.964558,-0.102124,0.000000,0.000000,0.000000,-1,-0.024174,-0.143509,0.020262,0.020087,0.005489,0.001904
"2019-04-16 11:01:47.369 +0000",1555412507.369406,-1.177208,-1.304396,-0.997911,-0.243131,0.964725,-0.100962,0.000000,0.000000,0.000000,-1,-0.025321,-0.153112,0.024419,0.019330,0.003171,0.002832
"2019-04-16 11:01:47.389 +0000",1555412507.389439,-1.181069,-1.305026,-0.998708,-0.242957,0.964890,-0.099791,0.000000,0.000000,0.000000,-1,-0.023193,-0.156309,0.019048,0.012610,0.005233,0.002730
"2019-04-16 11:01:47.409 +0000",1555412507.409472,-1.184971,-1.305550,-0.999589,-0.242876,0.965028,-0.098652,0.000000,0.000000,0.000000,-1,-0.023144,-0.152024,0.012686,-0.005064,0.006057,-0.000652
"2019-04-16 11:01:47.430 +0000",1555412507.429505,-1.188799,-1.305988,-1.000566,-0.242859,0.965143,-0.097564,0.000000,0.000000,0.000000,-1,-0.018774,-0.139247,0.009650,-0.022781,0.006262,-0.001710
"2019-04-16 11:01:47.450 +0000",1555412507.449538,-1.191719,-1.306318,-1.001083,-0.242847,0.965229,-0.096736,0.000000,0.000000,0.000000,-1,-0.006731,-0.099846,0.002688,-0.035336,0.002697,-0.003865
"2019-04-16 11:01:47.470 +0000",1555412507.469570,-1.193184,-1.306322,-1.001131,-0.242985,0.965230,-0.096379,0.000000,0.000000,0.000000,-1,0.003334,-0.040156,-0.009391,-0.047130,0.005397,-0.000773
"2019-04-16 11:01:47.490 +0000",1555412507.489603,-1.193483,-1.306030,-1.001239,-0.243276,0.965154,-0.096410,0.000000,0.000000,0.000000,-1,0.004852,0.020644,-0.017222,-0.043513,0.005916,0.000616
"2019-04-16 11:01:47.510 +0000",1555412507.509635,-1.192391,-1.305479,-1.001124,-0.243665,0.965009,-0.096873,0.000000,0.000000,0.000000,-1,0.014914,0.080331,-0.028231,-0.035464,0.003619,-0.002782
"2019-04-16 11:01:47.530 +0000",1555412507.529669,-1.190382,-1.304677,-1.001036,-0.244188,0.964799,-0.097649,0.000000,0.000000,0.000000,-1,0.027731,0.079194,-0.032458,-0.024626,0.000930,0.005425
"2019-04-16 11:01:47.550 +0000",1555412507.549702,-1.188654,-1.303873,-1.001751,-0.244739,0.964587,-0.098360,0.000000,0.000000,0.000000,-1,-0.008092,0.147675,-0.031829,-0.007123,0.000318,0.019961
"2019-04-16 11:01:47.570 +0000",1555412507.569735,-1.187353,-1.303361,-1.003534,-0.245069,0.964452,-0.098864,0.000000,0.000000,0.000000,-1,-0.014456,0.158348,-0.021047,0.000409,-0.001851,0.001894
"2019-04-16 11:01:47.590 +0000",1555412507.589768,-1.185667,-1.303094,-1.005102,-0.245141,0.964381,-0.099373,0.000000,0.000000,0.000000,-1,-0.011310,0.155093,-0.009313,0.011956,-0.001277,-0.001640
"2019-04-16 11:01:47.610 +0000",1555412507.609801,-1.183881,-1.302927,-1.006379,-0.245111,0.964337,-0.099871,0.000000,0.000000,0.000000,-1,-0.011403,0.142294,-0.008395,0.003580,0.002841,-0.001874
"2019-04-16 11:01:47.630 +0000",1555412507.629834,-1.182768,-1.302770,-1.007888,-0.245140,0.964296,-0.100201,0.000000,0.000000,0.000000,-1,-0.019058,0.114630,-0.013031,-0.005623,0.006026,0.000256
"2019-04-16 11:01:47.650 +0000",1555412507.649867,-1.182736,-1.302598,-1.009923,-0.245291,0.964250,-0.100272,0.000000,0.000000,0.000000,-1,-0.022425,0.088015,-0.020840,-0.006464,0.009642,0.006415
"2019-04-16 11:01:47.670 +0000",1555412507.669900,-1.183098,-1.302416,-1.011728,-0.245490,0.964202,-0.100250,0.000000,0.000000,0.000000,-1,-0.013077,0.050631,-0.021232,-0.001764,0.015504,0.006576
"2019-04-16 11:01:47.690 +0000",1555412507.689932,-1.183136,-1.302048,-1.012317,-0.245822,0.964104,-0.100375,0.000000,0.000000,0.000000,-1,0.013257,-0.000726,-0.021707,0.004230,0.019966,0.004839
"2019-04-16 11:01:47.710 +0000",1555412507.709966,-1.182308,-1.301448,-1.010880,-0.246273,0.963945,-0.100797,0.000000,0.000000,0.000000,-1,0.044879,-0.056399,-0.016859,0.011883,0.020507,0.008146
"2019-04-16 11:01:47.730 +0000",1555412507.729998,-1.180745,-1.300707,-1.007570,-0.246776,0.963747,-0.101454,0.000000,0.000000,0.000000,-1,0.065908,-0.102393,-0.016228,0.011501,0.015440,0.010359
"2019-04-16 11:01:47.750 +0000",1555412507.750031,-1.178875,-1.299886,-1.003040,-0.247318,0.963528,-0.102217,0.000000,0.000000,0.000000,-1,0.076299,-0.141926,-0.013434,0.002781,0.010685,0.016081
"2019-04-16 11:01:47.770 +0000",1555412507.770065,-1.177304,-1.299113,-0.998137,-0.247845,0.963320,-0.102891,0.000000,0.000000,0.000000,-1,0.076126,-0.165395,-0.010503,-0.003559,0.008542,0.017183
"2019-04-16 11:01:47.790 +0000",1555412507.790097,-1.176065,-1.298473,-0.993229,-0.248286,0.963148,-0.103435,0.000000,0.000000,0.000000,-1,0.073855,-0.182458,-0.005370,-0.003850,0.004915,0.018902
"2019-04-16 11:01:47.810 +0000",1555412507.810131,-1.175222,-1.297987,-0.988545,-0.248631,0.963018,-0.103825,0.000000,0.000000,0.000000,-1,0.066352,-0.183498,0.002063,-0.006221,0.003962,0.016224
"2019-04-16 11:01:47.830 +0000",1555412507.830163,-1.174767,-1.297604,-0.984318,-0.248924,0.962915,-0.104080,0.000000,0.000000,0.000000,-1,0.057850,-0.175991,0.006385,-0.009774,-0.002023,0.011032
"2019-04-16 11:01:47.850 +0000",1555412507.850196,-1.175052,-1.297320,-0.980989,-0.249206,0.962838,-0.104115,0.000000,0.000000,0.000000,-1,0.042966,-0.166301,0.007496,-0.017777,-0.000817,0.006443
"2019-04-16 11:01:47.870 +0000",1555412507.870229,-1.176012,-1.297252,-0.978707,-0.249366,0.962820,-0.103901,0.000000,0.000000,0.000000,-1,0.023873,-0.146992,0.010836,-0.018807,0.000926,0.005024
"2019-04-16 11:01:47.890 +0000",1555412507.890262,-1.177679,-1.297306,-0.977508,-0.249490,0.962834,-0.103465,0.000000,0.000000,0.000000,-1,0.012258,-0.129845,0.007775,-0.013464,-0.001225,0.000742
"2019-04-16 11:01:47.910 +0000",1555412507.910294,-1.179311,-1.297366,-0.976702,-0.249606,0.962850,-0.103035,0.000000,0.000000,0.000000,-1,0.019818,-0.113924,0.016548,-0.007734,0.001154,0.001152
"2019-04-16 11:01:47.930 +0000",1555412507.930327,-1.180164,-1.297233,-0.975198,-0.249812,0.962814,-0.102871,0.000000,0.000000,0.000000,-1,0.008122,-0.112740,0.002611,-0.010091,0.017761,-0.001072
"2019-04-16 11:01:47.950 +0000",1555412507.950360,-1.181456,-1.297131,-0.974310,-0.250035,0.962787,-0.102585,0.000000,0.000000,0.000000,-1,0.018894,-0.097890,0.006043,0.013478,0.006055,0.003480
"2019-04-16 11:01:47.970 +0000",1555412507.970393,-1.181675,-1.297033,-0.972485,-0.250145,0.962760,-0.102567,0.000000,0.000000,0.000000,-1,0.029568,-0.096902,0.009312,0.017723,0.005242,-0.001102
"2019-04-16 11:01:47.990 +0000",1555412507.990426,-1.181026,-1.297024,-0.969751,-0.250087,0.962758,-0.102732,0.000000,0.000000,0.000000,-1,0.041254,-0.101273,0.018937,0.012706,0.004237,-0.000051
"2019-04-16 11:01:48.010 +0000",1555412508.010458,-1.179550,-1.297139,-0.966115,-0.249832,0.962789,-0.103059,0.000000,0.000000,0.000000,-1,0.043374,-0.100243,0.026440,0.004211,0.005137,0.000566
"2019-04-16 11:01:48.030 +0000",1555412508.030492,-1.178298,-1.297377,-0.962678,-0.249491,0.962853,-0.103284,0.000000,0.000000,0.000000,-1,0.035871,-0.104459,0.026355,-0.001485,0.002631,0.000928
"2019-04-16 11:01:48.051 +0000",1555412508.050525,-1.177652,-1.297614,-0.959818,-0.249214,0.962917,-0.103358,0.000000,0.000000,0.000000,-1,0.027337,-0.106514,0.018808,-0.004647,0.001316,0.002924
"2019-04-16 11:01:48.071 +0000",1555412508.070558,-1.177854,-1.297843,-0.957826,-0.249031,0.962979,-0.103223,0.000000,0.000000,0.000000,-1,0.017739,-0.105382,0.017706,-0.007241,0.000995,-0.001345
"2019-04-16 11:01:48.091 +0000",1555412508.090591,-1.178284,-1.298100,-0.956110,-0.248847,0.963048,-0.103021,0.000000,0.000000,0.000000,-1,0.017741,-0.103263,0.022006,-0.006463,0.001536,-0.002920
"2019-04-16 11:01:48.111 +0000",1555412508.110624,-1.178374,-1.298403,-0.953966,-0.248586,0.963130,-0.102887,0.000000,0.000000,0.000000,-1,0.025125,-0.112930,0.029410,-0.005000,0.001363,-0.009005
"2019-04-16 11:01:48.131 +0000",1555412508.130656,-1.178005,-1.298740,-0.951290,-0.248248,0.963220,-0.102854,0.000000,0.000000,0.000000,-1,0.029448,-0.105494,0.029518,-0.006864,0.001593,-0.011876
"2019-04-16 11:01:48.151 +0000",1555412508.150689,-1.177159,-1.298995,-0.948412,-0.247934,0.963289,-0.102970,0.000000,0.000000,0.000000,-1,0.030685,-0.083095,0.025511,-0.013723,0.003630,-0.011776
"2019-04-16 11:01:48.171 +0000",1555412508.170722,-1.175818,-1.299098,-0.945513,-0.247705,0.963317,-0.103265,0.000000,0.000000,0.000000,-1,0.033010,-0.059624,0.017247,-0.023093,0.002855,-0.012931
"2019-04-16 11:01:48.191 +0000",1555412508.190755,-1.174095,-1.299061,-0.942805,-0.247560,0.963306,-0.103706,0.000000,0.000000,0.000000,-1,0.031109,-0.029727,0.009037,-0.029265,0.001522,-0.014016
"2019-04-16 11:01:48.211 +0000",1555412508.210788,-1.171868,-1.298839,-0.940220,-0.247525,0.963247,-0.104339,0.000000,0.000000,0.000000,-1,0.036715,0.004389,-0.000155,-0.028659,0.004649,-0.014573
"2019-04-16 11:01:48.231 +0000",1555412508.230821,-1.168908,-1.298403,-0.937582,-0.247601,0.963130,-0.105236,0.000000,0.000000,0.000000,-1,0.041227,0.035311,-0.008322,-0.026477,0.002095,-0.015629
"2019-04-16 11:01:48.251 +0000",1555412508.250854,-1.165605,-1.297862,-0.935222,-0.247731,0.962984,-0.106258,0.000000,0.000000,0.000000,-1,0.036098,0.065203,-0.007997,-0.024867,0.000181,-0.013218
"2019-04-16 11:01:48.271 +0000",1555412508.270886,-1.162184,-1.297297,-0.933330,-0.247866,0.962831,-0.107322,0.000000,0.000000,0.000000,-1,0.027781,0.095131,-0.013030,-0.018827,-0.004503,-0.009820
"2019-04-16 11:01:48.291 +0000",1555412508.290920,-1.158895,-1.296818,-0.932173,-0.247934,0.962702,-0.108320,0.000000,0.000000,0.000000,-1,0.011944,0.119767,-0.014956,-0.015143,-0.006846,-0.003969
"2019-04-16 11:01:48.311 +0000",1555412508.310953,-1.156708,-1.296462,-0.932614,-0.248009,0.962606,-0.109000,0.000000,0.000000,0.000000,-1,-0.016756,0.138082,-0.014880,-0.013450,-0.006978,0.001456
"2019-04-16 11:01:48.331 +0000",1555412508.330986,-1.156570,-1.296372,-0.935489,-0.248074,0.962581,-0.109069,0.000000,0.000000,0.000000,-1,-0.054042,0.150054,-0.014919,-0.010501,-0.006710,0.008285
"2019-04-16 11:01:48.351 +0000",1555412508.351018,-1.158104,-1.296662,-0.940275,-0.247986,0.962660,-0.108577,0.000000,0.000000,0.000000,-1,-0.076446,0.157628,-0.003182,-0.005020,-0.007093,0.005809
"2019-04-16 11:01:48.371 +0000",1555412508.371051,-1.160239,-1.297207,-0.945791,-0.247736,0.962807,-0.107838,0.000000,0.000000,0.000000,-1,-0.083928,0.158727,0.002139,-0.005423,-0.004037,0.004811
"2019-04-16 11:01:48.391 +0000",1555412508.391084,-1.162966,-1.297861,-0.951891,-0.247451,0.962984,-0.106912,0.000000,0.000000,0.000000,-1,-0.092452,0.159858,-0.001095,-0.007280,0.003309,0.008829
"2019-04-16 11:01:48.411 +0000",1555412508.411117,-1.166063,-1.298530,-0.958469,-0.247189,0.963164,-0.105892,0.000000,0.000000,0.000000,-1,-0.091363,0.161990,-0.003203,-0.004428,0.007021,0.005077
"2019-04-16 11:01:48.431 +0000",1555412508.431150,-1.168690,-1.299158,-0.964609,-0.246909,0.963333,-0.105005,0.000000,0.000000,0.000000,-1,-0.080696,0.161912,0.000054,-0.008737,0.007508,-0.002066
"2019-04-16 11:01:48.451 +0000",1555412508.451184,-1.170276,-1.299710,-0.969643,-0.246586,0.963481,-0.104406,0.000000,0.000000,0.000000,-1,-0.063610,0.162864,0.001216,-0.011471,0.009588,-0.005564
"2019-04-16 11:01:48.471 +0000",1555412508.471216,-1.170838,-1.300109,-0.973541,-0.246291,0.963587,-0.104118,0.000000,0.000000,0.000000,-1,-0.047640,0.155302,-0.000933,-0.007814,0.009954,-0.004815
"2019-04-16 11:01:48.491 +0000",1555412508.491249,-1.170810,-1.300341,-0.976581,-0.246082,0.963649,-0.104038,0.000000,0.000000,0.000000,-1,-0.037042,0.141390,-0.007457,-0.003339,0.010701,-0.007580
"2019-04-16 11:01:48.511 +0000",1555412508.511282,-1.170576,-1.300336,-0.979173,-0.246062,0.963648,-0.104097,0.000000,0.000000,0.000000,-1,-0.030702,0.129635,-0.012908,0.000212,0.008154,-0.009550
"2019-04-16 11:01:48.531 +0000",1555412508.531314,-1.170119,-1.300245,-0.981383,-0.246095,0.963624,-0.104244,0.000000,0.000000,0.000000,-1,-0.023228,0.129586,-0.012873,-0.001861,0.003616,-0.004643
"2019-04-16 11:01:48.551 +0000",1555412508.551347,-1.169352,-1.300277,-0.983298,-0.245987,0.963632,-0.104420,0.000000,0.000000,0.000000,-1,-0.026450,0.129588,-0.006476,-0.001740,0.000632,0.001393
"2019-04-16 11:01:48.571 +0000",1555412508.571381,-1.168784,-1.300444,-0.985370,-0.245778,0.963677,-0.104497,0.000000,0.000000,0.000000,-1,-0.031830,0.126404,-0.000126,-0.002086,0.001518,0.003560
"2019-04-16 11:01:48.591 +0000",1555412508.591413,-1.168242,-1.300664,-0.987493,-0.245527,0.963736,-0.104547,0.000000,0.000000,0.000000,-1,-0.029665,0.130656,-0.000066,-0.000597,0.003870,0.003656
"2019-04-16 11:01:48.611 +0000",1555412508.611446,-1.168110,-1.300847,-0.989960,-0.245350,0.963785,-0.104510,0.000000,0.000000,0.000000,-1,-0.037235,0.113665,-0.007783,-0.004573,0.005072,0.000659
"2019-04-16 11:01:48.631 +0000",1555412508.631480,-1.169070,-1.300959,-0.993140,-0.245352,0.963814,-0.104233,0.000000,0.000000,0.000000,-1,-0.045898,0.094539,-0.012323,-0.003198,0.008705,-0.003937
"2019-04-16 11:01:48.652 +0000",1555412508.651512,-1.170912,-1.301069,-0.996864,-0.245446,0.963844,-0.103739,0.000000,0.000000,0.000000,-1,-0.048141,0.079621,-0.011440,0.004189,0.006875,-0.007268
"2019-04-16 11:01:48.672 +0000",1555412508.671545,-1.172670,-1.301262,-1.000192,-0.245456,0.963895,-0.103236,0.000000,0.000000,0.000000,-1,-0.040777,0.065698,-0.007292,0.005375,0.001483,-0.013784
"2019-04-16 11:01:48.692 +0000",1555412508.691578,-1.174546,-1.301476,-1.003354,-0.245459,0.963952,-0.102695,0.000000,0.000000,0.000000,-1,-0.046226,0.050798,-0.005355,-0.003152,0.001472,-0.011028
"2019-04-16 11:01:48.712 +0000",1555412508.711610,-1.177171,-1.301705,-1.007119,-0.245524,0.964013,-0.101966,0.000000,0.000000,0.000000,-1,-0.057967,0.048763,-0.012915,-0.008153,0.003791,-0.005746
"2019-04-16 11:01:48.732 +0000",1555412508.731643,-1.180769,-1.301867,-1.011934,-0.245745,0.964056,-0.101022,0.000000,0.000000,0.000000,-1,-0.064254,0.061629,-0.022413,-0.006559,0.004999,-0.003912
"2019-04-16 11:01:48.752 +0000",1555412508.751676,-1.183727,-1.301890,-1.016633,-0.246022,0.964062,-0.100287,0.000000,0.000000,0.000000,-1,-0.055505,0.090371,-0.024172,-0.001796,0.004963,0.003103
"2019-04-16 11:01:48.772 +0000",1555412508.771708,-1.185644,-1.301807,-1.020640,-0.246289,0.964040,-0.099845,0.000000,0.000000,0.000000,-1,-0.044795,0.095630,-0.022990,0.001003,0.003642,0.002494
"2019-04-16 11:01:48.792 +0000",1555412508.791742,-1.187027,-1.301775,-1.024003,-0.246455,0.964031,-0.099516,0.000000,0.000000,0.000000,-1,-0.040614,0.088100,-0.010233,0.005137,0.003803,-0.002489
"2019-04-16 11:01:48.812 +0000",1555412508.811775,-1.187708,-1.301817,-1.026526,-0.246485,0.964043,-0.099333,0.000000,0.000000,0.000000,-1,-0.024645,0.083715,-0.004864,0.009806,0.005333,-0.002901
"2019-04-16 11:01:48.832 +0000",1555412508.831808,-1.187413,-1.301902,-1.027849,-0.246380,0.964065,-0.099375,0.000000,0.000000,0.000000,-1,-0.009801,0.069749,-0.002818,0.009518,0.006668,-0.002416
"2019-04-16 11:01:48.852 +0000",1555412508.851840,-1.186849,-1.301972,-1.028618,-0.246261,0.964084,-0.099489,0.000000,0.000000,0.000000,-1,-0.009910,0.056934,0.003444,0.004317,0.007214,-0.001723
"2019-04-16 11:01:48.872 +0000",1555412508.871875,-1.186583,-1.302123,-1.029378,-0.246100,0.964124,-0.099500,0.000000,0.000000,0.000000,-1,-0.018526,0.046326,0.003278,0.001593,0.004825,0.001447
"2019-04-16 11:01:48.892 +0000",1555412508.891906,-1.187003,-1.302352,-1.030745,-0.245936,0.964185,-0.099314,0.000000,0.000000,0.000000,-1,-0.024939,0.045301,0.003236,0.001033,0.003711,0.004328
"2019-04-16 11:01:48.912 +0000",1555412508.911939,-1.187528,-1.302598,-1.032232,-0.245768,0.964250,-0.099096,0.000000,0.000000,0.000000,-1,-0.021745,0.043154,0.001088,0.002620,0.004912,0.004277
"2019-04-16 11:01:48.932 +0000",1555412508.931972,-1.188036,-1.302777,-1.033578,-0.245659,0.964297,-0.098906,0.000000,0.000000,0.000000,-1,-0.017545,0.033526,0.002065,0.002861,0.008649,0.003890
"2019-04-16 11:01:48.952 +0000",1555412508.952006,-1.188257,-1.302933,-1.034487,-0.245541,0.964339,-0.098796,0.000000,0.000000,0.000000,-1,-0.010086,0.031345,0.002075,0.007046,0.009981,0.005443
"2019-04-16 11:01:48.972 +0000",1555412508.972038,-1.188276,-1.303033,-1.035183,-0.245453,0.964365,-0.098755,0.000000,0.000000,0.000000,-1,-0.008997,0.033477,-0.000032,0.010880,0.010443,0.005509
"2019-04-16 11:01:48.992 +0000",1555412508.992071,-1.188130,-1.303086,-1.035650,-0.245392,0.964379,-0.098772,0.000000,0.000000,0.000000,-1,-0.000529,0.023819,0.002033,0.005539,0.008766,0.003313
"2019-04-16 11:01:49.012 +0000",1555412509.012104,-1.187230,-1.303134,-1.035109,-0.245259,0.964392,-0.098975,0.000000,0.000000,0.000000,-1,0.012207,0.015189,0.007337,-0.000956,0.005426,0.000495
"2019-04-16 11:01:49.032 +0000",1555412509.032137,-1.185445,-1.303166,-1.033587,-0.245054,0.964400,-0.099402,0.000000,0.000000,0.000000,-1,0.022896,0.017249,0.008481,-0.007891,0.004807,0.003485
"2019-04-16 11:01:49.052 +0000",1555412509.052171,-1.183446,-1.303158,-1.031840,-0.244862,0.964398,-0.099894,0.000000,0.000000,0.000000,-1,0.021833,0.016203,0.004189,-0.010509,0.007343,0.005976
"2019-04-16 11:01:49.072 +0000",1555412509.072204,-1.181964,-1.303058,-1.030580,-0.244803,0.964372,-0.100293,0.000000,0.000000,0.000000,-1,0.014368,0.015201,-0.001203,-0.007486,0.007399,0.006254
"2019-04-16 11:01:49.092 +0000",1555412509.092235,-1.180924,-1.302978,-1.029799,-0.244771,0.964350,-0.100578,0.000000,0.000000,0.000000,-1,0.009027,0.015232,-0.000159,-0.003246,0.005300,0.008704
"2019-04-16 11:01:49.112 +0000",1555412509.112268,-1.180359,-1.302939,-1.029508,-0.244748,0.964340,-0.100730,0.000000,0.000000,0.000000,-1,0.001543,0.015271,0.003012,0.000683,0.003311,0.009574
"2019-04-16 11:01:49.132 +0000",1555412509.132302,-1.180340,-1.302990,-1.029793,-0.244700,0.964354,-0.100716,0.000000,0.000000,0.000000,-1,-0.008066,0.015333,0.002966,0.004298,0.003359,0.008919
"2019-04-16 11:01:49.152 +0000",1555412509.152334,-1.180807,-1.303156,-1.030609,-0.244599,0.964398,-0.100541,0.000000,0.000000,0.000000,-1,-0.013417,0.015355,0.007216,0.004944,0.002765,0.008850
"2019-04-16 11:01:49.172 +0000",1555412509.172367,-1.181349,-1.303382,-1.031416,-0.244452,0.964457,-0.100325,0.000000,0.000000,0.000000,-1,-0.013453,0.011083,0.009303,0.004477,0.004430,0.007323
"2019-04-16 11:01:49.192 +0000",1555412509.192401,-1.182002,-1.303624,-1.032234,-0.244302,0.964521,-0.100077,0.000000,0.000000,0.000000,-1,-0.011368,0.002549,0.006007,0.001412,0.008577,0.007533
"2019-04-16 11:01:49.212 +0000",1555412509.212434,-1.182878,-1.303832,-1.033051,-0.244204,0.964576,-0.099787,0.000000,0.000000,0.000000,-1,-0.012545,-0.014496,0.002595,0.000063,0.009774,0.003047
"2019-04-16 11:01:49.232 +0000",1555412509.232467,-1.183859,-1.303986,-1.033679,-0.244163,0.964617,-0.099491,0.000000,0.000000,0.000000,-1,-0.006199,-0.023068,0.002526,0.002922,0.009413,0.001286
"2019-04-16 11:01:49.252 +0000",1555412509.252500,-1.184543,-1.304066,-1.033841,-0.244159,0.964638,-0.099295,0.000000,0.000000,0.000000,-1,0.001223,-0.030581,0.002473,0.003727,0.006248,-0.000284
"2019-04-16 11:01:49.273 +0000",1555412509.272532,-1.184571,-1.304118,-1.033183,-0.244116,0.964652,-0.099270,0.000000,0.000000,0.000000,-1,0.013970,-0.038141,0.006721,0.003134,0.006616,0.000942
"2019-04-16 11:01:49.293 +0000",1555412509.292564,-1.184267,-1.304111,-1.031917,-0.244092,0.964650,-0.099346,0.000000,0.000000,0.000000,-1,0.014916,-0.057329,0.002226,0.002881,0.011104,0.002850
"2019-04-16 11:01:49.313 +0000",1555412509.312598,-1.185146,-1.304025,-1.031443,-0.244257,0.964627,-0.099163,0.000000,0.000000,0.000000,-1,0.002036,-0.071080,-0.007616,0.009913,0.013751,0.002041
"2019-04-16 11:01:49.333 +0000",1555412509.332630,-1.186849,-1.303812,-1.031687,-0.244616,0.964571,-0.098824,0.000000,0.000000,0.000000,-1,0.000965,-0.074253,-0.014071,0.013140,0.012419,0.007958
"2019-04-16 11:01:49.353 +0000",1555412509.352664,-1.188509,-1.303534,-1.031731,-0.245028,0.964498,-0.098518,0.000000,0.000000,0.000000,-1,0.011547,-0.086064,-0.009883,0.014315,0.007304,0.009345
"2019-04-16 11:01:49.373 +0000",1555412509.372696,-1.189085,-1.303325,-1.030306,-0.245272,0.964442,-0.098452,0.000000,0.000000,0.000000,-1,0.031651,-0.107554,0.000650,0.015841,0.004582,0.008761
"2019-04-16 11:01:49.393 +0000",1555412509.392730,-1.188773,-1.303153,-1.027478,-0.245395,0.964397,-0.098590,0.000000,0.000000,0.000000,-1,0.039974,-0.137477,0.003546,0.011111,0.009541,0.007251
"2019-04-16 11:01:49.413 +0000",1555412509.412763,-1.189473,-1.302924,-1.024888,-0.245669,0.964336,-0.098500,0.000000,0.000000,0.000000,-1,0.034357,-0.180076,-0.003392,0.004137,0.016361,0.001271
"2019-04-16 11:01:49.433 +0000",1555412509.432796,-1.191423,-1.302658,-1.022944,-0.246098,0.964266,-0.098116,0.000000,0.000000,0.000000,-1,0.031042,-0.196050,-0.003595,0.012547,0.011503,-0.001097
"2019-04-16 11:01:49.453 +0000",1555412509.452828,-1.192783,-1.302464,-1.020233,-0.246407,0.964214,-0.097851,0.000000,0.000000,0.000000,-1,0.041642,-0.202549,0.007068,0.020409,-0.000973,-0.006443
"2019-04-16 11:01:49.473 +0000",1555412509.472861,-1.193841,-1.302356,-1.017110,-0.246607,0.964186,-0.097628,0.000000,0.000000,0.000000,-1,0.040565,-0.202552,0.010269,0.017237,-0.001097,-0.006787
"2019-04-16 11:01:49.493 +0000",1555412509.492893,-1.194873,-1.302307,-1.014087,-0.246751,0.964173,-0.097391,0.000000,0.000000,0.000000,-1,0.037452,-0.188675,0.012554,0.012513,0.004455,-0.000723
"2019-04-16 11:01:49.513 +0000",1555412509.512927,-1.195347,-1.302345,-1.010916,-0.246763,0.964183,-0.097261,0.000000,0.000000,0.000000,-1,0.037600,-0.165232,0.018173,0.007063,0.002614,0.002641
"2019-04-16 11:01:49.533 +0000",1555412509.532960,-1.195295,-1.302478,-1.007581,-0.246638,0.964218,-0.097226,0.000000,0.000000,0.000000,-1,0.033405,-0.153481,0.020428,0.008205,0.003174,0.001035
"2019-04-16 11:01:49.553 +0000",1555412509.552993,-1.195240,-1.302718,-1.004487,-0.246417,0.964282,-0.097155,0.000000,0.000000,0.000000,-1,0.034527,-0.143904,0.024820,0.007846,0.001798,-0.008711
"2019-04-16 11:01:49.573 +0000",1555412509.573027,-1.194496,-1.302982,-1.000933,-0.246108,0.964352,-0.097245,0.000000,0.000000,0.000000,-1,0.043138,-0.132243,0.029274,0.002258,-0.000378,-0.014877
"2019-04-16 11:01:49.593 +0000",1555412509.593059,-1.193458,-1.303258,-0.997241,-0.245760,0.964424,-0.097402,0.000000,0.000000,0.000000,-1,0.037903,-0.118339,0.027274,-0.011625,-0.000634,-0.017069
"2019-04-16 11:01:49.613 +0000",1555412509.613092,-1.192891,-1.303511,-0.994348,-0.245477,0.964492,-0.097451,0.000000,0.000000,0.000000,-1,0.026283,-0.102255,0.023131,-0.019095,-0.001036,-0.014045
"2019-04-16 11:01:49.633 +0000",1555412509.633123,-1.192851,-1.303785,-0.992331,-0.245229,0.964564,-0.097364,0.000000,0.000000,0.000000,-1,0.012501,-0.090420,0.017859,-0.024073,-0.002665,-0.014361
"2019-04-16 11:01:49.653 +0000",1555412509.653157,-1.193369,-1.304044,-0.991101,-0.245047,0.964632,-0.097145,0.000000,0.000000,0.000000,-1,0.005127,-0.077566,0.014768,-0.027917,-0.001955,-0.017617
"2019-04-16 11:01:49.673 +0000",1555412509.673190,-1.193704,-1.304151,-0.990161,-0.244983,0.964660,-0.097024,0.000000,0.000000,0.000000,-1,0.007486,-0.048766,0.007635,-0.033047,0.000321,-0.015509
"2019-04-16 11:01:49.693 +0000",1555412509.693223,-1.193813,-1.304063,-0.989538,-0.245074,0.964637,-0.097029,0.000000,0.000000,0.000000,-1,0.006608,-0.025275,-0.000645,-0.037626,-0.001304,-0.012956
"2019-04-16 11:01:49.713 +0000",1555412509.713255,-1.193802,-1.303879,-0.989327,-0.245236,0.964589,-0.097097,0.000000,0.000000,0.000000,-1,0.003627,0.004619,-0.005651,-0.031802,-0.002903,-0.010355
"2019-04-16 11:01:49.733 +0000",1555412509.733289,-1.193017,-1.303703,-0.988930,-0.245318,0.964542,-0.097352,0.000000,0.000000,0.000000,-1,0.009146,0.032296,-0.001026,-0.019346,0.000363,-0.015609
"2019-04-16 11:01:49.753 +0000",1555412509.753322,-1.191131,-1.303444,-0.987920,-0.245366,0.964474,-0.097907,0.000000,0.000000,0.000000,-1,0.020022,0.058898,-0.004937,-0.014125,0.003239,-0.013314
"2019-04-16 11:01:49.773 +0000",1555412509.773355,-1.188494,-1.303002,-0.986671,-0.245503,0.964357,-0.098713,0.000000,0.000000,0.000000,-1,0.017038,0.085609,-0.015327,-0.015330,0.000395,-0.010845
"2019-04-16 11:01:49.793 +0000",1555412509.793387,-1.186349,-1.302395,-0.986487,-0.245833,0.964196,-0.099459,0.000000,0.000000,0.000000,-1,0.001233,0.110277,-0.027939,-0.020845,-0.003396,-0.004270
"2019-04-16 11:01:49.813 +0000",1555412509.813420,-1.185256,-1.301832,-0.988042,-0.246228,0.964047,-0.099932,0.000000,0.000000,0.000000,-1,-0.022013,0.142438,-0.034088,-0.021122,-0.005581,0.000246
"2019-04-16 11:01:49.833 +0000",1555412509.833453,-1.185127,-1.301380,-0.991016,-0.246618,0.963926,-0.100127,0.000000,0.000000,0.000000,-1,-0.036878,0.154265,-0.034021,-0.017878,-0.001554,-0.001252
"2019-04-16 11:01:49.853 +0000",1555412509.853486,-1.185436,-1.301076,-0.994546,-0.246920,0.963845,-0.100161,0.000000,0.000000,0.000000,-1,-0.043325,0.152148,-0.025526,-0.008252,0.003882,0.001757
"2019-04-16 11:01:49.874 +0000",1555412509.873519,-1.185449,-1.300930,-0.997644,-0.247052,0.963807,-0.100211,0.000000,0.000000,0.000000,-1,-0.030630,0.140300,-0.013847,0.000729,0.004455,0.002692
"2019-04-16 11:01:49.894 +0000",1555412509.893552,-1.185005,-1.300893,-0.999810,-0.247041,0.963797,-0.100334,0.000000,0.000000,0.000000,-1,-0.021249,0.110362,-0.007740,-0.000335,0.004969,0.001182
"2019-04-16 11:01:49.914 +0000",1555412509.913584,-1.184748,-1.300840,-1.001447,-0.247062,0.963782,-0.100417,0.000000,0.000000,0.000000,-1,-0.018297,0.073029,-0.011369,-0.004799,0.011590,0.001433
"2019-04-16 11:01:49.934 +0000",1555412509.933617,-1.185016,-1.300627,-1.002959,-0.247279,0.963726,-0.100428,0.000000,0.000000,0.000000,-1,-0.010973,0.048477,-0.019102,-0.002492,0.011891,0.004587
"2019-04-16 11:01:49.954 +0000",1555412509.953651,-1.185379,-1.300355,-1.004126,-0.247559,0.963653,-0.100437,0.000000,0.000000,0.000000,-1,-0.008990,0.027133,-0.018274,0.000153,0.008347,0.006885
"2019-04-16 11:01:49.974 +0000",1555412509.973683,-1.185928,-1.300139,-1.005136,-0.247807,0.963595,-0.100379,0.000000,0.000000,0.000000,-1,-0.008013,0.016447,-0.013050,-0.003033,0.010999,0.010367
"2019-04-16 11:01:49.994 +0000",1555412509.993716,-1.186408,-1.300049,-1.005878,-0.247935,0.963571,-0.100292,0.000000,0.000000,0.000000,-1,-0.005980,0.006801,-0.001397,-0.005056,0.003607,0.011150
"2019-04-16 11:01:50.014 +0000",1555412510.013749,-1.186803,-1.300089,-1.006457,-0.247939,0.963582,-0.100180,0.000000,0.000000,0.000000,-1,-0.008114,0.007875,0.000743,-0.015595,-0.000188,0.008749
"2019-04-16 11:01:50.034 +0000",1555412510.033782,-1.187822,-1.300130,-1.007898,-0.248004,0.963593,-0.099912,0.000000,0.000000,0.000000,-1,-0.026062,0.031490,-0.011892,-0.021115,0.004898,0.011655
