timestamp,timeIntervalSince1970,attitude.roll,attitude.pitch,attitude.yaw,gravity.x,gravity.y,gravity.z,magneticField.x,magneticField.y,magneticField.z,magneticField.accuracy,rotationRate.x,rotationRate.y,rotationRate.z,userAcceleration.x,userAcceleration.y,userAcceleration.z
"2019-05-06 15:50:41.365 +0000",1557157841.365214,0.185560,0.372547,-0.068273,0.171841,-0.363988,-0.915414,0.000000,0.000000,0.000000,-1,-0.036713,-0.009736,-0.006120,0.006336,0.010656,0.014703
"2019-05-06 15:50:41.385 +0000",1557157841.385111,0.185286,0.371680,-0.068102,0.171649,-0.363181,-0.915771,0.000000,0.000000,0.000000,-1,-0.056183,-0.019149,0.003318,0.005826,0.003699,0.019302
"2019-05-06 15:50:41.405 +0000",1557157841.405008,0.184842,0.370230,-0.067787,0.171338,-0.361830,-0.916364,0.000000,0.000000,0.000000,-1,-0.090258,-0.009022,-0.000283,0.002551,0.014112,0.019238
"2019-05-06 15:50:41.425 +0000",1557157841.424906,0.184718,0.368289,-0.067586,0.171354,-0.360020,-0.917073,0.000000,0.000000,0.000000,-1,-0.100660,-0.003378,-0.021820,-0.002118,0.010365,0.015309
"2019-05-06 15:50:41.445 +0000",1557157841.444799,0.184954,0.366530,-0.068249,0.171686,-0.358378,-0.917654,0.000000,0.000000,0.000000,-1,-0.053452,0.046602,-0.079203,-0.011698,0.017009,0.006903
"2019-05-06 15:50:41.465 +0000",1557157841.464695,0.185771,0.365527,-0.070055,0.172502,-0.357441,-0.917866,0.000000,0.000000,0.000000,-1,-0.036504,0.015501,-0.098240,-0.008852,0.000996,-0.002605
"2019-05-06 15:50:41.485 +0000",1557157841.484592,0.188513,0.363731,-0.072355,0.175138,-0.355764,-0.918019,0.000000,0.000000,0.000000,-1,-0.085822,0.088940,-0.106393,-0.011182,-0.010294,0.035328
"2019-05-06 15:50:41.504 +0000",1557157841.504490,0.188805,0.363844,-0.073529,0.175398,-0.355869,-0.917928,0.000000,0.000000,0.000000,-1,-0.159921,0.041012,-0.133893,-0.004851,0.009403,0.031255
"2019-05-06 15:50:41.524 +0000",1557157841.524386,0.186034,0.355714,-0.074155,0.173384,-0.348259,-0.921224,0.000000,0.000000,0.000000,-1,-0.216898,-0.040736,-0.099050,0.006288,-0.013923,0.006887
"2019-05-06 15:50:41.544 +0000",1557157841.544285,0.182873,0.348791,-0.074224,0.170905,-0.341762,-0.924116,0.000000,0.000000,0.000000,-1,-0.243962,-0.053293,-0.083265,0.001412,-0.039327,0.006788
"2019-05-06 15:50:41.564 +0000",1557157841.564183,0.181705,0.350557,-0.074664,0.169716,-0.343421,-0.923720,0.000000,0.000000,0.000000,-1,-0.422554,-0.053927,-0.090570,0.002952,-0.030236,0.038100
"2019-05-06 15:50:41.584 +0000",1557157841.584079,0.183321,0.344719,-0.075335,0.171571,-0.337932,-0.925400,0.000000,0.000000,0.000000,-1,-0.572488,0.079920,-0.126689,0.001296,-0.010045,0.070984
"2019-05-06 15:50:41.604 +0000",1557157841.603976,0.187597,0.334635,-0.075617,0.176154,-0.328424,-0.927959,0.000000,0.000000,0.000000,-1,-0.817524,0.464732,-0.092519,-0.000311,0.008417,0.063716
"2019-05-06 15:50:41.624 +0000",1557157841.623873,0.201831,0.320549,-0.072906,0.190253,-0.315087,-0.929798,0.000000,0.000000,0.000000,-1,-0.864023,0.847175,-0.119346,0.086511,0.020074,0.167286
"2019-05-06 15:50:41.644 +0000",1557157841.643771,0.219834,0.303722,-0.073164,0.208087,-0.299074,-0.931265,0.000000,0.000000,0.000000,-1,-0.785178,0.811574,-0.229780,-0.056888,0.106096,-0.029413
"2019-05-06 15:50:41.664 +0000",1557157841.663667,0.230211,0.285270,-0.074422,0.218961,-0.281417,-0.934270,0.000000,0.000000,0.000000,-1,-1.049492,0.193808,-0.314109,-0.024366,0.069899,-0.104960
"2019-05-06 15:50:41.684 +0000",1557157841.683566,0.232923,0.260149,-0.077058,0.223056,-0.257225,-0.940256,0.000000,0.000000,0.000000,-1,-1.330020,0.062561,-0.540740,-0.063098,-0.057274,0.001688
"2019-05-06 15:50:41.703 +0000",1557157841.703462,0.234974,0.230678,-0.084481,0.226651,-0.228638,-0.946760,0.000000,0.000000,0.000000,-1,-1.355688,-0.027905,-0.844953,-0.076153,-0.067795,-0.034243
"2019-05-06 15:50:41.723 +0000",1557157841.723361,0.236527,0.200590,-0.097257,0.229629,-0.199247,-0.952665,0.000000,0.000000,0.000000,-1,-1.255399,-0.107600,-1.110333,-0.014678,-0.012682,-0.067782
"2019-05-06 15:50:41.743 +0000",1557157841.743258,0.238025,0.170939,-0.115944,0.232348,-0.170108,-0.957642,0.000000,0.000000,0.000000,-1,-1.280131,-0.045820,-1.331268,0.075285,-0.085660,0.017594
"2019-05-06 15:50:41.763 +0000",1557157841.763155,0.241915,0.139719,-0.136325,0.237228,-0.139265,-0.961420,0.000000,0.000000,0.000000,-1,-1.251259,0.122734,-1.341934,-0.001709,-0.182192,-0.012716
"2019-05-06 15:50:41.783 +0000",1557157841.783052,0.248802,0.110328,-0.156374,0.244746,-0.110104,-0.963315,0.000000,0.000000,0.000000,-1,-1.102767,0.266150,-1.361958,-0.018794,-0.180637,-0.003161
"2019-05-06 15:50:41.803 +0000",1557157841.802950,0.254705,0.083807,-0.179329,0.251075,-0.083709,-0.964341,0.000000,0.000000,0.000000,-1,-0.940242,0.101573,-1.538721,0.053383,-0.128633,-0.048949
"2019-05-06 15:50:41.823 +0000",1557157841.822848,0.257843,0.057773,-0.206373,0.254570,-0.057741,-0.965329,0.000000,0.000000,0.000000,-1,-0.901333,0.055345,-1.728805,0.133705,-0.083128,-0.097079
"2019-05-06 15:50:41.843 +0000",1557157841.842744,0.262939,0.033235,-0.235442,0.259776,-0.033229,-0.965097,0.000000,0.000000,0.000000,-1,-0.693179,0.404902,-1.694977,0.159825,-0.009130,-0.068961
"2019-05-06 15:50:41.863 +0000",1557157841.862641,0.276282,0.013291,-0.265322,0.272756,-0.013290,-0.961991,0.000000,0.000000,0.000000,-1,-0.481156,0.801151,-1.771464,0.213023,0.031021,-0.018065
"2019-05-06 15:50:41.883 +0000",1557157841.882539,0.292748,-0.006816,-0.299131,0.288577,0.006816,-0.957432,0.000000,0.000000,0.000000,-1,-0.509452,0.771550,-2.061886,0.301861,0.080052,-0.001583
"2019-05-06 15:50:41.902 +0000",1557157841.902437,0.305826,-0.028161,-0.336789,0.300961,0.028157,-0.953221,0.000000,0.000000,0.000000,-1,-0.378683,0.638744,-2.134119,0.267093,0.122737,0.086033
"2019-05-06 15:50:41.922 +0000",1557157841.922333,0.317632,-0.044155,-0.374366,0.312013,0.044140,-0.949052,0.000000,0.000000,0.000000,-1,0.046742,0.724086,-1.902618,0.176558,0.178501,0.206300
"2019-05-06 15:50:41.942 +0000",1557157841.942231,0.331051,-0.049265,-0.410677,0.324643,0.049245,-0.944554,0.000000,0.000000,0.000000,-1,0.603370,0.788957,-1.758517,0.151218,0.253199,0.263600
"2019-05-06 15:50:41.962 +0000",1557157841.962129,0.343671,-0.045351,-0.448843,0.336599,0.045335,-0.940556,0.000000,0.000000,0.000000,-1,1.033346,0.622389,-1.735343,0.151240,0.265639,0.303990
"2019-05-06 15:50:41.982 +0000",1557157841.982026,0.351424,-0.034253,-0.488966,0.344033,0.034247,-0.938333,0.000000,0.000000,0.000000,-1,1.335616,0.313828,-1.633032,0.061789,0.262583,0.297876
"2019-05-06 15:50:42.002 +0000",1557157842.001923,0.351799,-0.020615,-0.526720,0.344514,0.020613,-0.938555,0.000000,0.000000,0.000000,-1,1.197366,-0.271191,-1.462279,-0.045945,0.263246,0.196474
"2019-05-06 15:50:42.022 +0000",1557157842.021820,0.340010,-0.012027,-0.562153,0.333472,0.012026,-0.942683,0.000000,0.000000,0.000000,-1,0.804863,-0.705692,-1.660732,-0.096015,0.308683,0.118739
"2019-05-06 15:50:42.042 +0000",1557157842.041718,0.324567,-0.011703,-0.600763,0.318876,0.011703,-0.947724,0.000000,0.000000,0.000000,-1,0.518257,-0.867378,-1.953764,-0.090559,0.274628,0.140488
"2019-05-06 15:50:42.062 +0000",1557157842.061616,0.302328,-0.016688,-0.641243,0.297702,0.016688,-0.954513,0.000000,0.000000,0.000000,-1,0.258677,-1.354828,-2.035041,-0.092288,0.196111,0.080581
"2019-05-06 15:50:42.082 +0000",1557157842.081513,0.268597,-0.024190,-0.681286,0.265301,0.024188,-0.963862,0.000000,0.000000,0.000000,-1,0.201225,-1.946256,-2.025071,-0.129529,0.142957,0.075633
"2019-05-06 15:50:42.101 +0000",1557157842.101409,0.224425,-0.026931,-0.720922,0.222466,0.026927,-0.974569,0.000000,0.000000,0.000000,-1,0.572934,-2.314889,-1.880146,-0.142647,0.064305,0.113134
"2019-05-06 15:50:42.121 +0000",1557157842.121308,0.186705,-0.019250,-0.756208,0.185588,0.019249,-0.982439,0.000000,0.000000,0.000000,-1,0.672374,-0.621027,-1.279007,-0.240398,-0.079750,0.110933
"2019-05-06 15:50:42.141 +0000",1557157842.141204,0.168974,-0.020071,-0.778227,0.168137,0.020069,-0.985559,0.000000,0.000000,0.000000,-1,-0.459534,-1.014189,-1.013430,-0.292221,-0.232426,-0.542730
"2019-05-06 15:50:42.161 +0000",1557157842.161103,0.146052,-0.036368,-0.795886,0.145437,0.036360,-0.988699,0.000000,0.000000,0.000000,-1,-0.722163,-1.115488,-0.977592,-0.241506,-0.099654,-0.242990
"2019-05-06 15:50:42.181 +0000",1557157842.180999,0.126026,-0.050702,-0.812063,0.125531,0.050680,-0.990794,0.000000,0.000000,0.000000,-1,-0.513638,-0.797865,-0.813081,-0.153852,-0.109381,-0.033727
"2019-05-06 15:50:42.201 +0000",1557157842.200897,0.105454,-0.064325,-0.826600,0.105041,0.064281,-0.992388,0.000000,0.000000,0.000000,-1,-0.725616,-1.304367,-0.864898,-0.114959,-0.144878,-0.251981
"2019-05-06 15:50:42.221 +0000",1557157842.220795,0.074003,-0.079864,-0.844045,0.073700,0.079779,-0.994084,0.000000,0.000000,0.000000,-1,-0.540953,-1.520023,-0.967458,0.009491,-0.220266,-0.227489
"2019-05-06 15:50:42.241 +0000",1557157842.240692,0.052355,-0.083660,-0.861478,0.052148,0.083563,-0.995137,0.000000,0.000000,0.000000,-1,0.284393,-0.441457,-0.809219,0.129523,-0.360311,0.006780
"2019-05-06 15:50:42.261 +0000",1557157842.260588,0.051351,-0.073124,-0.878816,0.051191,0.073059,-0.996013,0.000000,0.000000,0.000000,-1,0.789092,0.342096,-0.908871,0.076845,-0.308334,0.091976
"2019-05-06 15:50:42.280 +0000",1557157842.280486,0.056887,-0.056794,-0.897590,0.056764,0.056764,-0.996773,0.000000,0.000000,0.000000,-1,0.904112,0.284286,-0.824005,-0.008745,-0.140672,-0.030144
"2019-05-06 15:50:42.300 +0000",1557157842.300383,0.062191,-0.040887,-0.913832,0.062099,0.040876,-0.997233,0.000000,0.000000,0.000000,-1,0.769180,0.349711,-0.737788,-0.052944,0.086596,-0.016592
"2019-05-06 15:50:42.320 +0000",1557157842.320282,0.068740,-0.028864,-0.928396,0.068657,0.028860,-0.997223,0.000000,0.000000,0.000000,-1,0.529263,0.339451,-0.622617,-0.041573,0.163599,-0.015900
"2019-05-06 15:50:42.340 +0000",1557157842.340178,0.072980,-0.021615,-0.940009,0.072898,0.021613,-0.997105,0.000000,0.000000,0.000000,-1,0.265253,0.091265,-0.521242,-0.023353,0.134607,-0.008495
"2019-05-06 15:50:42.360 +0000",1557157842.360075,0.070694,-0.019973,-0.951178,0.070621,0.019972,-0.997303,0.000000,0.000000,0.000000,-1,-0.017167,-0.329656,-0.593241,-0.017978,0.077867,-0.007213
"2019-05-06 15:50:42.380 +0000",1557157842.379974,0.060304,-0.022039,-0.963731,0.060253,0.022037,-0.997940,0.000000,0.000000,0.000000,-1,-0.053027,-0.624679,-0.671315,-0.017604,-0.000919,-0.005509
"2019-05-06 15:50:42.400 +0000",1557157842.399870,0.047876,-0.021976,-0.977384,0.047846,0.021974,-0.998613,0.000000,0.000000,0.000000,-1,0.165558,-0.531366,-0.699056,-0.002573,-0.013170,0.049883
"2019-05-06 15:50:42.420 +0000",1557157842.419768,0.039832,-0.020583,-0.991842,0.039813,0.020581,-0.998995,0.000000,0.000000,0.000000,-1,0.438489,-0.288017,-0.739296,-0.010242,0.077884,0.075320
"2019-05-06 15:50:42.440 +0000",1557157842.439664,0.036158,-0.016720,-1.007184,0.036145,0.016719,-0.999207,0.000000,0.000000,0.000000,-1,0.565633,-0.224512,-0.752999,-0.027295,0.022862,0.075974
"2019-05-06 15:50:42.460 +0000",1557157842.459575,0.027340,-0.008181,-1.022392,0.027335,0.008181,-0.999593,0.000000,0.000000,0.000000,-1,0.496507,-0.789204,-0.721786,-0.049735,-0.009341,0.033773
"2019-05-06 15:50:42.479 +0000",1557157842.479472,0.008981,0.001916,-1.035614,0.008981,-0.001916,-0.999958,0.000000,0.000000,0.000000,-1,0.552299,-1.080805,-0.561168,-0.001855,-0.079215,-0.008480
"2019-05-06 15:50:42.499 +0000",1557157842.499370,-0.008726,0.006596,-1.044495,-0.008726,-0.006596,-0.999940,0.000000,0.000000,0.000000,-1,0.322585,-0.845161,-0.324225,0.066328,-0.154460,-0.059752
"2019-05-06 15:50:42.519 +0000",1557157842.519266,-0.021666,0.007314,-1.049473,-0.021664,-0.007314,-0.999739,0.000000,0.000000,0.000000,-1,0.044829,-0.599582,-0.186328,0.106564,-0.153911,-0.075304
"2019-05-06 15:50:42.539 +0000",1557157842.539164,-0.032017,0.006556,-1.052298,-0.032011,-0.006556,-0.999466,0.000000,0.000000,0.000000,-1,-0.064872,-0.495920,-0.115958,0.093458,-0.076238,-0.014679
"2019-05-06 15:50:42.559 +0000",1557157842.559062,-0.038459,0.006978,-1.053962,-0.038449,-0.006978,-0.999236,0.000000,0.000000,0.000000,-1,-0.091095,-0.290897,-0.035205,0.036602,-0.075557,0.002410
"2019-05-06 15:50:42.579 +0000",1557157842.578959,-0.043324,0.004945,-1.053612,-0.043310,-0.004945,-0.999049,0.000000,0.000000,0.000000,-1,-0.079588,-0.308909,0.069879,0.005132,-0.034804,0.008861
"2019-05-06 15:50:42.599 +0000",1557157842.598856,-0.049995,0.003435,-1.051949,-0.049974,-0.003435,-0.998745,0.000000,0.000000,0.000000,-1,-0.068176,-0.316729,0.094643,0.020067,0.013475,0.055843
"2019-05-06 15:50:42.619 +0000",1557157842.618753,-0.055237,0.001784,-1.049877,-0.055209,-0.001784,-0.998473,0.000000,0.000000,0.000000,-1,-0.114096,-0.192312,0.126060,-0.027891,-0.009706,0.028701
"2019-05-06 15:50:42.639 +0000",1557157842.638651,-0.056409,-0.002619,-1.047024,-0.056379,0.002619,-0.998406,0.000000,0.000000,0.000000,-1,-0.294734,0.053520,0.185786,-0.062884,-0.020746,-0.015952
"2019-05-06 15:50:42.659 +0000",1557157842.658548,-0.051863,-0.003789,-1.043302,-0.051839,0.003789,-0.998648,0.000000,0.000000,0.000000,-1,-0.498223,0.216707,0.188649,-0.090617,0.015254,-0.064569
"2019-05-06 15:50:42.678 +0000",1557157842.678446,-0.043354,-0.016203,-1.043242,-0.043335,0.016203,-0.998929,0.000000,0.000000,0.000000,-1,-0.603933,0.459410,-0.061304,0.011123,0.046908,-0.022235
"2019-05-06 15:50:42.698 +0000",1557157842.698342,-0.034190,-0.022416,-1.043534,-0.034175,0.022414,-0.999165,0.000000,0.000000,0.000000,-1,-0.364927,0.755749,0.029695,0.044795,0.016435,-0.010647
"2019-05-06 15:50:42.718 +0000",1557157842.718241,-0.025826,-0.025348,-1.043611,-0.025815,0.025345,-0.999345,0.000000,0.000000,0.000000,-1,-0.107913,0.621526,0.056279,-0.007037,0.002120,0.045168
"2019-05-06 15:50:42.738 +0000",1557157842.738137,-0.023399,-0.017748,-1.043742,-0.023394,0.017747,-0.999569,0.000000,0.000000,0.000000,-1,0.594155,0.417102,-0.097389,-0.020033,0.030165,0.010845
"2019-05-06 15:50:42.758 +0000",1557157842.758035,-0.022348,-0.009731,-1.046166,-0.022345,0.009731,-0.999703,0.000000,0.000000,0.000000,-1,0.368144,-0.005864,-0.144142,-0.039713,0.020955,0.048348
"2019-05-06 15:50:42.778 +0000",1557157842.777932,-0.023433,-0.008155,-1.048466,-0.023430,0.008155,-0.999692,0.000000,0.000000,0.000000,-1,-0.020427,-0.260383,-0.107290,0.053856,-0.021445,0.079587
"2019-05-06 15:50:42.798 +0000",1557157842.797830,-0.030340,-0.012274,-1.050999,-0.030333,0.012274,-0.999465,0.000000,0.000000,0.000000,-1,-0.173362,-0.366020,-0.130204,0.019179,0.040339,0.047011
"2019-05-06 15:50:42.818 +0000",1557157842.817727,-0.038147,-0.017003,-1.053290,-0.038132,0.017002,-0.999128,0.000000,0.000000,0.000000,-1,-0.171262,-0.401781,-0.065881,0.005661,0.015515,-0.010470
"2019-05-06 15:50:42.838 +0000",1557157842.837623,-0.046842,-0.020084,-1.054117,-0.046815,0.020083,-0.998702,0.000000,0.000000,0.000000,-1,-0.080944,-0.305188,0.000262,0.020616,0.013654,-0.042787
"2019-05-06 15:50:42.858 +0000",1557157842.857522,-0.048661,-0.020521,-1.052613,-0.048631,0.020520,-0.998606,0.000000,0.000000,0.000000,-1,-0.051889,-0.163388,0.143824,-0.008635,-0.011288,-0.081396
"2019-05-06 15:50:42.877 +0000",1557157842.877419,-0.047118,-0.024193,-1.049675,-0.047087,0.024190,-0.998598,0.000000,0.000000,0.000000,-1,-0.224596,0.062480,0.139427,-0.041353,-0.021657,-0.051237
"2019-05-06 15:50:42.897 +0000",1557157842.897316,-0.042866,-0.031802,-1.047728,-0.042831,0.031797,-0.998576,0.000000,0.000000,0.000000,-1,-0.499195,0.225980,0.089048,-0.014634,-0.027799,0.034053
"2019-05-06 15:50:42.917 +0000",1557157842.917214,-0.040566,-0.042654,-1.046841,-0.040518,0.042641,-0.998269,0.000000,0.000000,0.000000,-1,-0.525037,0.006365,0.059143,-0.046442,0.046669,0.035057
"2019-05-06 15:50:42.937 +0000",1557157842.937111,-0.040065,-0.047678,-1.045409,-0.040009,0.047660,-0.998062,0.000000,0.000000,0.000000,-1,-0.135689,-0.052865,0.099900,-0.019149,0.003655,0.064682
"2019-05-06 15:50:42.957 +0000",1557157842.957008,-0.046923,-0.046166,-1.043896,-0.046856,0.046149,-0.997835,0.000000,0.000000,0.000000,-1,0.094484,-0.528239,0.053937,-0.007603,0.005379,-0.016768
"2019-05-06 15:50:42.977 +0000",1557157842.976907,-0.060946,-0.040264,-1.044219,-0.060859,0.040254,-0.997334,0.000000,0.000000,0.000000,-1,0.316820,-0.722350,-0.146750,-0.047066,0.015563,-0.007640
"2019-05-06 15:50:42.997 +0000",1557157842.996804,-0.073596,-0.033245,-1.048984,-0.073489,0.033239,-0.996742,0.000000,0.000000,0.000000,-1,0.386530,-0.439708,-0.348811,-0.069928,0.007777,0.006645
"2019-05-06 15:50:43.017 +0000",1557157843.016701,-0.077538,-0.026784,-1.055520,-0.077432,0.026781,-0.996638,0.000000,0.000000,0.000000,-1,0.279284,0.014787,-0.316460,-0.054754,-0.018236,0.041560
"2019-05-06 15:50:43.037 +0000",1557157843.036598,-0.074217,-0.024409,-1.059249,-0.074127,0.024406,-0.996950,0.000000,0.000000,0.000000,-1,0.058361,0.254705,-0.096559,-0.042145,-0.044563,0.050325
"2019-05-06 15:50:43.056 +0000",1557157843.056496,-0.068961,-0.025490,-1.060757,-0.068884,0.025488,-0.997299,0.000000,0.000000,0.000000,-1,-0.092151,0.279303,-0.100386,-0.040903,-0.024053,0.028152
"2019-05-06 15:50:43.076 +0000",1557157843.076393,-0.065803,-0.028057,-1.064444,-0.065730,0.028054,-0.997443,0.000000,0.000000,0.000000,-1,-0.147100,0.227506,-0.222963,-0.048024,-0.024483,-0.014276
"2019-05-06 15:50:43.096 +0000",1557157843.096289,-0.064787,-0.029941,-1.069019,-0.064713,0.029937,-0.997455,0.000000,0.000000,0.000000,-1,-0.085254,0.137780,-0.203939,0.003632,-0.016341,-0.026990
"2019-05-06 15:50:43.116 +0000",1557157843.116188,-0.066150,-0.029694,-1.072137,-0.066073,0.029689,-0.997373,0.000000,0.000000,0.000000,-1,-0.079655,-0.089785,-0.080376,0.014147,0.010472,-0.017397
"2019-05-06 15:50:43.136 +0000",1557157843.136085,-0.072682,-0.030638,-1.072485,-0.072584,0.030633,-0.996892,0.000000,0.000000,0.000000,-1,-0.135248,-0.411720,0.057660,0.047514,0.021003,-0.008434
"2019-05-06 15:50:43.156 +0000",1557157843.155983,-0.082809,-0.032870,-1.071552,-0.082670,0.032864,-0.996035,0.000000,0.000000,0.000000,-1,-0.172721,-0.443026,0.025180,0.062712,0.026996,0.013872
"2019-05-06 15:50:43.176 +0000",1557157843.175879,-0.090249,-0.036273,-1.072424,-0.090067,0.036265,-0.995275,0.000000,0.000000,0.000000,-1,-0.259160,-0.334208,-0.074447,0.057260,0.026098,0.033712
"2019-05-06 15:50:43.196 +0000",1557157843.195777,-0.093876,-0.042014,-1.075331,-0.093656,0.042002,-0.994718,0.000000,0.000000,0.000000,-1,-0.324640,-0.155276,-0.154686,0.064802,0.002752,0.023298
"2019-05-06 15:50:43.216 +0000",1557157843.215674,-0.096223,-0.046875,-1.079427,-0.095969,0.046858,-0.994281,0.000000,0.000000,0.000000,-1,-0.160136,-0.255303,-0.243734,0.053993,0.005693,-0.037030
"2019-05-06 15:50:43.236 +0000",1557157843.235572,-0.100010,-0.046788,-1.084982,-0.099734,0.046770,-0.993914,0.000000,0.000000,0.000000,-1,0.153683,-0.276425,-0.301299,-0.028898,0.026273,-0.029020
"2019-05-06 15:50:43.255 +0000",1557157843.255469,-0.102845,-0.040794,-1.090131,-0.102578,0.040782,-0.993889,0.000000,0.000000,0.000000,-1,0.410266,-0.191393,-0.289011,-0.056220,0.043751,0.032753
"2019-05-06 15:50:43.275 +0000",1557157843.275366,-0.104525,-0.032352,-1.095088,-0.104280,0.032346,-0.994022,0.000000,0.000000,0.000000,-1,0.373774,-0.142530,-0.323752,-0.020048,0.037356,0.036579
"2019-05-06 15:50:43.295 +0000",1557157843.295264,-0.105486,-0.026884,-1.100831,-0.105252,0.026881,-0.994082,0.000000,0.000000,0.000000,-1,0.156418,-0.122640,-0.284404,-0.013385,0.008489,0.037829
"2019-05-06 15:50:43.315 +0000",1557157843.315162,-0.108427,-0.026212,-1.105079,-0.108177,0.026209,-0.993786,0.000000,0.000000,0.000000,-1,-0.046606,-0.181501,-0.171962,-0.009651,-0.014948,0.027783
"2019-05-06 15:50:43.335 +0000",1557157843.335058,-0.114706,-0.028985,-1.108602,-0.114407,0.028981,-0.993011,0.000000,0.000000,0.000000,-1,-0.131877,-0.321494,-0.157677,0.012829,-0.006886,-0.008820
"2019-05-06 15:50:43.355 +0000",1557157843.354955,-0.121509,-0.032012,-1.112090,-0.121148,0.032007,-0.992118,0.000000,0.000000,0.000000,-1,-0.087101,-0.258949,-0.173350,-0.019126,-0.004541,0.027336
"2019-05-06 15:50:43.375 +0000",1557157843.374852,-0.125989,-0.032762,-1.116007,-0.125588,0.032756,-0.991542,0.000000,0.000000,0.000000,-1,-0.005878,-0.204290,-0.204672,-0.042976,0.016881,0.078318
"2019-05-06 15:50:43.395 +0000",1557157843.394751,-0.130729,-0.031760,-1.120455,-0.130291,0.031755,-0.990967,0.000000,0.000000,0.000000,-1,-0.002907,-0.247967,-0.231336,-0.182774,-0.009004,0.063431
"2019-05-06 15:50:43.415 +0000",1557157843.414648,-0.133231,-0.031813,-1.123706,-0.132770,0.031808,-0.990636,0.000000,0.000000,0.000000,-1,-0.057040,0.013586,-0.078172,-0.199109,0.022895,0.013341
"2019-05-06 15:50:43.435 +0000",1557157843.434544,-0.134469,-0.032048,-1.124763,-0.133996,0.032042,-0.990464,0.000000,0.000000,0.000000,-1,0.001299,-0.191525,-0.060069,0.025612,-0.007872,-0.109207
"2019-05-06 15:50:43.454 +0000",1557157843.454431,-0.138182,-0.032382,-1.126344,-0.137670,0.032377,-0.989949,0.000000,0.000000,0.000000,-1,-0.052860,-0.001384,-0.085597,-0.010599,-0.006482,-0.193172
"2019-05-06 15:50:43.474 +0000",1557157843.474327,-0.131913,-0.033936,-1.128142,-0.131455,0.033930,-0.990741,0.000000,0.000000,0.000000,-1,-0.081000,0.890286,-0.059516,-0.071197,0.031317,-0.044812
"2019-05-06 15:50:43.494 +0000",1557157843.494225,-0.108436,-0.033075,-1.128626,-0.108165,0.033068,-0.993583,0.000000,0.000000,0.000000,-1,0.168692,1.437796,0.012990,-0.051839,0.059934,0.076774
"2019-05-06 15:50:43.514 +0000",1557157843.514122,-0.086536,-0.027240,-1.127701,-0.086396,0.027237,-0.995889,0.000000,0.000000,0.000000,-1,0.411283,0.595405,-0.003331,0.006775,0.060791,0.082528
"2019-05-06 15:50:43.534 +0000",1557157843.534020,-0.084079,-0.018579,-1.127266,-0.083966,0.018578,-0.996295,0.000000,0.000000,0.000000,-1,0.361148,-0.098750,0.007957,0.016827,0.035255,0.104877
"2019-05-06 15:50:43.554 +0000",1557157843.553916,-0.083300,-0.015106,-1.126768,-0.083194,0.015105,-0.996419,0.000000,0.000000,0.000000,-1,0.003177,0.201349,0.003555,0.045032,0.038758,0.046727
"2019-05-06 15:50:43.574 +0000",1557157843.573816,-0.077218,-0.016356,-1.127163,-0.077131,0.016355,-0.996887,0.000000,0.000000,0.000000,-1,-0.084597,0.335460,-0.042592,0.012327,-0.019956,-0.020997
"2019-05-06 15:50:43.594 +0000",1557157843.593710,-0.072554,-0.017016,-1.128381,-0.072479,0.017015,-0.997225,0.000000,0.000000,0.000000,-1,0.033074,0.134087,-0.066675,0.002136,-0.032503,-0.030256
"2019-05-06 15:50:43.614 +0000",1557157843.613608,-0.071488,-0.014322,-1.129775,-0.071420,0.014322,-0.997344,0.000000,0.000000,0.000000,-1,0.213433,-0.020022,-0.097645,0.001275,-0.017908,0.062056
"2019-05-06 15:50:43.634 +0000",1557157843.633506,-0.073308,-0.009506,-1.131796,-0.073239,0.009506,-0.997269,0.000000,0.000000,0.000000,-1,0.232734,-0.139739,-0.135784,-0.013263,-0.006179,0.076035
"2019-05-06 15:50:43.653 +0000",1557157843.653404,-0.076454,-0.005231,-1.134512,-0.076379,0.005231,-0.997065,0.000000,0.000000,0.000000,-1,0.164273,-0.166346,-0.166469,0.009774,0.020602,0.033335
"2019-05-06 15:50:43.673 +0000",1557157843.673301,-0.079470,-0.002732,-1.137795,-0.079387,0.002732,-0.996840,0.000000,0.000000,0.000000,-1,0.044021,-0.120761,-0.175353,0.037898,0.031982,-0.033540
"2019-05-06 15:50:43.693 +0000",1557157843.693198,-0.079647,-0.002947,-1.140869,-0.079563,0.002947,-0.996826,0.000000,0.000000,0.000000,-1,-0.100519,0.095753,-0.122679,0.028873,0.026213,-0.044739
"2019-05-06 15:50:43.713 +0000",1557157843.713096,-0.076952,-0.005720,-1.142894,-0.076874,0.005720,-0.997024,0.000000,0.000000,0.000000,-1,-0.176380,0.165806,-0.052956,0.042054,0.019366,-0.030533
"2019-05-06 15:50:43.733 +0000",1557157843.732993,-0.074626,-0.008740,-1.143516,-0.074554,0.008740,-0.997179,0.000000,0.000000,0.000000,-1,-0.077831,0.049622,0.006128,0.050475,0.017948,-0.023222
"2019-05-06 15:50:43.753 +0000",1557157843.752890,-0.074968,-0.008935,-1.142995,-0.074895,0.008934,-0.997151,0.000000,0.000000,0.000000,-1,0.117505,-0.134039,0.042825,0.051061,0.024406,-0.005839
"2019-05-06 15:50:43.773 +0000",1557157843.772787,-0.078367,-0.005460,-1.141358,-0.078286,0.005460,-0.996916,0.000000,0.000000,0.000000,-1,0.261892,-0.262639,0.103501,0.037041,0.030429,0.024443
"2019-05-06 15:50:43.793 +0000",1557157843.792684,-0.083674,-0.000923,-1.137741,-0.083577,0.000923,-0.996501,0.000000,0.000000,0.000000,-1,0.235171,-0.338960,0.216828,0.010579,0.028892,0.026790
"2019-05-06 15:50:43.813 +0000",1557157843.812582,-0.088879,0.001298,-1.133041,-0.088762,-0.001298,-0.996052,0.000000,0.000000,0.000000,-1,0.058445,-0.279708,0.201951,0.000459,0.017595,0.021275
"2019-05-06 15:50:43.832 +0000",1557157843.832479,-0.091680,-0.000441,-1.129527,-0.091552,0.000441,-0.995800,0.000000,0.000000,0.000000,-1,-0.124322,-0.116549,0.167566,-0.011888,0.015291,0.013241
"2019-05-06 15:50:43.852 +0000",1557157843.852376,-0.091651,-0.004466,-1.126787,-0.091522,0.004466,-0.995793,0.000000,0.000000,0.000000,-1,-0.176225,-0.010846,0.136847,-0.025315,0.015065,0.004964
"2019-05-06 15:50:43.872 +0000",1557157843.872274,-0.091585,-0.008324,-1.124595,-0.091454,0.008324,-0.995775,0.000000,0.000000,0.000000,-1,-0.123846,-0.033877,0.114972,-0.025703,0.018959,0.000215
"2019-05-06 15:50:43.892 +0000",1557157843.892172,-0.092613,-0.009640,-1.122596,-0.092477,0.009640,-0.995668,0.000000,0.000000,0.000000,-1,0.027671,-0.081861,0.098505,-0.023429,0.017429,0.011568
"2019-05-06 15:50:43.912 +0000",1557157843.912068,-0.095112,-0.008256,-1.120451,-0.094965,0.008256,-0.995446,0.000000,0.000000,0.000000,-1,0.128260,-0.163494,0.105091,-0.020758,0.006270,0.019113
"2019-05-06 15:50:43.932 +0000",1557157843.931966,-0.099012,-0.005997,-1.117913,-0.098848,0.005997,-0.995084,0.000000,0.000000,0.000000,-1,0.126710,-0.181819,0.129730,-0.019285,0.002075,0.014036
"2019-05-06 15:50:43.952 +0000",1557157843.951863,-0.102363,-0.004777,-1.114834,-0.102184,0.004777,-0.994754,0.000000,0.000000,0.000000,-1,0.046814,-0.127453,0.158748,-0.017217,0.001814,0.004947
"2019-05-06 15:50:43.972 +0000",1557157843.971761,-0.104876,-0.005700,-1.111455,-0.104682,0.005700,-0.994489,0.000000,0.000000,0.000000,-1,-0.064635,-0.117533,0.187493,-0.011498,-0.005028,-0.003878
"2019-05-06 15:50:43.992 +0000",1557157843.991657,-0.107694,-0.008168,-1.107748,-0.107482,0.008168,-0.994173,0.000000,0.000000,0.000000,-1,-0.110126,-0.152261,0.200971,-0.008027,-0.006321,0.001803
"2019-05-06 15:50:44.012 +0000",1557157844.011556,-0.111260,-0.010440,-1.104285,-0.111025,0.010440,-0.993763,0.000000,0.000000,0.000000,-1,-0.070706,-0.192156,0.171487,-0.004805,-0.006030,0.013645
"2019-05-06 15:50:44.031 +0000",1557157844.031453,-0.115328,-0.011650,-1.101043,-0.115065,0.011649,-0.993290,0.000000,0.000000,0.000000,-1,-0.020594,-0.207817,0.169919,-0.012132,-0.018989,0.018634
"2019-05-06 15:50:44.051 +0000",1557157844.051351,-0.119378,-0.012034,-1.097707,-0.119086,0.012033,-0.992811,0.000000,0.000000,0.000000,-1,-0.004379,-0.198389,0.164728,-0.019265,-0.023798,0.012617
"2019-05-06 15:50:44.071 +0000",1557157844.071248,-0.122659,-0.012620,-1.094607,-0.122342,0.012620,-0.992408,0.000000,0.000000,0.000000,-1,-0.036721,-0.133765,0.159986,-0.029589,-0.009568,0.000907
"2019-05-06 15:50:44.091 +0000",1557157844.091146,-0.124226,-0.014140,-1.091637,-0.123894,0.014140,-0.992195,0.000000,0.000000,0.000000,-1,-0.089050,-0.038943,0.157119,-0.040474,-0.002223,-0.010582
"2019-05-06 15:50:44.111 +0000",1557157844.111042,-0.124293,-0.016134,-1.088637,-0.123957,0.016134,-0.992156,0.000000,0.000000,0.000000,-1,-0.089555,0.018701,0.168797,-0.039389,0.008463,0.000915
"2019-05-06 15:50:44.131 +0000",1557157844.130939,-0.124178,-0.017275,-1.085541,-0.123841,0.017275,-0.992152,0.000000,0.000000,0.000000,-1,-0.019021,0.001758,0.156747,-0.029373,0.006621,0.009760
"2019-05-06 15:50:44.151 +0000",1557157844.150838,-0.124907,-0.016719,-1.082450,-0.124565,0.016718,-0.992071,0.000000,0.000000,0.000000,-1,0.086306,-0.051007,0.152631,-0.022728,0.002478,0.018896
"2019-05-06 15:50:44.171 +0000",1557157844.170734,-0.126644,-0.014789,-1.079062,-0.126292,0.014788,-0.991883,0.000000,0.000000,0.000000,-1,0.098189,-0.029888,0.165575,-0.017995,0.003751,0.009537
"2019-05-06 15:50:44.191 +0000",1557157844.190632,-0.124286,-0.016208,-1.075842,-0.123950,0.016208,-0.992156,0.000000,0.000000,0.000000,-1,-0.182620,0.275582,0.154513,-0.028242,-0.008090,-0.023484
"2019-05-06 15:50:44.211 +0000",1557157844.210529,-0.119784,-0.021036,-1.074256,-0.119471,0.021034,-0.992615,0.000000,0.000000,0.000000,-1,-0.213115,0.148402,0.062306,0.006404,0.010841,0.013550
"2019-05-06 15:50:44.230 +0000",1557157844.230428,-0.119659,-0.024034,-1.072792,-0.119339,0.024032,-0.992563,0.000000,0.000000,0.000000,-1,-0.069766,-0.049799,0.142357,-0.028167,-0.021255,0.022134
"2019-05-06 15:50:44.250 +0000",1557157844.250324,-0.120848,-0.024733,-1.069903,-0.120517,0.024731,-0.992403,0.000000,0.000000,0.000000,-1,0.019240,-0.037121,0.136885,-0.017422,-0.019039,0.009630
"2019-05-06 15:50:44.270 +0000",1557157844.270221,-0.122974,-0.023902,-1.067530,-0.122629,0.023900,-0.992165,0.000000,0.000000,0.000000,-1,0.062114,-0.158208,0.093655,-0.000326,-0.014332,0.001335
"2019-05-06 15:50:44.290 +0000",1557157844.290118,-0.125942,-0.023284,-1.065920,-0.125575,0.023282,-0.991811,0.000000,0.000000,0.000000,-1,0.012887,-0.102736,0.056623,-0.011403,-0.004392,0.009191
"2019-05-06 15:50:44.310 +0000",1557157844.310017,-0.125369,-0.023565,-1.065852,-0.125006,0.023563,-0.991876,0.000000,0.000000,0.000000,-1,-0.042395,0.189546,-0.050456,-0.036630,0.010617,0.026910
"2019-05-06 15:50:44.330 +0000",1557157844.329914,-0.119299,-0.025268,-1.068798,-0.118978,0.025265,-0.992575,0.000000,0.000000,0.000000,-1,-0.210122,0.414402,-0.222897,-0.049235,0.004108,0.000540
"2019-05-06 15:50:44.350 +0000",1557157844.349811,-0.110885,-0.029766,-1.075078,-0.110609,0.029761,-0.993418,0.000000,0.000000,0.000000,-1,-0.289890,0.447294,-0.330893,-0.033373,0.010736,-0.012151
"2019-05-06 15:50:44.370 +0000",1557157844.369709,-0.103517,-0.033892,-1.082395,-0.103273,0.033885,-0.994076,0.000000,0.000000,0.000000,-1,-0.203487,0.323258,-0.345808,-0.027037,0.007298,-0.009693
"2019-05-06 15:50:44.390 +0000",1557157844.389605,-0.100015,-0.035682,-1.089752,-0.099785,0.035674,-0.994369,0.000000,0.000000,0.000000,-1,-0.049423,0.117146,-0.376980,-0.013572,0.007584,0.006897
"2019-05-06 15:50:44.410 +0000",1557157844.409503,-0.100260,-0.034335,-1.097923,-0.100033,0.034328,-0.994392,0.000000,0.000000,0.000000,-1,0.089022,-0.001858,-0.451293,0.006634,0.010761,0.032493
"2019-05-06 15:50:44.429 +0000",1557157844.429399,-0.101370,-0.030941,-1.106771,-0.101148,0.030936,-0.994390,0.000000,0.000000,0.000000,-1,0.150885,-0.010272,-0.443108,0.007398,0.002053,0.026388
"2019-05-06 15:50:44.449 +0000",1557157844.449285,-0.101736,-0.027297,-1.114012,-0.101522,0.027294,-0.994459,0.000000,0.000000,0.000000,-1,0.149920,0.023032,-0.314688,-0.010370,-0.004222,0.007383
"2019-05-06 15:50:44.469 +0000",1557157844.469182,-0.102085,-0.024326,-1.118968,-0.101878,0.024324,-0.994500,0.000000,0.000000,0.000000,-1,0.107529,-0.029489,-0.210137,-0.009740,-0.004869,0.000283
"2019-05-06 15:50:44.489 +0000",1557157844.489080,-0.102830,-0.022590,-1.121787,-0.102623,0.022589,-0.994464,0.000000,0.000000,0.000000,-1,0.076283,-0.034152,-0.093765,-0.009148,-0.008474,0.011477
"2019-05-06 15:50:44.509 +0000",1557157844.508976,-0.103884,-0.021142,-1.122698,-0.103674,0.021140,-0.994387,0.000000,0.000000,0.000000,-1,0.079207,-0.082812,-0.020846,0.003805,-0.009482,0.013903
"2019-05-06 15:50:44.529 +0000",1557157844.528873,-0.105747,-0.019727,-1.122946,-0.105529,0.019726,-0.994220,0.000000,0.000000,0.000000,-1,0.060010,-0.076141,-0.018925,-0.020371,-0.010525,0.003071
"2019-05-06 15:50:44.549 +0000",1557157844.548771,-0.107026,-0.018660,-1.123246,-0.106803,0.018659,-0.994105,0.000000,0.000000,0.000000,-1,0.047436,-0.059884,-0.025513,-0.015404,-0.010327,-0.007284
"2019-05-06 15:50:44.569 +0000",1557157844.568669,-0.107911,-0.017409,-1.123616,-0.107686,0.017408,-0.994033,0.000000,0.000000,0.000000,-1,0.080336,0.004876,-0.028471,-0.017162,-0.006681,0.001189
"2019-05-06 15:50:44.589 +0000",1557157844.588566,-0.106648,-0.015253,-1.124111,-0.106433,0.015253,-0.994203,0.000000,0.000000,0.000000,-1,0.109433,0.101817,-0.040088,-0.017361,-0.004480,0.012498
"2019-05-06 15:50:44.608 +0000",1557157844.608464,-0.105161,-0.013371,-1.124781,-0.104958,0.013371,-0.994387,0.000000,0.000000,0.000000,-1,0.056365,0.040627,-0.048064,-0.013252,-0.007252,0.009478
"2019-05-06 15:50:44.628 +0000",1557157844.628360,-0.104990,-0.012192,-1.125819,-0.104790,0.012192,-0.994420,0.000000,0.000000,0.000000,-1,0.053852,-0.002002,-0.060870,-0.014381,-0.005981,0.012761
"2019-05-06 15:50:44.648 +0000",1557157844.648258,-0.105767,-0.010712,-1.126807,-0.105564,0.010712,-0.994355,0.000000,0.000000,0.000000,-1,0.075580,-0.056878,-0.053049,-0.009502,-0.008362,-0.000396
"2019-05-06 15:50:44.668 +0000",1557157844.668155,-0.107097,-0.009018,-1.127636,-0.106888,0.009018,-0.994230,0.000000,0.000000,0.000000,-1,0.089633,-0.037891,-0.045431,0.001008,-0.005661,-0.001116
"2019-05-06 15:50:44.688 +0000",1557157844.688052,-0.107090,-0.006855,-1.128436,-0.106883,0.006855,-0.994248,0.000000,0.000000,0.000000,-1,0.114393,0.048469,-0.063503,0.000560,0.008571,0.022324
"2019-05-06 15:50:44.708 +0000",1557157844.707949,-0.106527,-0.004483,-1.129756,-0.106325,0.004483,-0.994321,0.000000,0.000000,0.000000,-1,0.095886,-0.000263,-0.088252,-0.002837,0.018237,0.017774
"2019-05-06 15:50:44.728 +0000",1557157844.727847,-0.107332,-0.002942,-1.131352,-0.107125,0.002942,-0.994241,0.000000,0.000000,0.000000,-1,0.045776,-0.070145,-0.082262,-0.005988,0.010165,-0.002677
"2019-05-06 15:50:44.748 +0000",1557157844.747745,-0.108907,-0.001985,-1.132762,-0.108691,0.001985,-0.994074,0.000000,0.000000,0.000000,-1,0.046819,-0.063815,-0.072624,-0.004819,0.003477,-0.008948
"2019-05-06 15:50:44.768 +0000",1557157844.767641,-0.109645,-0.000803,-1.134155,-0.109425,0.000803,-0.993995,0.000000,0.000000,0.000000,-1,0.060245,-0.021196,-0.080042,0.007634,0.004446,0.001609
"2019-05-06 15:50:44.788 +0000",1557157844.787540,-0.110124,0.000138,-1.135711,-0.109901,-0.000138,-0.993942,0.000000,0.000000,0.000000,-1,0.035558,-0.035750,-0.088854,-0.000420,0.015091,0.014099
"2019-05-06 15:50:44.807 +0000",1557157844.807437,-0.110950,0.000718,-1.137539,-0.110723,-0.000718,-0.993851,0.000000,0.000000,0.000000,-1,0.019482,-0.044027,-0.095440,-0.006434,0.015107,0.017823
"2019-05-06 15:50:44.827 +0000",1557157844.827335,-0.112041,0.001225,-1.139331,-0.111806,-0.001225,-0.993729,0.000000,0.000000,0.000000,-1,-0.022082,-0.139486,-0.117153,-0.007029,0.002400,0.000184
"2019-05-06 15:50:44.847 +0000",1557157844.847231,-0.114870,0.000224,-1.142076,-0.114618,-0.000224,-0.993410,0.000000,0.000000,0.000000,-1,-0.060937,-0.087559,-0.127299,0.001809,0.010143,0.010423
"2019-05-06 15:50:44.867 +0000",1557157844.867128,-0.115285,0.000007,-1.144603,-0.115030,-0.000007,-0.993362,0.000000,0.000000,0.000000,-1,0.021650,0.020298,-0.126571,-0.009558,-0.003228,0.010162
"2019-05-06 15:50:44.887 +0000",1557157844.887026,-0.115110,0.001107,-1.147166,-0.114855,-0.001107,-0.993382,0.000000,0.000000,0.000000,-1,0.061978,-0.020779,-0.142124,-0.003064,-0.003440,0.002476
"2019-05-06 15:50:44.907 +0000",1557157844.906922,-0.116231,0.002356,-1.149888,-0.115969,-0.002356,-0.993250,0.000000,0.000000,0.000000,-1,0.027205,-0.065187,-0.141362,-0.003797,-0.000146,0.006189
"2019-05-06 15:50:44.927 +0000",1557157844.926821,-0.116883,0.002490,-1.152541,-0.116616,-0.002490,-0.993174,0.000000,0.000000,0.000000,-1,-0.029864,0.007125,-0.126043,-0.012244,0.001452,0.024226
"2019-05-06 15:50:44.947 +0000",1557157844.946718,-0.116625,0.001760,-1.155086,-0.116360,-0.001760,-0.993205,0.000000,0.000000,0.000000,-1,-0.074817,0.008802,-0.122254,-0.012378,0.004659,0.019145
"2019-05-06 15:50:44.967 +0000",1557157844.966616,-0.116970,0.000557,-1.157688,-0.116704,-0.000557,-0.993167,0.000000,0.000000,0.000000,-1,-0.072147,-0.037191,-0.123221,-0.010448,0.012063,0.001406
"2019-05-06 15:50:44.987 +0000",1557157844.986513,-0.117663,-0.000151,-1.160184,-0.117392,0.000151,-0.993086,0.000000,0.000000,0.000000,-1,-0.026047,-0.022927,-0.116316,-0.010614,0.010667,-0.003252
"2019-05-06 15:50:45.006 +0000",1557157845.006410,-0.117907,-0.000119,-1.162382,-0.117634,0.000119,-0.993057,0.000000,0.000000,0.000000,-1,-0.003354,0.007658,-0.103269,-0.008525,0.003726,-0.013764
"2019-05-06 15:50:45.026 +0000",1557157845.026307,-0.117625,0.000253,-1.164419,-0.117354,-0.000253,-0.993090,0.000000,0.000000,0.000000,-1,0.011860,0.025629,-0.105273,-0.005540,-0.001730,-0.004804
"2019-05-06 15:50:45.046 +0000",1557157845.046205,-0.117470,0.000740,-1.166407,-0.117200,-0.000740,-0.993108,0.000000,0.000000,0.000000,-1,0.018941,-0.005493,-0.101933,-0.005756,0.000008,0.008397
"2019-05-06 15:50:45.066 +0000",1557157845.066102,-0.118077,0.001069,-1.168394,-0.117802,-0.001069,-0.993037,0.000000,0.000000,0.000000,-1,-0.005074,-0.045771,-0.102130,-0.007182,0.006044,0.011484
"2019-05-06 15:50:45.086 +0000",1557157845.086000,-0.119162,0.000772,-1.170318,-0.118880,-0.000772,-0.992908,0.000000,0.000000,0.000000,-1,-0.042819,-0.047563,-0.075772,-0.009126,0.005868,0.010700
"2019-05-06 15:50:45.106 +0000",1557157845.105897,-0.119816,-0.000169,-1.171814,-0.119529,0.000169,-0.992831,0.000000,0.000000,0.000000,-1,-0.069301,-0.016265,-0.065406,-0.009865,0.008772,0.009676
"2019-05-06 15:50:45.126 +0000",1557157845.125794,-0.119962,-0.001495,-1.173216,-0.119675,0.001495,-0.992812,0.000000,0.000000,0.000000,-1,-0.075523,0.003041,-0.062293,-0.011566,0.002824,0.002272
"2019-05-06 15:50:45.146 +0000",1557157845.145692,-0.120055,-0.002696,-1.174706,-0.119766,0.002696,-0.992798,0.000000,0.000000,0.000000,-1,-0.060615,-0.013121,-0.073881,-0.007294,0.001516,0.001969
"2019-05-06 15:50:45.166 +0000",1557157845.165588,-0.120771,-0.003439,-1.176510,-0.120477,0.003439,-0.992710,0.000000,0.000000,0.000000,-1,-0.030804,-0.048627,-0.100265,-0.005729,0.004831,0.006336
"2019-05-06 15:50:45.185 +0000",1557157845.185486,-0.122059,-0.003409,-1.178762,-0.121755,0.003409,-0.992554,0.000000,0.000000,0.000000,-1,0.008844,-0.061865,-0.121224,-0.003977,0.008218,0.007676
"2019-05-06 15:50:45.205 +0000",1557157845.205383,-0.123243,-0.002687,-1.180956,-0.122931,0.002687,-0.992412,0.000000,0.000000,0.000000,-1,0.030255,-0.046249,-0.104955,-0.011209,0.007582,0.011897
"2019-05-06 15:50:45.225 +0000",1557157845.225282,-0.123917,-0.002132,-1.182626,-0.123600,0.002132,-0.992330,0.000000,0.000000,0.000000,-1,-0.011363,-0.007422,-0.071211,-0.008953,0.003957,0.003408
"2019-05-06 15:50:45.245 +0000",1557157845.245178,-0.123176,-0.003100,-1.185551,-0.122864,0.003100,-0.992419,0.000000,0.000000,0.000000,-1,-0.126831,0.090043,-0.170066,0.025620,0.007932,0.002398
"2019-05-06 15:50:45.265 +0000",1557157845.265076,-0.120011,-0.006685,-1.185874,-0.119720,0.006685,-0.992785,0.000000,0.000000,0.000000,-1,-0.221189,0.207153,0.082472,-0.074783,-0.018770,0.012622
"2019-05-06 15:50:45.285 +0000",1557157845.284974,-0.117790,-0.011106,-1.186904,-0.117510,0.011105,-0.993010,0.000000,0.000000,0.000000,-1,-0.202723,0.000650,-0.075455,0.044924,0.017871,-0.000170
"2019-05-06 15:50:45.305 +0000",1557157845.304870,-0.119107,-0.013164,-1.187802,-0.118815,0.013164,-0.992829,0.000000,0.000000,0.000000,-1,-0.009633,-0.081601,-0.015392,-0.012471,0.001241,0.018189
"2019-05-06 15:50:45.325 +0000",1557157845.324768,-0.120336,-0.011803,-1.188108,-0.120037,0.011802,-0.992699,0.000000,0.000000,0.000000,-1,0.111577,-0.056576,-0.017320,-0.001865,0.013482,0.014596
"2019-05-06 15:50:45.345 +0000",1557157845.344665,-0.121718,-0.009476,-1.188187,-0.121413,0.009476,-0.992557,0.000000,0.000000,0.000000,-1,0.097861,-0.043531,-0.020703,-0.001207,0.009644,-0.005658
"2019-05-06 15:50:45.365 +0000",1557157845.364532,-0.122199,-0.008050,-1.188372,-0.121891,0.008050,-0.992511,0.000000,0.000000,0.000000,-1,0.060568,-0.031244,-0.021131,-0.005764,0.006095,-0.000897
"2019-05-06 15:50:45.384 +0000",1557157845.384430,-0.122682,-0.007119,-1.188672,-0.122371,0.007119,-0.992459,0.000000,0.000000,0.000000,-1,0.045723,-0.020344,-0.021311,-0.006703,0.005637,0.008313
"2019-05-06 15:50:45.404 +0000",1557157845.404327,-0.123309,-0.006231,-1.188897,-0.122994,0.006231,-0.992388,0.000000,0.000000,0.000000,-1,0.051727,-0.048274,-0.013705,-0.009803,0.002817,0.008349
"2019-05-06 15:50:45.424 +0000",1557157845.424224,-0.124565,-0.005280,-1.189056,-0.124242,0.005280,-0.992238,0.000000,0.000000,0.000000,-1,0.049351,-0.064305,-0.009422,-0.002330,0.002106,0.001881
"2019-05-06 15:50:45.444 +0000",1557157845.444128,-0.125233,-0.004554,-1.189126,-0.124904,0.004554,-0.992158,0.000000,0.000000,0.000000,-1,0.029832,0.001191,-0.011883,-0.003117,0.003350,0.010148
"2019-05-06 15:50:45.464 +0000",1557157845.464025,-0.125220,-0.003994,-1.189341,-0.124892,0.003994,-0.992162,0.000000,0.000000,0.000000,-1,0.032958,-0.010573,-0.017183,0.000853,0.004994,0.011556
"2019-05-06 15:50:45.484 +0000",1557157845.483922,-0.125500,-0.003551,-1.189585,-0.125170,0.003551,-0.992129,0.000000,0.000000,0.000000,-1,0.000983,0.005861,-0.010065,-0.004804,0.001255,0.010409
"2019-05-06 15:50:45.504 +0000",1557157845.503819,-0.124500,-0.004356,-1.189832,-0.124177,0.004356,-0.992251,0.000000,0.000000,0.000000,-1,-0.096228,0.113009,-0.003807,-0.009825,-0.002601,0.015169
"2019-05-06 15:50:45.524 +0000",1557157845.523716,-0.120616,-0.007847,-1.190135,-0.120320,0.007847,-0.992704,0.000000,0.000000,0.000000,-1,-0.243427,0.251804,0.010419,-0.021251,-0.003117,0.002515
"2019-05-06 15:50:45.544 +0000",1557157845.543615,-0.117227,-0.011120,-1.190356,-0.116951,0.011119,-0.993075,0.000000,0.000000,0.000000,-1,-0.023054,0.071261,0.009910,-0.018776,0.007740,0.004870
"2019-05-06 15:50:45.564 +0000",1557157845.563512,-0.117097,-0.009318,-1.190169,-0.116825,0.009318,-0.993109,0.000000,0.000000,0.000000,-1,0.136402,-0.022845,0.000028,-0.024411,-0.009211,0.037420
"2019-05-06 15:50:45.583 +0000",1557157845.583409,-0.118814,-0.007681,-1.189915,-0.118531,0.007681,-0.992921,0.000000,0.000000,0.000000,-1,-0.014640,-0.142458,-0.015348,-0.020354,0.061700,-0.006423
"2019-05-06 15:50:45.603 +0000",1557157845.603306,-0.120509,-0.009600,-1.190510,-0.120212,0.009600,-0.992702,0.000000,0.000000,0.000000,-1,-0.185651,0.040676,-0.026081,-0.014843,-0.021639,0.051952
"2019-05-06 15:50:45.623 +0000",1557157845.623203,-0.116740,-0.014292,-1.191990,-0.116464,0.014292,-0.993092,0.000000,0.000000,0.000000,-1,-0.225446,0.355698,-0.054866,0.019616,-0.043802,-0.026073
"2019-05-06 15:50:45.643 +0000",1557157845.643102,-0.109206,-0.016531,-1.193322,-0.108974,0.016530,-0.993907,0.000000,0.000000,0.000000,-1,-0.006888,0.300174,-0.045962,0.002010,0.019206,-0.042455
"2019-05-06 15:50:45.663 +0000",1557157845.662998,-0.107781,-0.014787,-1.193636,-0.107561,0.014786,-0.994089,0.000000,0.000000,0.000000,-1,0.172117,-0.093770,-0.017668,-0.019468,0.015579,-0.029013
"2019-05-06 15:50:45.683 +0000",1557157845.682896,-0.111676,-0.011229,-1.193784,-0.111437,0.011229,-0.993708,0.000000,0.000000,0.000000,-1,0.169816,-0.209080,-0.031425,0.015031,-0.004744,0.028300
"2019-05-06 15:50:45.703 +0000",1557157845.702794,-0.114417,-0.008823,-1.194131,-0.114163,0.008823,-0.993423,0.000000,0.000000,0.000000,-1,0.016357,-0.062668,-0.023704,0.012798,-0.023761,0.053359
"2019-05-06 15:50:45.723 +0000",1557157845.722691,-0.114243,-0.010301,-1.194787,-0.113989,0.010301,-0.993429,0.000000,0.000000,0.000000,-1,-0.156387,0.065968,-0.033297,0.006537,-0.017564,0.003377
"2019-05-06 15:50:45.743 +0000",1557157845.742587,-0.111949,-0.013753,-1.195942,-0.111705,0.013752,-0.993646,0.000000,0.000000,0.000000,-1,-0.145577,0.162039,-0.036547,-0.000326,-0.014439,-0.014242
"2019-05-06 15:50:45.762 +0000",1557157845.762485,-0.109027,-0.015278,-1.196578,-0.108799,0.015277,-0.993946,0.000000,0.000000,0.000000,-1,-0.009699,0.093686,-0.013536,-0.009457,-0.000278,-0.015545
"2019-05-06 15:50:45.782 +0000",1557157845.782382,-0.108762,-0.014002,-1.196619,-0.108537,0.014002,-0.993994,0.000000,0.000000,0.000000,-1,0.109189,-0.063069,-0.001275,-0.007201,0.022436,0.001471
"2019-05-06 15:50:45.802 +0000",1557157845.802280,-0.110799,-0.011254,-1.196218,-0.110565,0.011254,-0.993805,0.000000,0.000000,0.000000,-1,0.135123,-0.121235,0.009811,-0.017990,0.023613,0.024353
"2019-05-06 15:50:45.822 +0000",1557157845.822177,-0.112478,-0.009324,-1.195702,-0.112236,0.009324,-0.993638,0.000000,0.000000,0.000000,-1,0.041887,-0.036613,0.019361,-0.018700,0.018050,0.021348
"2019-05-06 15:50:45.842 +0000",1557157845.842075,-0.112081,-0.009635,-1.195311,-0.111842,0.009634,-0.993679,0.000000,0.000000,0.000000,-1,-0.054196,0.071619,0.021346,-0.014516,0.014276,-0.008030
"2019-05-06 15:50:45.862 +0000",1557157845.861972,-0.110373,-0.011077,-1.195206,-0.110142,0.011077,-0.993854,0.000000,0.000000,0.000000,-1,-0.054943,0.082448,0.003119,-0.009853,0.012986,-0.016003
"2019-05-06 15:50:45.882 +0000",1557157845.881869,-0.109561,-0.011783,-1.195344,-0.109334,0.011783,-0.993935,0.000000,0.000000,0.000000,-1,0.004085,0.002564,-0.003601,-0.002864,0.008923,0.011620
"2019-05-06 15:50:45.902 +0000",1557157845.901767,-0.110444,-0.011392,-1.195315,-0.110212,0.011392,-0.993843,0.000000,0.000000,0.000000,-1,0.043903,-0.062173,0.002293,-0.003008,0.004432,0.025352
"2019-05-06 15:50:45.922 +0000",1557157845.921663,-0.111704,-0.010614,-1.195088,-0.111466,0.010613,-0.993712,0.000000,0.000000,0.000000,-1,0.036616,-0.039669,0.008601,0.003021,0.002402,0.011137
"2019-05-06 15:50:45.942 +0000",1557157845.941562,-0.112049,-0.010371,-1.194855,-0.111809,0.010370,-0.993676,0.000000,0.000000,0.000000,-1,-0.002419,0.006841,0.009169,0.004631,0.003332,0.001336
"2019-05-06 15:50:45.961 +0000",1557157845.961458,-0.111733,-0.010934,-1.194717,-0.111494,0.010934,-0.993705,0.000000,0.000000,0.000000,-1,-0.038589,0.024449,0.009816,0.006926,0.003898,0.002799
"2019-05-06 15:50:45.981 +0000",1557157845.981356,-0.111263,-0.011765,-1.194704,-0.111026,0.011765,-0.993748,0.000000,0.000000,0.000000,-1,-0.032079,0.025479,0.002390,0.013583,0.002182,0.005085
"2019-05-06 15:50:46.001 +0000",1557157846.001253,-0.110947,-0.012081,-1.194619,-0.110711,0.012081,-0.993779,0.000000,0.000000,0.000000,-1,0.000653,-0.001777,0.012429,0.003045,0.005314,0.005651
"2019-05-06 15:50:46.021 +0000",1557157846.021151,-0.111344,-0.011922,-1.194257,-0.111106,0.011922,-0.993737,0.000000,0.000000,0.000000,-1,0.019391,-0.037378,0.021257,0.002036,0.006465,-0.001029
"2019-05-06 15:50:46.041 +0000",1557157846.041047,-0.112000,-0.011454,-1.193680,-0.111759,0.011454,-0.993669,0.000000,0.000000,0.000000,-1,0.034451,-0.023749,0.028895,-0.000012,0.007818,0.005342
"2019-05-06 15:50:46.061 +0000",1557157846.060946,-0.112352,-0.010885,-1.192978,-0.112109,0.010885,-0.993636,0.000000,0.000000,0.000000,-1,0.026920,-0.022611,0.034164,-0.004712,0.007609,0.008849
"2019-05-06 15:50:46.081 +0000",1557157846.080842,-0.112842,-0.010774,-1.192203,-0.112596,0.010774,-0.993582,0.000000,0.000000,0.000000,-1,-0.004253,-0.028636,0.041328,-0.006728,0.007796,0.005225
"2019-05-06 15:50:46.101 +0000",1557157846.100740,-0.113253,-0.011269,-1.191367,-0.113004,0.011269,-0.993531,0.000000,0.000000,0.000000,-1,-0.023396,-0.014506,0.046449,-0.003817,0.010063,0.007614
"2019-05-06 15:50:46.121 +0000",1557157846.120638,-0.113445,-0.011795,-1.190501,-0.113194,0.011795,-0.993503,0.000000,0.000000,0.000000,-1,-0.009444,-0.012551,0.044457,-0.003032,0.011414,0.008106
"2019-05-06 15:50:46.141 +0000",1557157846.140534,-0.113927,-0.011830,-1.189662,-0.113672,0.011830,-0.993448,0.000000,0.000000,0.000000,-1,0.016037,-0.035307,0.037278,-0.001211,0.012920,0.004953
"2019-05-06 15:50:46.160 +0000",1557157846.160432,-0.114664,-0.011407,-1.188847,-0.114405,0.011407,-0.993369,0.000000,0.000000,0.000000,-1,0.033150,-0.034488,0.038534,-0.001669,0.014274,0.008566
"2019-05-06 15:50:46.180 +0000",1557157846.180328,-0.115320,-0.010959,-1.187991,-0.115058,0.010959,-0.993298,0.000000,0.000000,0.000000,-1,0.024620,-0.032229,0.038437,0.000601,0.011990,0.006711
"2019-05-06 15:50:46.200 +0000",1557157846.200227,-0.116073,-0.010811,-1.187232,-0.115806,0.010811,-0.993213,0.000000,0.000000,0.000000,-1,0.008545,-0.039445,0.032920,-0.001549,0.010002,-0.000287
"2019-05-06 15:50:46.220 +0000",1557157846.220125,-0.116760,-0.010874,-1.186606,-0.116488,0.010874,-0.993133,0.000000,0.000000,0.000000,-1,0.004454,-0.026538,0.029642,-0.007321,0.007497,0.001296
"2019-05-06 15:50:46.240 +0000",1557157846.240022,-0.117095,-0.010823,-1.185977,-0.116821,0.010823,-0.993094,0.000000,0.000000,0.000000,-1,0.016375,-0.011757,0.031890,-0.014038,0.006435,0.009207
"2019-05-06 15:50:46.260 +0000",1557157846.259918,-0.117595,-0.010581,-1.185332,-0.117318,0.010581,-0.993038,0.000000,0.000000,0.000000,-1,0.021423,-0.040659,0.027709,-0.012260,-0.001105,0.008327
"2019-05-06 15:50:46.280 +0000",1557157846.279816,-0.118634,-0.010392,-1.184830,-0.118349,0.010391,-0.992918,0.000000,0.000000,0.000000,-1,0.008451,-0.060712,0.017961,-0.009352,-0.011063,0.008649
"2019-05-06 15:50:46.300 +0000",1557157846.299713,-0.119810,-0.010498,-1.184557,-0.119517,0.010498,-0.992777,0.000000,0.000000,0.000000,-1,-0.011775,-0.057180,0.012381,-0.011449,-0.016189,0.010874
"2019-05-06 15:50:46.320 +0000",1557157846.319612,-0.120788,-0.010974,-1.184274,-0.120487,0.010974,-0.992654,0.000000,0.000000,0.000000,-1,-0.025438,-0.029255,0.020751,-0.012340,-0.015780,0.000039
"2019-05-06 15:50:46.340 +0000",1557157846.339508,-0.120932,-0.011400,-1.183780,-0.120629,0.011400,-0.992632,0.000000,0.000000,0.000000,-1,-0.007875,0.019574,0.033712,-0.011100,-0.013215,-0.002638
"2019-05-06 15:50:46.359 +0000",1557157846.359406,-0.120416,-0.011262,-1.183033,-0.120118,0.011261,-0.992696,0.000000,0.000000,0.000000,-1,0.024242,0.025501,0.038337,-0.005096,-0.011521,0.004323
"2019-05-06 15:50:46.379 +0000",1557157846.379304,-0.120342,-0.010504,-1.182193,-0.120045,0.010504,-0.992713,0.000000,0.000000,0.000000,-1,0.046216,-0.015429,0.038644,-0.002223,-0.011267,0.017753
"2019-05-06 15:50:46.399 +0000",1557157846.399201,-0.120963,-0.009684,-1.181258,-0.120662,0.009684,-0.992646,0.000000,0.000000,0.000000,-1,0.030981,-0.032354,0.043858,-0.002064,-0.006128,0.021348
"2019-05-06 15:50:46.419 +0000",1557157846.419098,-0.121436,-0.009539,-1.180408,-0.121133,0.009539,-0.992590,0.000000,0.000000,0.000000,-1,-0.012504,-0.004983,0.039055,0.005761,-0.000994,0.009650
"2019-05-06 15:50:46.439 +0000",1557157846.438994,-0.121209,-0.010237,-1.179839,-0.120906,0.010237,-0.992611,0.000000,0.000000,0.000000,-1,-0.052617,0.025630,0.022506,0.014811,0.000185,0.000668
"2019-05-06 15:50:46.459 +0000",1557157846.458879,-0.120732,-0.011171,-1.179843,-0.120431,0.011171,-0.992659,0.000000,0.000000,0.000000,-1,-0.039554,0.016053,-0.009456,0.014200,0.002776,-0.000719
"2019-05-06 15:50:46.479 +0000",1557157846.478777,-0.120878,-0.011403,-1.180351,-0.120576,0.011402,-0.992639,0.000000,0.000000,0.000000,-1,0.008387,-0.025048,-0.036704,0.004533,0.005566,-0.004035
"2019-05-06 15:50:46.499 +0000",1557157846.498676,-0.121383,-0.010786,-1.181137,-0.121078,0.010786,-0.992584,0.000000,0.000000,0.000000,-1,0.038523,-0.020048,-0.048160,-0.008164,0.013567,0.000565
"2019-05-06 15:50:46.519 +0000",1557157846.518573,-0.121729,-0.009900,-1.182055,-0.121423,0.009900,-0.992552,0.000000,0.000000,0.000000,-1,0.033154,-0.028469,-0.055700,-0.011176,0.011661,0.010694
"2019-05-06 15:50:46.538 +0000",1557157846.538469,-0.122587,-0.009281,-1.183300,-0.122274,0.009281,-0.992453,0.000000,0.000000,0.000000,-1,0.017963,-0.064452,-0.076151,-0.013101,0.007672,0.010077
"2019-05-06 15:50:46.558 +0000",1557157846.558367,-0.123948,-0.008833,-1.184862,-0.123627,0.008833,-0.992289,0.000000,0.000000,0.000000,-1,0.007311,-0.066393,-0.082688,-0.019058,-0.000181,0.010295
"2019-05-06 15:50:46.578 +0000",1557157846.578266,-0.124823,-0.008768,-1.186398,-0.124494,0.008768,-0.992182,0.000000,0.000000,0.000000,-1,-0.013623,-0.012772,-0.065873,-0.032778,-0.010583,0.004541
"2019-05-06 15:50:46.598 +0000",1557157846.598162,-0.124347,-0.009063,-1.187459,-0.124022,0.009062,-0.992238,0.000000,0.000000,0.000000,-1,-0.016196,0.065097,-0.038190,-0.044695,-0.019164,-0.003932
"2019-05-06 15:50:46.618 +0000",1557157846.618060,-0.122837,-0.009047,-1.187989,-0.122523,0.009047,-0.992424,0.000000,0.000000,0.000000,-1,0.020112,0.075148,-0.020678,-0.051305,-0.017531,0.000420
"2019-05-06 15:50:46.638 +0000",1557157846.637956,-0.122037,-0.008241,-1.188337,-0.121730,0.008241,-0.992529,0.000000,0.000000,0.000000,-1,0.052620,0.014874,-0.026649,-0.026921,-0.010087,0.009146
"2019-05-06 15:50:46.658 +0000",1557157846.657854,-0.122063,-0.007232,-1.188752,-0.121757,0.007232,-0.992534,0.000000,0.000000,0.000000,-1,0.028954,0.006636,-0.023682,-0.004159,-0.014815,0.018886
"2019-05-06 15:50:46.678 +0000",1557157846.677751,-0.122078,-0.007081,-1.189105,-0.121772,0.007081,-0.992533,0.000000,0.000000,0.000000,-1,-0.026727,0.009503,-0.015730,0.016791,-0.019776,0.014490
"2019-05-06 15:50:46.698 +0000",1557157846.697648,-0.122425,-0.007740,-1.189487,-0.122116,0.007740,-0.992486,0.000000,0.000000,0.000000,-1,-0.048460,-0.016927,-0.013783,0.022598,-0.018299,0.006692
"2019-05-06 15:50:46.718 +0000",1557157846.717546,-0.123052,-0.008433,-1.190014,-0.122737,0.008433,-0.992403,0.000000,0.000000,0.000000,-1,-0.032310,-0.022386,-0.029658,0.018154,-0.012568,0.008135
"2019-05-06 15:50:46.737 +0000",1557157846.737444,-0.123328,-0.008701,-1.190693,-0.123011,0.008701,-0.992367,0.000000,0.000000,0.000000,-1,-0.014888,0.005143,-0.027371,0.000926,-0.000187,0.002789
"2019-05-06 15:50:46.757 +0000",1557157846.757341,-0.122747,-0.009029,-1.190969,-0.122434,0.009028,-0.992436,0.000000,0.000000,0.000000,-1,-0.033963,0.045826,0.001263,-0.012163,0.016316,-0.010616
"2019-05-06 15:50:46.777 +0000",1557157846.777237,-0.121620,-0.009764,-1.191105,-0.121315,0.009764,-0.992566,0.000000,0.000000,0.000000,-1,-0.048830,0.048229,-0.006398,-0.003792,0.031435,-0.006351
"2019-05-06 15:50:46.797 +0000",1557157846.797136,-0.120845,-0.010331,-1.191451,-0.120545,0.010331,-0.992654,0.000000,0.000000,0.000000,-1,-0.013668,0.024313,-0.019894,-0.005142,0.036850,0.017678
"2019-05-06 15:50:46.817 +0000",1557157846.817033,-0.120456,-0.009954,-1.191961,-0.120159,0.009954,-0.992705,0.000000,0.000000,0.000000,-1,0.038761,0.014040,-0.032152,-0.003819,0.031672,0.035948
"2019-05-06 15:50:46.837 +0000",1557157846.836930,-0.120340,-0.009178,-1.192494,-0.120045,0.009177,-0.992726,0.000000,0.000000,0.000000,-1,0.024757,0.007810,-0.030154,0.008884,0.018060,0.017094
"2019-05-06 15:50:46.857 +0000",1557157846.856828,-0.120094,-0.009217,-1.193099,-0.119801,0.009217,-0.992755,0.000000,0.000000,0.000000,-1,-0.019921,0.027692,-0.031745,0.028568,0.006836,-0.006146
"2019-05-06 15:50:46.877 +0000",1557157846.876726,-0.119199,-0.010034,-1.193789,-0.118911,0.010034,-0.992854,0.000000,0.000000,0.000000,-1,-0.037818,0.054646,-0.028773,0.037185,0.005744,-0.000173
"2019-05-06 15:50:46.897 +0000",1557157846.896622,-0.118575,-0.010660,-1.194357,-0.118290,0.010659,-0.992922,0.000000,0.000000,0.000000,-1,-0.007423,0.006083,-0.024079,0.036564,0.004065,0.006395
"2019-05-06 15:50:46.917 +0000",1557157846.916519,-0.119060,-0.010470,-1.194764,-0.118773,0.010470,-0.992866,0.000000,0.000000,0.000000,-1,0.029340,-0.045784,-0.018239,0.025160,-0.000918,0.010246
"2019-05-06 15:50:46.936 +0000",1557157846.936416,-0.119866,-0.009773,-1.194933,-0.119573,0.009773,-0.992777,0.000000,0.000000,0.000000,-1,0.035779,-0.037378,-0.010687,0.012319,-0.006675,0.010142
"2019-05-06 15:50:46.956 +0000",1557157846.956314,-0.120115,-0.009139,-1.195044,-0.119822,0.009139,-0.992753,0.000000,0.000000,0.000000,-1,0.031936,-0.000980,-0.010788,-0.002157,-0.008528,0.002778
"2019-05-06 15:50:46.976 +0000",1557157846.976212,-0.119646,-0.008684,-1.195205,-0.119357,0.008684,-0.992813,0.000000,0.000000,0.000000,-1,0.016262,0.029179,-0.012080,-0.017362,-0.005907,0.002457
"2019-05-06 15:50:46.996 +0000",1557157846.996109,-0.118784,-0.008466,-1.195408,-0.118501,0.008466,-0.992918,0.000000,0.000000,0.000000,-1,0.002543,0.048584,-0.007978,-0.023162,-0.001707,0.001051
"2019-05-06 15:50:47.016 +0000",1557157847.016006,-0.117649,-0.008518,-1.195419,-0.117373,0.008518,-0.993051,0.000000,0.000000,0.000000,-1,-0.007285,0.051770,0.014394,-0.030256,0.005474,0.005640
"2019-05-06 15:50:47.036 +0000",1557157847.035904,-0.116705,-0.008667,-1.194796,-0.116436,0.008667,-0.993160,0.000000,0.000000,0.000000,-1,0.004001,0.035386,0.041312,-0.024266,0.015778,0.012325
"2019-05-06 15:50:47.056 +0000",1557157847.055801,-0.116971,-0.008507,-1.194088,-0.116700,0.008507,-0.993131,0.000000,0.000000,0.000000,-1,0.016919,-0.057709,0.029826,-0.015533,0.004127,0.000119
"2019-05-06 15:50:47.076 +0000",1557157847.075698,-0.118627,-0.008334,-1.193530,-0.118345,0.008333,-0.992938,0.000000,0.000000,0.000000,-1,0.001778,-0.072451,0.028614,-0.020037,0.000562,-0.008268
"2019-05-06 15:50:47.096 +0000",1557157847.095596,-0.119006,-0.008651,-1.192822,-0.118721,0.008651,-0.992890,0.000000,0.000000,0.000000,-1,-0.022581,0.050712,0.043137,-0.023643,-0.005889,0.015595
"2019-05-06 15:50:47.115 +0000",1557157847.115493,-0.117700,-0.009456,-1.192045,-0.117424,0.009456,-0.993037,0.000000,0.000000,0.000000,-1,-0.039501,0.066986,0.042926,-0.023369,-0.004054,0.010035
"2019-05-06 15:50:47.135 +0000",1557157847.135391,-0.117177,-0.010244,-1.191467,-0.116902,0.010244,-0.993091,0.000000,0.000000,0.000000,-1,-0.024099,-0.005766,0.021799,-0.016383,0.007289,0.001620
"2019-05-06 15:50:47.155 +0000",1557157847.155288,-0.117447,-0.010408,-1.191312,-0.117171,0.010408,-0.993057,0.000000,0.000000,0.000000,-1,0.007281,0.000393,-0.004636,-0.012132,0.019469,0.007996
"2019-05-06 15:50:47.175 +0000",1557157847.175185,-0.117158,-0.010146,-1.191515,-0.116884,0.010146,-0.993094,0.000000,0.000000,0.000000,-1,0.009970,0.037835,-0.014304,-0.014143,0.019670,-0.001642
"2019-05-06 15:50:47.195 +0000",1557157847.195082,-0.116531,-0.010097,-1.191789,-0.116262,0.010096,-0.993167,0.000000,0.000000,0.000000,-1,-0.009419,0.028475,-0.012359,-0.008647,0.015645,-0.004010
"2019-05-06 15:50:47.215 +0000",1557157847.214978,-0.115781,-0.009372,-1.192143,-0.115517,0.009372,-0.993261,0.000000,0.000000,0.000000,-1,0.161192,0.077323,-0.005220,-0.010963,0.072674,-0.010080
"2019-05-06 15:50:47.235 +0000",1557157847.234879,-0.114323,-0.001659,-1.190640,-0.114074,0.001659,-0.993471,0.000000,0.000000,0.000000,-1,0.546991,-0.093077,0.043174,-0.042558,0.065190,-0.087248
"2019-05-06 15:50:47.255 +0000",1557157847.254774,-0.119220,0.009784,-1.189182,-0.118932,-0.009784,-0.992854,0.000000,0.000000,0.000000,-1,0.567549,-0.410286,-0.033176,0.029897,0.010928,0.033534
"2019-05-06 15:50:47.275 +0000",1557157847.274673,-0.129633,0.018069,-1.189180,-0.129249,-0.018068,-0.991448,0.000000,0.000000,0.000000,-1,0.245693,-0.508181,-0.057950,0.011420,-0.064955,0.141274
"2019-05-06 15:50:47.295 +0000",1557157847.294569,-0.134800,0.017483,-1.189300,-0.134372,-0.017482,-0.990777,0.000000,0.000000,0.000000,-1,-0.315355,-0.002923,0.049661,-0.005841,-0.104847,0.112572
"2019-05-06 15:50:47.314 +0000",1557157847.314467,-0.129922,0.005965,-1.190715,-0.129554,-0.005965,-0.991554,0.000000,0.000000,0.000000,-1,-0.744999,0.463620,-0.070360,-0.000420,-0.029878,-0.108559
"2019-05-06 15:50:47.334 +0000",1557157847.334364,-0.118533,-0.008231,-1.194336,-0.118251,0.008231,-0.992950,0.000000,0.000000,0.000000,-1,-0.626466,0.615937,-0.080019,-0.014195,0.010644,-0.118028
"2019-05-06 15:50:47.354 +0000",1557157847.354262,-0.109180,-0.016171,-1.196307,-0.108949,0.016171,-0.993916,0.000000,0.000000,0.000000,-1,-0.192612,0.257811,-0.032936,-0.021269,0.005054,0.006657
"2019-05-06 15:50:47.374 +0000",1557157847.374157,-0.109639,-0.014591,-1.196644,-0.109408,0.014590,-0.993890,0.000000,0.000000,0.000000,-1,0.302817,-0.259143,-0.019184,0.008838,-0.012973,0.101602
"2019-05-06 15:50:47.394 +0000",1557157847.394056,-0.117243,-0.004610,-1.196027,-0.116973,0.004610,-0.993124,0.000000,0.000000,0.000000,-1,0.631394,-0.433679,-0.027085,0.017882,-0.007326,0.073386
"2019-05-06 15:50:47.414 +0000",1557157847.413954,-0.123907,0.007580,-1.195122,-0.123587,-0.007580,-0.992305,0.000000,0.000000,0.000000,-1,0.512441,-0.178698,-0.023447,0.002844,-0.005085,-0.052419
"2019-05-06 15:50:47.434 +0000",1557157847.433851,-0.121933,0.012185,-1.195328,-0.121622,-0.012185,-0.992502,0.000000,0.000000,0.000000,-1,-0.014271,0.377410,-0.069726,0.008006,-0.040199,-0.120169
"2019-05-06 15:50:47.454 +0000",1557157847.453743,-0.112567,0.009813,-1.197323,-0.112324,-0.009813,-0.993623,0.000000,0.000000,0.000000,-1,-0.213575,0.434783,-0.076281,-0.000850,-0.008574,0.094118
"2019-05-06 15:50:47.474 +0000",1557157847.473639,-0.108149,0.005130,-1.198804,-0.107937,-0.005130,-0.994145,0.000000,0.000000,0.000000,-1,-0.237378,-0.005505,-0.042633,-0.022053,0.007693,0.044819
"2019-05-06 15:50:47.494 +0000",1557157847.493537,-0.110697,0.001674,-1.200360,-0.110471,-0.001674,-0.993878,0.000000,0.000000,0.000000,-1,-0.160373,-0.102746,-0.049128,-0.011691,0.023646,0.008999
"2019-05-06 15:50:47.513 +0000",1557157847.513435,-0.105700,-0.004680,-1.201386,-0.105502,0.004680,-0.994408,0.000000,0.000000,0.000000,-1,-0.492786,0.582569,-0.012119,-0.049771,0.009800,-0.050911
"2019-05-06 15:50:47.533 +0000",1557157847.533333,-0.095041,-0.012578,-1.203448,-0.094891,0.012578,-0.995408,0.000000,0.000000,0.000000,-1,-0.244535,0.329569,-0.100004,0.009396,0.038951,-0.030364
"2019-05-06 15:50:47.553 +0000",1557157847.553230,-0.094114,-0.013971,-1.204791,-0.093966,0.013971,-0.995477,0.000000,0.000000,0.000000,-1,0.026983,-0.122958,0.016124,0.001208,0.022559,0.009195
"2019-05-06 15:50:47.573 +0000",1557157847.573127,-0.095673,-0.013530,-1.202143,-0.095518,0.013530,-0.995336,0.000000,0.000000,0.000000,-1,0.037110,0.016493,0.226937,-0.021212,-0.000727,0.058034
"2019-05-06 15:50:47.593 +0000",1557157847.593024,-0.094350,-0.012338,-1.197089,-0.094203,0.012337,-0.995477,0.000000,0.000000,0.000000,-1,0.155699,0.099208,0.234523,-0.006353,0.016517,0.056786
"2019-05-06 15:50:47.613 +0000",1557157847.612922,-0.093541,-0.008418,-1.193126,-0.093401,0.008418,-0.995593,0.000000,0.000000,0.000000,-1,0.245948,-0.054149,0.126548,0.007784,-0.005275,0.007388
"2019-05-06 15:50:47.633 +0000",1557157847.632818,-0.096691,-0.007279,-1.190932,-0.096538,0.007279,-0.995303,0.000000,0.000000,0.000000,-1,-0.061163,-0.188459,0.082722,0.005000,-0.042328,-0.104291
"2019-05-06 15:50:47.653 +0000",1557157847.652715,-0.098696,-0.009746,-1.189738,-0.098531,0.009746,-0.995086,0.000000,0.000000,0.000000,-1,-0.176659,-0.013603,0.073680,-0.013286,0.012974,0.016708
"2019-05-06 15:50:47.673 +0000",1557157847.672612,-0.098286,-0.014698,-1.188050,-0.098118,0.014697,-0.995066,0.000000,0.000000,0.000000,-1,-0.266753,0.022500,0.135807,-0.014492,-0.000171,0.012416
"2019-05-06 15:50:47.693 +0000",1557157847.692510,-0.097710,-0.020275,-1.185666,-0.097534,0.020273,-0.995026,0.000000,0.000000,0.000000,-1,-0.272003,0.036425,0.142152,-0.010345,0.005117,0.031769
"2019-05-06 15:50:47.712 +0000",1557157847.712409,-0.097944,-0.024931,-1.184467,-0.097758,0.024929,-0.994898,0.000000,0.000000,0.000000,-1,-0.167181,-0.085943,0.006446,0.022654,0.005375,0.006876
"2019-05-06 15:50:47.732 +0000",1557157847.732304,-0.100815,-0.026130,-1.185371,-0.100610,0.026127,-0.994583,0.000000,0.000000,0.000000,-1,0.034499,-0.190911,-0.062915,0.028588,0.018306,0.013794
"2019-05-06 15:50:47.752 +0000",1557157847.752204,-0.105396,-0.023242,-1.186347,-0.105172,0.023240,-0.994182,0.000000,0.000000,0.000000,-1,0.237080,-0.248285,-0.062748,0.026620,-0.007004,0.017361
"2019-05-06 15:50:47.772 +0000",1557157847.772100,-0.109869,-0.017166,-1.187270,-0.109632,0.017165,-0.993824,0.000000,0.000000,0.000000,-1,0.336561,-0.187472,-0.093881,0.027051,0.005891,0.001682
"2019-05-06 15:50:47.792 +0000",1557157847.791997,-0.111306,-0.011416,-1.188117,-0.111069,0.011416,-0.993747,0.000000,0.000000,0.000000,-1,0.203726,0.017171,-0.048555,-0.002471,0.024229,-0.013409
"2019-05-06 15:50:47.812 +0000",1557157847.811895,-0.109804,-0.009088,-1.188257,-0.109579,0.009088,-0.993937,0.000000,0.000000,0.000000,-1,0.044954,0.104648,-0.009746,-0.009562,0.012717,0.005320
"2019-05-06 15:50:47.832 +0000",1557157847.831793,-0.107347,-0.009102,-1.188600,-0.107137,0.009102,-0.994203,0.000000,0.000000,0.000000,-1,-0.027345,0.128227,-0.025565,-0.002147,0.012840,0.012605
"2019-05-06 15:50:47.852 +0000",1557157847.851689,-0.105337,-0.009620,-1.189346,-0.105137,0.009620,-0.994411,0.000000,0.000000,0.000000,-1,-0.012068,0.046911,-0.044538,-0.006908,0.003808,0.011303
"2019-05-06 15:50:47.872 +0000",1557157847.871587,-0.105348,-0.009224,-1.190429,-0.105149,0.009224,-0.994414,0.000000,0.000000,0.000000,-1,0.049378,-0.029641,-0.073722,-0.005630,0.002495,-0.000948
"2019-05-06 15:50:47.891 +0000",1557157847.891484,-0.106268,-0.007775,-1.192090,-0.106065,0.007775,-0.994329,0.000000,0.000000,0.000000,-1,0.073045,-0.047912,-0.106625,-0.004363,0.000861,-0.001200
"2019-05-06 15:50:47.911 +0000",1557157847.911382,-0.107148,-0.006127,-1.194042,-0.106941,0.006127,-0.994247,0.000000,0.000000,0.000000,-1,0.076148,-0.050147,-0.099092,-0.005562,0.003273,0.006072
"2019-05-06 15:50:47.931 +0000",1557157847.931279,-0.108814,-0.004161,-1.195591,-0.108599,0.004161,-0.994077,0.000000,0.000000,0.000000,-1,0.112567,-0.111782,-0.071826,-0.008833,0.006596,0.012525
"2019-05-06 15:50:47.951 +0000",1557157847.951176,-0.111401,-0.001719,-1.196468,-0.111170,0.001719,-0.993800,0.000000,0.000000,0.000000,-1,0.119443,-0.141977,-0.048147,-0.015539,0.008657,0.005732
"2019-05-06 15:50:47.971 +0000",1557157847.971074,-0.114379,0.000988,-1.197215,-0.114130,-0.000988,-0.993465,0.000000,0.000000,0.000000,-1,0.144897,-0.167931,-0.056392,-0.000921,0.012798,0.008068
"2019-05-06 15:50:47.991 +0000",1557157847.990971,-0.118408,0.004115,-1.197968,-0.118131,-0.004115,-0.992989,0.000000,0.000000,0.000000,-1,0.172038,-0.224960,-0.057073,-0.002246,0.009593,-0.003135
"2019-05-06 15:50:48.011 +0000",1557157848.010868,-0.122920,0.007652,-1.198547,-0.122607,-0.007652,-0.992426,0.000000,0.000000,0.000000,-1,0.175124,-0.222965,-0.043123,-0.001889,0.005882,-0.000692
"2019-05-06 15:50:48.031 +0000",1557157848.030765,-0.126331,0.011132,-1.198891,-0.125987,-0.011132,-0.991969,0.000000,0.000000,0.000000,-1,0.174391,-0.105375,-0.043323,-0.005467,0.006768,0.017299
"2019-05-06 15:50:48.051 +0000",1557157848.050663,-0.127444,0.014538,-1.199560,-0.127086,-0.014538,-0.991785,0.000000,0.000000,0.000000,-1,0.165719,-0.047356,-0.068138,-0.003911,0.007992,0.002771
"2019-05-06 15:50:48.071 +0000",1557157848.070560,-0.129706,0.018143,-1.200320,-0.129322,-0.018142,-0.991437,0.000000,0.000000,0.000000,-1,0.208584,-0.208392,-0.054559,-0.001797,0.008346,-0.007709
"2019-05-06 15:50:48.090 +0000",1557157848.090458,-0.136052,0.023251,-1.200912,-0.135596,-0.023249,-0.990491,0.000000,0.000000,0.000000,-1,0.297355,-0.409370,-0.076817,0.020514,0.008830,0.001951
"2019-05-06 15:50:48.110 +0000",1557157848.110355,-0.143862,0.029640,-1.201800,-0.143303,-0.029635,-0.989235,0.000000,0.000000,0.000000,-1,0.326430,-0.338953,-0.116230,0.009651,0.016955,0.013863
"2019-05-06 15:50:48.130 +0000",1557157848.130253,-0.148201,0.036428,-1.203861,-0.147561,-0.036420,-0.988382,0.000000,0.000000,0.000000,-1,0.319164,-0.104340,-0.175580,-0.018745,0.011258,0.003473
"2019-05-06 15:50:48.150 +0000",1557157848.150150,-0.149081,0.042822,-1.206633,-0.148393,-0.042808,-0.988001,0.000000,0.000000,0.000000,-1,0.277511,-0.025589,-0.194365,-0.017790,-0.012871,-0.010885
"2019-05-06 15:50:48.170 +0000",1557157848.170047,-0.148330,0.048302,-1.209919,-0.147614,-0.048283,-0.987866,0.000000,0.000000,0.000000,-1,0.251403,0.089376,-0.225888,-0.005065,0.002308,0.023739
"2019-05-06 15:50:48.190 +0000",1557157848.189945,-0.145200,0.055022,-1.214033,-0.144472,-0.054995,-0.987980,0.000000,0.000000,0.000000,-1,0.388676,0.161556,-0.276969,-0.011153,0.051287,0.004139
"2019-05-06 15:50:48.210 +0000",1557157848.209903,-0.142928,0.064119,-1.218567,-0.142149,-0.064075,-0.987769,0.000000,0.000000,0.000000,-1,0.424824,0.039301,-0.292435,-0.014208,0.032001,-0.039636
"2019-05-06 15:50:48.230 +0000",1557157848.229801,-0.142843,0.071602,-1.222373,-0.141993,-0.071541,-0.987279,0.000000,0.000000,0.000000,-1,0.245411,-0.009237,-0.175470,0.001322,0.004235,-0.007563
"2019-05-06 15:50:48.250 +0000",1557157848.249698,-0.141435,0.074083,-1.223806,-0.140578,-0.074015,-0.987299,0.000000,0.000000,0.000000,-1,-0.010191,0.152401,-0.001861,0.016127,0.003611,0.057902
"2019-05-06 15:50:48.270 +0000",1557157848.269596,-0.137755,0.071719,-1.222913,-0.136967,-0.071657,-0.987980,0.000000,0.000000,0.000000,-1,-0.167674,0.218085,0.092674,0.005726,-0.041410,0.023289
"2019-05-06 15:50:48.289 +0000",1557157848.289492,-0.133503,0.067494,-1.221225,-0.132804,-0.067443,-0.988845,0.000000,0.000000,0.000000,-1,-0.199052,0.223589,0.131941,-0.000497,-0.033356,0.003310
"2019-05-06 15:50:48.309 +0000",1557157848.309391,-0.129212,0.063364,-1.218632,-0.128594,-0.063322,-0.989674,0.000000,0.000000,0.000000,-1,-0.170605,0.227140,0.177216,-0.003104,-0.041109,0.013218
"2019-05-06 15:50:48.329 +0000",1557157848.329288,-0.125468,0.060588,-1.215447,-0.124910,-0.060550,-0.990319,0.000000,0.000000,0.000000,-1,-0.069419,0.183009,0.169828,-0.004470,-0.029186,0.011208
"2019-05-06 15:50:48.349 +0000",1557157848.349186,-0.122067,0.060106,-1.212546,-0.121544,-0.060070,-0.990767,0.000000,0.000000,0.000000,-1,0.044609,0.195614,0.125014,-0.013466,-0.022266,-0.001345
"2019-05-06 15:50:48.369 +0000",1557157848.369082,-0.117993,0.061767,-1.210329,-0.117495,-0.061728,-0.991153,0.000000,0.000000,0.000000,-1,0.113983,0.229177,0.077536,-0.014524,-0.004541,-0.004834
"2019-05-06 15:50:48.389 +0000",1557157848.388980,-0.112748,0.064331,-1.209351,-0.112277,-0.064287,-0.991595,0.000000,0.000000,0.000000,-1,0.117331,0.262807,0.001498,-0.019345,0.016954,0.005694
"2019-05-06 15:50:48.409 +0000",1557157848.408877,-0.108921,0.066153,-1.209290,-0.108468,-0.066105,-0.991900,0.000000,0.000000,0.000000,-1,0.083210,0.168273,-0.014782,-0.019752,0.008442,0.006945
"2019-05-06 15:50:48.429 +0000",1557157848.428775,-0.105850,0.068357,-1.209637,-0.105406,-0.068303,-0.992081,0.000000,0.000000,0.000000,-1,0.118320,0.130538,-0.038963,-0.019243,0.023809,0.008148
"2019-05-06 15:50:48.449 +0000",1557157848.448666,-0.103937,0.070652,-1.210024,-0.103491,-0.070593,-0.992122,0.000000,0.000000,0.000000,-1,0.100268,0.065484,-0.024064,-0.018457,0.016119,0.005397
"2019-05-06 15:50:48.469 +0000",1557157848.468563,-0.103098,0.072021,-1.210066,-0.102648,-0.071958,-0.992112,0.000000,0.000000,0.000000,-1,0.041029,0.054384,0.001003,0.000613,0.011900,0.009629
"2019-05-06 15:50:48.488 +0000",1557157848.488461,-0.101744,0.072132,-1.209996,-0.101304,-0.072070,-0.992242,0.000000,0.000000,0.000000,-1,-0.015159,0.105351,0.009942,0.000138,0.007357,0.007699
"2019-05-06 15:50:48.508 +0000",1557157848.508358,-0.099091,0.071699,-1.209647,-0.098675,-0.071637,-0.992538,0.000000,0.000000,0.000000,-1,-0.018014,0.140620,0.016278,-0.004795,0.004575,0.003204
"2019-05-06 15:50:48.528 +0000",1557157848.528255,-0.096611,0.070580,-1.209223,-0.096221,-0.070522,-0.992859,0.000000,0.000000,0.000000,-1,-0.089063,0.121175,0.035876,-0.011171,-0.005406,0.001693
"2019-05-06 15:50:48.548 +0000",1557157848.548153,-0.094846,0.068006,-1.208531,-0.094485,-0.067953,-0.993204,0.000000,0.000000,0.000000,-1,-0.169042,0.086761,0.073603,0.000612,-0.008630,0.013941
"2019-05-06 15:50:48.568 +0000",1557157848.568051,-0.093115,0.063642,-1.206886,-0.092792,-0.063599,-0.993652,0.000000,0.000000,0.000000,-1,-0.247356,0.107862,0.117682,-0.005993,-0.011047,0.018967
"2019-05-06 15:50:48.588 +0000",1557157848.587948,-0.091090,0.058293,-1.205073,-0.090809,-0.058260,-0.994163,0.000000,0.000000,0.000000,-1,-0.261376,0.097380,0.116475,0.006566,-0.000822,0.009376
"2019-05-06 15:50:48.608 +0000",1557157848.607846,-0.089500,0.053099,-1.203201,-0.089254,-0.053074,-0.994594,0.000000,0.000000,0.000000,-1,-0.241294,0.079969,0.119935,0.013891,-0.000545,0.002299
"2019-05-06 15:50:48.628 +0000",1557157848.627743,-0.087422,0.048430,-1.201983,-0.087209,-0.048411,-0.995013,0.000000,0.000000,0.000000,-1,-0.239323,0.163964,0.028810,0.027211,0.007838,-0.005124
"2019-05-06 15:50:48.648 +0000",1557157848.647640,-0.083961,0.044251,-1.202173,-0.083780,-0.044237,-0.995502,0.000000,0.000000,0.000000,-1,-0.164231,0.159867,0.005012,-0.002096,0.000841,-0.006833
"2019-05-06 15:50:48.668 +0000",1557157848.667537,-0.081507,0.042488,-1.202136,-0.081344,-0.042475,-0.995781,0.000000,0.000000,0.000000,-1,-0.032373,0.097044,0.009767,0.002471,0.011118,-0.000298
"2019-05-06 15:50:48.687 +0000",1557157848.687435,-0.079761,0.042238,-1.202022,-0.079606,-0.042226,-0.995932,0.000000,0.000000,0.000000,-1,-0.012146,0.086091,0.006794,0.001923,0.005345,0.005392
"2019-05-06 15:50:48.707 +0000",1557157848.707332,-0.077679,0.041358,-1.201743,-0.077535,-0.041346,-0.996132,0.000000,0.000000,0.000000,-1,-0.083520,0.130769,0.028426,-0.002925,0.008784,0.010872
"2019-05-06 15:50:48.727 +0000",1557157848.727229,-0.074770,0.038980,-1.201282,-0.074644,-0.038970,-0.996449,0.000000,0.000000,0.000000,-1,-0.143323,0.140162,0.028828,-0.002123,0.007262,0.014454
"2019-05-06 15:50:48.747 +0000",1557157848.747127,-0.072718,0.036093,-1.201042,-0.072607,-0.036085,-0.996708,0.000000,0.000000,0.000000,-1,-0.132138,0.079174,0.015130,-0.004465,-0.000048,0.008991
"2019-05-06 15:50:48.767 +0000",1557157848.767024,-0.070452,0.033861,-1.200728,-0.070353,-0.033855,-0.996948,0.000000,0.000000,0.000000,-1,-0.101425,0.160900,0.035676,-0.010351,0.013438,-0.001710
"2019-05-06 15:50:48.787 +0000",1557157848.786922,-0.067119,0.031419,-1.200592,-0.067036,-0.031414,-0.997256,0.000000,0.000000,0.000000,-1,-0.120510,0.147496,0.004439,-0.001873,0.008587,-0.004117
"2019-05-06 15:50:48.807 +0000",1557157848.806818,-0.064495,0.029686,-1.199509,-0.064422,-0.029682,-0.997481,0.000000,0.000000,0.000000,-1,-0.052571,0.109427,0.112314,-0.012070,0.009266,0.008681
"2019-05-06 15:50:48.827 +0000",1557157848.826717,-0.065067,0.028445,-1.197492,-0.064995,-0.028441,-0.997480,0.000000,0.000000,0.000000,-1,-0.067456,-0.161781,0.100814,-0.010292,-0.000658,-0.005480
"2019-05-06 15:50:48.847 +0000",1557157848.846614,-0.067276,0.027594,-1.195886,-0.067199,-0.027590,-0.997358,0.000000,0.000000,0.000000,-1,-0.006972,-0.070340,0.048863,-0.000657,-0.013212,0.026548
"2019-05-06 15:50:48.867 +0000",1557157848.866511,-0.068644,0.027746,-1.195263,-0.068564,-0.027742,-0.997261,0.000000,0.000000,0.000000,-1,0.023492,-0.059824,0.012775,-0.031824,-0.009108,-0.000328
"2019-05-06 15:50:48.886 +0000",1557157848.886408,-0.070031,0.027971,-1.194971,-0.069947,-0.027967,-0.997159,0.000000,0.000000,0.000000,-1,0.002816,-0.077794,0.025426,-0.005417,-0.015429,-0.002994
"2019-05-06 15:50:48.906 +0000",1557157848.906306,-0.071463,0.027962,-1.194360,-0.071374,-0.027958,-0.997058,0.000000,0.000000,0.000000,-1,0.004235,-0.045769,0.028602,-0.007300,-0.013256,0.001422
"2019-05-06 15:50:48.926 +0000",1557157848.926203,-0.072271,0.027365,-1.193675,-0.072181,-0.027362,-0.997016,0.000000,0.000000,0.000000,-1,-0.077417,-0.055460,0.050210,-0.004296,-0.017682,0.002814
"2019-05-06 15:50:48.946 +0000",1557157848.946100,-0.074377,0.023571,-1.192664,-0.074288,-0.023569,-0.996958,0.000000,0.000000,0.000000,-1,-0.382321,-0.080534,0.122937,0.000237,-0.010870,0.024134
"2019-05-06 15:50:48.966 +0000",1557157848.965998,-0.070733,0.014679,-1.190177,-0.070666,-0.014679,-0.997392,0.000000,0.000000,0.000000,-1,-0.503265,0.315260,0.170223,-0.034208,-0.002884,0.038240
"2019-05-06 15:50:48.986 +0000",1557157848.985894,-0.064423,0.005762,-1.187699,-0.064378,-0.005762,-0.997909,0.000000,0.000000,0.000000,-1,-0.344303,0.233209,0.119630,-0.002913,-0.018469,-0.026215
"2019-05-06 15:50:49.006 +0000",1557157849.005793,-0.063497,0.002556,-1.186196,-0.063454,-0.002556,-0.997981,0.000000,0.000000,0.000000,-1,0.027642,-0.111579,0.067510,0.025032,0.003914,-0.050740
"2019-05-06 15:50:49.026 +0000",1557157849.025689,-0.065115,0.005079,-1.185687,-0.065068,-0.005079,-0.997868,0.000000,0.000000,0.000000,-1,0.158497,0.010181,-0.028691,0.007192,0.002683,0.004322
"2019-05-06 15:50:49.046 +0000",1557157849.045588,-0.064077,0.008153,-1.186280,-0.064031,-0.008153,-0.997915,0.000000,0.000000,0.000000,-1,0.132766,0.092868,-0.031248,-0.014521,0.019170,-0.003352
"2019-05-06 15:50:49.065 +0000",1557157849.065484,-0.062937,0.009834,-1.186825,-0.062892,-0.009834,-0.997972,0.000000,0.000000,0.000000,-1,0.021728,0.015390,-0.038761,-0.009969,0.002403,0.022996
"2019-05-06 15:50:49.085 +0000",1557157849.085382,-0.063154,0.009118,-1.187170,-0.063109,-0.009118,-0.997965,0.000000,0.000000,0.000000,-1,-0.063691,-0.010524,0.017095,-0.002794,-0.003349,0.034815
"2019-05-06 15:50:49.105 +0000",1557157849.105279,-0.062696,0.008035,-1.186732,-0.062653,-0.008035,-0.998003,0.000000,0.000000,0.000000,-1,-0.036371,0.042495,0.022661,-0.005630,0.004678,0.004763
"2019-05-06 15:50:49.125 +0000",1557157849.125177,-0.062132,0.007517,-1.186504,-0.062090,-0.007517,-0.998042,0.000000,0.000000,0.000000,-1,-0.009821,0.011242,0.005871,0.009722,0.001184,-0.017293
"2019-05-06 15:50:49.145 +0000",1557157849.145074,-0.062128,0.007551,-1.186486,-0.062087,-0.007551,-0.998042,0.000000,0.000000,0.000000,-1,0.019127,0.003456,-0.008790,0.003233,0.005842,-0.000752
"2019-05-06 15:50:49.165 +0000",1557157849.164971,-0.062478,0.008413,-1.186862,-0.062435,-0.008413,-0.998014,0.000000,0.000000,0.000000,-1,0.065661,-0.051635,-0.019969,0.005397,0.001379,0.017041
"2019-05-06 15:50:49.185 +0000",1557157849.184869,-0.064086,0.010009,-1.187138,-0.064039,-0.010009,-0.997897,0.000000,0.000000,0.000000,-1,0.082412,-0.083925,-0.021875,-0.008685,0.004043,0.009402
"2019-05-06 15:50:49.205 +0000",1557157849.204765,-0.064641,0.013922,-1.187596,-0.064590,-0.013921,-0.997815,0.000000,0.000000,0.000000,-1,0.609750,0.039424,-0.076270,-0.002503,0.003301,0.058880
"2019-05-06 15:50:49.225 +0000",1557157849.224663,-0.061735,0.025487,-1.189880,-0.061676,-0.025485,-0.997771,0.000000,0.000000,0.000000,-1,0.392491,0.367270,-0.203380,0.030670,0.016573,-0.035493
"2019-05-06 15:50:49.245 +0000",1557157849.244560,-0.050237,0.030381,-1.193917,-0.050193,-0.030376,-0.998277,0.000000,0.000000,0.000000,-1,0.137985,0.731112,-0.207825,-0.023965,-0.012028,0.026003
"2019-05-06 15:50:49.264 +0000",1557157849.264458,-0.033896,0.031847,-1.196583,-0.033872,-0.031842,-0.998919,0.000000,0.000000,0.000000,-1,-0.009429,0.867996,-0.074750,-0.058047,0.019772,-0.000562
"2019-05-06 15:50:49.284 +0000",1557157849.284355,-0.016422,0.030404,-1.197813,-0.016414,-0.030400,-0.999403,0.000000,0.000000,0.000000,-1,-0.124615,0.830959,-0.049182,-0.018453,-0.011776,-0.027391
"2019-05-06 15:50:49.304 +0000",1557157849.304253,-0.001437,0.028948,-1.198035,-0.001437,-0.028944,-0.999580,0.000000,0.000000,0.000000,-1,0.026389,0.734211,0.028647,-0.034315,-0.020831,0.007606
"2019-05-06 15:50:49.324 +0000",1557157849.324151,0.012565,0.032937,-1.197090,0.012558,-0.032931,-0.999379,0.000000,0.000000,0.000000,-1,0.329041,0.661322,0.057771,-0.038055,0.009844,0.053914
"2019-05-06 15:50:49.344 +0000",1557157849.344048,0.022840,0.038569,-1.196369,0.022821,-0.038559,-0.998996,0.000000,0.000000,0.000000,-1,0.212460,0.364987,0.023787,0.046057,0.022706,-0.043195
"2019-05-06 15:50:49.364 +0000",1557157849.363945,0.025048,0.040761,-1.196006,0.025025,-0.040750,-0.998856,0.000000,0.000000,0.000000,-1,-0.003198,-0.057293,0.010338,0.011032,0.024011,-0.067764
"2019-05-06 15:50:49.384 +0000",1557157849.383843,0.021798,0.040048,-1.195650,0.021779,-0.040037,-0.998961,0.000000,0.000000,0.000000,-1,-0.023196,-0.200312,0.019988,-0.001393,-0.015001,-0.004183
"2019-05-06 15:50:49.404 +0000",1557157849.403739,0.017618,0.040268,-1.195417,0.017602,-0.040257,-0.999034,0.000000,0.000000,0.000000,-1,0.037805,-0.207515,0.009960,0.005057,-0.010570,0.024700
"2019-05-06 15:50:49.424 +0000",1557157849.423638,0.014029,0.040981,-1.195510,0.014017,-0.040969,-0.999062,0.000000,0.000000,0.000000,-1,0.023023,-0.114211,-0.004273,0.004095,-0.002686,0.006722
"2019-05-06 15:50:49.444 +0000",1557157849.443550,0.014376,0.041420,-1.195296,0.014363,-0.041408,-0.999039,0.000000,0.000000,0.000000,-1,0.068451,0.115952,0.006557,-0.018819,0.015407,0.003449
"2019-05-06 15:50:49.463 +0000",1557157849.463448,0.016997,0.043338,-1.195238,0.016980,-0.043324,-0.998917,0.000000,0.000000,0.000000,-1,0.087556,0.099678,0.002509,0.004184,0.011083,-0.007110
"2019-05-06 15:50:49.483 +0000",1557157849.483345,0.017875,0.044783,-1.195538,0.017856,-0.044768,-0.998838,0.000000,0.000000,0.000000,-1,0.073928,-0.003515,-0.039229,0.012493,-0.002916,-0.008624
"2019-05-06 15:50:49.503 +0000",1557157849.503241,0.019344,0.046816,-1.196654,0.019322,-0.046799,-0.998717,0.000000,0.000000,0.000000,-1,0.130645,0.166789,-0.050664,-0.003163,-0.008331,0.042174
"2019-05-06 15:50:49.523 +0000",1557157849.523141,0.023050,0.049277,-1.197430,0.023020,-0.049258,-0.998521,0.000000,0.000000,0.000000,-1,0.101627,0.173469,-0.030649,-0.015238,0.001284,0.013062
"2019-05-06 15:50:49.543 +0000",1557157849.543037,0.025069,0.050186,-1.198147,0.025035,-0.050165,-0.998427,0.000000,0.000000,0.000000,-1,0.001352,0.017763,-0.031492,0.006307,0.004755,-0.025316
"2019-05-06 15:50:49.563 +0000",1557157849.562935,0.024398,0.049525,-1.198745,0.024365,-0.049505,-0.998477,0.000000,0.000000,0.000000,-1,-0.053225,-0.074450,-0.033009,0.002994,0.015875,-0.022153
"2019-05-06 15:50:49.583 +0000",1557157849.582832,0.022090,0.048346,-1.199383,0.022062,-0.048327,-0.998588,0.000000,0.000000,0.000000,-1,-0.070233,-0.159683,-0.038410,0.003329,0.002047,-0.001229
"2019-05-06 15:50:49.603 +0000",1557157849.602730,0.018274,0.046746,-1.200282,0.018253,-0.046729,-0.998741,0.000000,0.000000,0.000000,-1,-0.083599,-0.218169,-0.054522,0.010540,-0.005929,0.005394
"2019-05-06 15:50:49.623 +0000",1557157849.622627,0.013579,0.045029,-1.201606,0.013564,-0.045013,-0.998894,0.000000,0.000000,0.000000,-1,-0.087035,-0.262809,-0.083396,0.008362,-0.010834,-0.003700
"2019-05-06 15:50:49.643 +0000",1557157849.642525,0.007950,0.043348,-1.203572,0.007943,-0.043335,-0.999029,0.000000,0.000000,0.000000,-1,-0.072390,-0.323677,-0.120611,0.008506,-0.004944,-0.013956
"2019-05-06 15:50:49.662 +0000",1557157849.662421,0.000623,0.042042,-1.206361,0.000622,-0.042030,-0.999116,0.000000,0.000000,0.000000,-1,-0.067910,-0.422936,-0.150381,0.011264,-0.014428,-0.012145
"2019-05-06 15:50:49.682 +0000",1557157849.682320,-0.007701,0.040476,-1.208668,-0.007694,-0.040464,-0.999151,0.000000,0.000000,0.000000,-1,-0.086950,-0.413693,-0.059594,-0.010342,0.005385,0.003271
"2019-05-06 15:50:49.702 +0000",1557157849.702218,-0.014562,0.038683,-1.209014,-0.014551,-0.038673,-0.999146,0.000000,0.000000,0.000000,-1,-0.099928,-0.277161,0.006426,-0.019095,0.038963,0.019257
"2019-05-06 15:50:49.725 +0000",1557157849.725014,-0.019763,0.036428,-1.209212,-0.019749,-0.036420,-0.999141,0.000000,0.000000,0.000000,-1,-0.093562,-0.212950,-0.017165,-0.011776,0.017728,0.010799
"2019-05-06 15:50:49.745 +0000",1557157849.744908,-0.024290,0.034601,-1.209577,-0.024274,-0.034594,-0.999107,0.000000,0.000000,0.000000,-1,-0.102406,-0.233164,-0.012946,0.004513,-0.000471,-0.004525
"2019-05-06 15:50:49.765 +0000",1557157849.764827,-0.027987,0.032607,-1.209862,-0.027969,-0.032601,-0.999077,0.000000,0.000000,0.000000,-1,-0.095958,-0.140268,-0.011955,-0.001526,-0.002463,0.007088
"2019-05-06 15:50:49.785 +0000",1557157849.784703,-0.030137,0.030789,-1.210136,-0.030118,-0.030784,-0.999072,0.000000,0.000000,0.000000,-1,-0.086797,-0.086975,-0.008730,0.001707,-0.003304,0.016788
"2019-05-06 15:50:49.805 +0000",1557157849.804601,-0.031546,0.028690,-1.210337,-0.031528,-0.028686,-0.999091,0.000000,0.000000,0.000000,-1,-0.108798,-0.049244,-0.010102,0.000659,-0.006562,0.011893
"2019-05-06 15:50:49.824 +0000",1557157849.824498,-0.032020,0.027025,-1.210732,-0.032003,-0.027022,-0.999122,0.000000,0.000000,0.000000,-1,-0.057951,-0.007163,-0.016039,0.003530,0.001585,0.029335
"2019-05-06 15:50:49.844 +0000",1557157849.844396,-0.031913,0.026015,-1.210961,-0.031897,-0.026012,-0.999153,0.000000,0.000000,0.000000,-1,-0.054494,0.017342,-0.011758,0.000998,-0.029194,0.024818
"2019-05-06 15:50:49.864 +0000",1557157849.864293,-0.031446,0.025033,-1.211310,-0.031431,-0.025031,-0.999192,0.000000,0.000000,0.000000,-1,-0.043601,0.028983,-0.017012,0.004683,-0.011529,0.010926
"2019-05-06 15:50:49.884 +0000",1557157849.884195,-0.030880,0.024522,-1.211481,-0.030866,-0.024519,-0.999223,0.000000,0.000000,0.000000,-1,-0.013789,0.030591,-0.001699,-0.010027,0.008436,0.003663
"2019-05-06 15:50:49.904 +0000",1557157849.904088,-0.030396,0.024497,-1.211594,-0.030383,-0.024495,-0.999238,0.000000,0.000000,0.000000,-1,0.005388,0.016484,-0.010032,-0.005476,0.008351,0.005769
"2019-05-06 15:50:49.924 +0000",1557157849.923985,-0.030412,0.024586,-1.211673,-0.030398,-0.024584,-0.999236,0.000000,0.000000,0.000000,-1,-0.000443,-0.013446,0.001731,-0.007841,0.005663,0.000319
"2019-05-06 15:50:49.944 +0000",1557157849.943882,-0.030678,0.024701,-1.211629,-0.030664,-0.024699,-0.999225,0.000000,0.000000,0.000000,-1,0.010215,-0.015743,0.002922,-0.008505,0.007060,0.002368
"2019-05-06 15:50:49.964 +0000",1557157849.963780,-0.031332,0.025058,-1.211505,-0.031317,-0.025056,-0.999195,0.000000,0.000000,0.000000,-1,0.025740,-0.054482,0.008508,-0.001703,0.003907,0.004475
"2019-05-06 15:50:49.984 +0000",1557157849.983678,-0.032608,0.025664,-1.211319,-0.032592,-0.025661,-0.999139,0.000000,0.000000,0.000000,-1,0.038508,-0.062130,0.006519,0.000899,0.006771,0.010934
"2019-05-06 15:50:50.004 +0000",1557157850.003575,-0.033746,0.026471,-1.211169,-0.033728,-0.026468,-0.999081,0.000000,0.000000,0.000000,-1,0.035439,-0.051390,0.005397,0.000677,0.007227,0.008816
"2019-05-06 15:50:50.023 +0000",1557157850.023474,-0.034939,0.026958,-1.210957,-0.034919,-0.026954,-0.999027,0.000000,0.000000,0.000000,-1,0.024446,-0.069459,0.012801,0.000465,0.005684,-0.000439
"2019-05-06 15:50:50.043 +0000",1557157850.043370,-0.035987,0.027800,-1.210545,-0.035966,-0.027797,-0.998966,0.000000,0.000000,0.000000,-1,0.066557,-0.025254,0.026038,-0.000778,0.007228,0.004170
"2019-05-06 15:50:50.063 +0000",1557157850.063275,-0.036128,0.029635,-1.209994,-0.036105,-0.029631,-0.998909,0.000000,0.000000,0.000000,-1,0.122521,-0.003548,0.019120,0.002642,0.004851,0.004051
"2019-05-06 15:50:50.083 +0000",1557157850.083165,-0.037469,0.032330,-1.209258,-0.037441,-0.032325,-0.998776,0.000000,0.000000,0.000000,-1,0.143384,-0.177403,0.075307,-0.004368,0.009894,-0.001957
"2019-05-06 15:50:50.103 +0000",1557157850.103063,-0.040855,0.035365,-1.207679,-0.040818,-0.035358,-0.998541,0.000000,0.000000,0.000000,-1,0.148432,-0.138788,0.046391,0.002794,-0.004117,0.017233
"2019-05-06 15:50:50.123 +0000",1557157850.122959,-0.042353,0.037197,-1.207037,-0.042311,-0.037189,-0.998412,0.000000,0.000000,0.000000,-1,0.037815,-0.017333,0.021428,-0.007586,-0.003018,-0.001100
"2019-05-06 15:50:50.143 +0000",1557157850.142856,-0.041932,0.036941,-1.206655,-0.041891,-0.036932,-0.998439,0.000000,0.000000,0.000000,-1,-0.041662,0.042608,0.017250,-0.007196,-0.001581,0.010311
"2019-05-06 15:50:50.163 +0000",1557157850.162755,-0.040868,0.036170,-1.206434,-0.040830,-0.036162,-0.998511,0.000000,0.000000,0.000000,-1,-0.034211,0.023391,-0.000839,-0.001284,0.001494,0.017005
"2019-05-06 15:50:50.183 +0000",1557157850.182651,-0.040909,0.035646,-1.206639,-0.040872,-0.035638,-0.998529,0.000000,0.000000,0.000000,-1,-0.012058,-0.012121,-0.011247,0.005777,0.006021,-0.000251
"2019-05-06 15:50:50.203 +0000",1557157850.202549,-0.041110,0.035680,-1.206865,-0.041072,-0.035673,-0.998519,0.000000,0.000000,0.000000,-1,0.010430,-0.008180,-0.008866,-0.001225,0.005293,0.005691
"2019-05-06 15:50:50.222 +0000",1557157850.222446,-0.041423,0.035728,-1.206921,-0.041385,-0.035720,-0.998505,0.000000,0.000000,0.000000,-1,-0.005785,-0.017608,-0.003674,-0.006635,-0.000061,0.002396
"2019-05-06 15:50:50.242 +0000",1557157850.242344,-0.041538,0.035484,-1.207096,-0.041500,-0.035477,-0.998508,0.000000,0.000000,0.000000,-1,-0.014136,-0.000387,-0.003793,0.002102,-0.005615,0.006016
"2019-05-06 15:50:50.262 +0000",1557157850.262240,-0.041918,0.035409,-1.206775,-0.041879,-0.035402,-0.998495,0.000000,0.000000,0.000000,-1,0.016968,-0.053441,0.029825,0.002450,-0.005400,0.004934
"2019-05-06 15:50:50.282 +0000",1557157850.282140,-0.043106,0.036314,-1.206393,-0.043064,-0.036306,-0.998412,0.000000,0.000000,0.000000,-1,0.062155,-0.042240,0.018523,0.004078,0.000341,0.006561
"2019-05-06 15:50:50.302 +0000",1557157850.302036,-0.043283,0.037254,-1.205653,-0.043239,-0.037246,-0.998370,0.000000,0.000000,0.000000,-1,0.028380,0.027458,0.053379,-0.000202,0.003371,0.003863
"2019-05-06 15:50:50.322 +0000",1557157850.321933,-0.042044,0.037156,-1.204413,-0.042002,-0.037147,-0.998427,0.000000,0.000000,0.000000,-1,-0.032884,0.103067,0.064364,-0.003820,0.003349,0.010191
"2019-05-06 15:50:50.342 +0000",1557157850.341830,-0.039552,0.035807,-1.203505,-0.039516,-0.035799,-0.998577,0.000000,0.000000,0.000000,-1,-0.096281,0.137355,0.028282,-0.001560,-0.003935,0.008663
"2019-05-06 15:50:50.362 +0000",1557157850.361727,-0.037289,0.033552,-1.203202,-0.037259,-0.033546,-0.998742,0.000000,0.000000,0.000000,-1,-0.115334,0.072361,0.036745,-0.001925,-0.000192,0.006997
"2019-05-06 15:50:50.382 +0000",1557157850.381625,-0.037118,0.031718,-1.203156,-0.037091,-0.031713,-0.998809,0.000000,0.000000,0.000000,-1,-0.072247,-0.044343,-0.021483,-0.001545,0.007680,0.007033
"2019-05-06 15:50:50.402 +0000",1557157850.401522,-0.038659,0.030638,-1.203327,-0.038631,-0.030633,-0.998784,0.000000,0.000000,0.000000,-1,-0.036761,-0.087846,0.013238,-0.019902,-0.017738,-0.023372
"2019-05-06 15:50:50.421 +0000",1557157850.421419,-0.040310,0.030545,-1.202829,-0.040280,-0.030541,-0.998722,0.000000,0.000000,0.000000,-1,0.027417,-0.073907,0.029978,-0.011081,-0.010307,-0.013608
"2019-05-06 15:50:50.441 +0000",1557157850.441317,-0.041810,0.031727,-1.202406,-0.041777,-0.031722,-0.998623,0.000000,0.000000,0.000000,-1,0.092841,-0.084258,0.002872,-0.001894,-0.003328,0.004483
"2019-05-06 15:50:50.461 +0000",1557157850.461188,-0.043583,0.033662,-1.202496,-0.043545,-0.033656,-0.998484,0.000000,0.000000,0.000000,-1,0.079073,-0.094576,-0.021888,-0.004521,0.008937,0.034541
"2019-05-06 15:50:50.481 +0000",1557157850.481085,-0.045271,0.034446,-1.203178,-0.045229,-0.034439,-0.998383,0.000000,0.000000,0.000000,-1,-0.004922,-0.070784,-0.044259,-0.003722,0.014908,0.034119
"2019-05-06 15:50:50.501 +0000",1557157850.500984,-0.046358,0.033496,-1.203993,-0.046315,-0.033490,-0.998365,0.000000,0.000000,0.000000,-1,-0.092420,-0.035475,-0.026001,-0.009273,0.016415,0.007139
"2019-05-06 15:50:50.521 +0000",1557157850.520881,-0.046479,0.031327,-1.204442,-0.046439,-0.031322,-0.998430,0.000000,0.000000,0.000000,-1,-0.114312,0.025657,-0.011349,-0.015664,0.016277,-0.008177
"2019-05-06 15:50:50.541 +0000",1557157850.540778,-0.045882,0.029379,-1.204658,-0.045846,-0.029375,-0.998516,0.000000,0.000000,0.000000,-1,-0.070755,0.009998,-0.000141,-0.005423,0.011110,-0.006580
"2019-05-06 15:50:50.561 +0000",1557157850.560677,-0.046484,0.028614,-1.204619,-0.046449,-0.028610,-0.998511,0.000000,0.000000,0.000000,-1,-0.003283,-0.067959,0.006077,0.001740,0.002624,-0.000192
"2019-05-06 15:50:50.581 +0000",1557157850.580574,-0.048532,0.029301,-1.204325,-0.048492,-0.029297,-0.998394,0.000000,0.000000,0.000000,-1,0.067657,-0.130947,0.004814,0.001495,-0.001785,0.009243
"2019-05-06 15:50:50.600 +0000",1557157850.600471,-0.051247,0.030725,-1.204137,-0.051200,-0.030720,-0.998216,0.000000,0.000000,0.000000,-1,0.071853,-0.132121,0.011286,0.009605,-0.008541,0.004243
"2019-05-06 15:50:50.620 +0000",1557157850.620367,-0.053345,0.031792,-1.203866,-0.053293,-0.031786,-0.998073,0.000000,0.000000,0.000000,-1,0.038453,-0.067475,0.005462,0.003641,-0.008939,0.011974
"2019-05-06 15:50:50.640 +0000",1557157850.640265,-0.053985,0.032091,-1.203885,-0.053931,-0.032086,-0.998029,0.000000,0.000000,0.000000,-1,-0.003536,-0.010151,-0.005797,0.002555,-0.008472,0.010907
"2019-05-06 15:50:50.660 +0000",1557157850.660163,-0.054150,0.031881,-1.204145,-0.054096,-0.031876,-0.998027,0.000000,0.000000,0.000000,-1,-0.009932,-0.020650,-0.019769,0.006641,-0.005935,0.006816
"2019-05-06 15:50:50.680 +0000",1557157850.680059,-0.054974,0.032287,-1.204718,-0.054917,-0.032282,-0.997969,0.000000,0.000000,0.000000,-1,0.045315,-0.068336,-0.037290,0.000306,-0.003195,0.011870
"2019-05-06 15:50:50.700 +0000",1557157850.699957,-0.057228,0.033846,-1.205474,-0.057164,-0.033840,-0.997791,0.000000,0.000000,0.000000,-1,0.098942,-0.163024,-0.055822,0.004475,-0.004506,0.005848
"2019-05-06 15:50:50.720 +0000",1557157850.719855,-0.056022,0.032107,-1.206606,-0.055964,-0.032102,-0.997917,0.000000,0.000000,0.000000,-1,-0.385482,0.391094,-0.056666,-0.005575,-0.005542,-0.030709
"2019-05-06 15:50:50.740 +0000",1557157850.739751,-0.045746,0.022393,-1.208017,-0.045719,-0.022392,-0.998703,0.000000,0.000000,0.000000,-1,-0.547009,0.521328,-0.012603,-0.010357,-0.007409,0.012970
"2019-05-06 15:50:50.760 +0000",1557157850.759650,-0.037019,0.012139,-1.208243,-0.037008,-0.012139,-0.999241,0.000000,0.000000,0.000000,-1,-0.475311,0.378940,0.026958,-0.021235,0.002328,0.003209
"2019-05-06 15:50:50.780 +0000",1557157850.779548,-0.029921,0.004150,-1.207972,-0.029916,-0.004150,-0.999544,0.000000,0.000000,0.000000,-1,-0.332302,0.341713,0.017875,-0.021598,0.003966,0.020204
"2019-05-06 15:50:50.799 +0000",1557157850.799445,-0.024340,-0.000770,-1.208351,-0.024338,0.000770,-0.999704,0.000000,0.000000,0.000000,-1,-0.165417,0.201866,-0.037892,0.003250,0.008919,0.011529
"2019-05-06 15:50:50.819 +0000",1557157850.819341,-0.021886,-0.002136,-1.209318,-0.021884,0.002136,-0.999758,0.000000,0.000000,0.000000,-1,0.002321,0.080951,-0.051922,0.007159,0.002090,0.026446
"2019-05-06 15:50:50.839 +0000",1557157850.839239,-0.020049,-0.001303,-1.210263,-0.020047,0.001303,-0.999798,0.000000,0.000000,0.000000,-1,0.041031,0.099627,-0.049387,-0.014453,0.010583,0.024243
"2019-05-06 15:50:50.859 +0000",1557157850.859137,-0.019220,-0.001120,-1.210690,-0.019219,0.001120,-0.999815,0.000000,0.000000,0.000000,-1,-0.018209,0.010405,-0.011345,-0.007133,0.004450,-0.003115
"2019-05-06 15:50:50.879 +0000",1557157850.879034,-0.018775,-0.001865,-1.210918,-0.018774,0.001865,-0.999822,0.000000,0.000000,0.000000,-1,-0.054366,0.030143,-0.009631,-0.002970,0.000256,0.000234
"2019-05-06 15:50:50.899 +0000",1557157850.898931,-0.018826,-0.002617,-1.211036,-0.018825,0.002617,-0.999819,0.000000,0.000000,0.000000,-1,-0.009104,-0.030366,-0.007967,0.001644,0.007423,0.008807
"2019-05-06 15:50:50.919 +0000",1557157850.918827,-0.019782,-0.002187,-1.211139,-0.019781,0.002187,-0.999802,0.000000,0.000000,0.000000,-1,0.050426,-0.056902,-0.001919,0.002630,0.007548,0.016693
"2019-05-06 15:50:50.939 +0000",1557157850.938726,-0.021128,-0.000519,-1.211205,-0.021126,0.000519,-0.999777,0.000000,0.000000,0.000000,-1,0.115518,-0.075952,-0.007601,0.004220,0.007309,0.006323
"2019-05-06 15:50:50.959 +0000",1557157850.958624,-0.022390,0.002122,-1.211295,-0.022388,-0.002122,-0.999747,0.000000,0.000000,0.000000,-1,0.143640,-0.053874,-0.011612,0.000446,0.005128,0.002890
"2019-05-06 15:50:50.979 +0000",1557157850.978521,-0.023933,0.004866,-1.211579,-0.023931,-0.004866,-0.999702,0.000000,0.000000,0.000000,-1,0.132433,-0.106015,-0.022357,0.009328,0.008391,0.000129
"2019-05-06 15:50:50.998 +0000",1557157850.998417,-0.026506,0.007518,-1.212027,-0.026502,-0.007518,-0.999620,0.000000,0.000000,0.000000,-1,0.141553,-0.153138,-0.027534,0.006498,0.009959,0.007967
"2019-05-06 15:50:51.018 +0000",1557157851.018315,-0.029728,0.010301,-1.212269,-0.029722,-0.010300,-0.999505,0.000000,0.000000,0.000000,-1,0.132664,-0.162777,-0.007272,-0.004305,0.011643,0.011132
"2019-05-06 15:50:51.038 +0000",1557157851.038212,-0.032802,0.012620,-1.212418,-0.032793,-0.012620,-0.999382,0.000000,0.000000,0.000000,-1,0.108211,-0.155971,-0.013975,-0.001219,0.008973,0.005074
"2019-05-06 15:50:51.058 +0000",1557157851.058111,-0.035931,0.014656,-1.212437,-0.035919,-0.014656,-0.999247,0.000000,0.000000,0.000000,-1,0.112194,-0.172129,-0.004269,-0.003860,0.003654,-0.000722
"2019-05-06 15:50:51.078 +0000",1557157851.078007,-0.039556,0.017219,-1.212467,-0.039540,-0.017218,-0.999070,0.000000,0.000000,0.000000,-1,0.145957,-0.203668,0.004717,0.008778,0.001502,-0.000534
"2019-05-06 15:50:51.098 +0000",1557157851.097903,-0.043852,0.019840,-1.212144,-0.043829,-0.019839,-0.998842,0.000000,0.000000,0.000000,-1,0.124368,-0.215157,0.009854,0.000158,0.000583,-0.000593
"2019-05-06 15:50:51.118 +0000",1557157851.117802,-0.047913,0.022371,-1.211884,-0.047882,-0.022369,-0.998602,0.000000,0.000000,0.000000,-1,0.128112,-0.180922,-0.001939,-0.004104,-0.002243,0.014746
"2019-05-06 15:50:51.138 +0000",1557157851.137699,-0.050626,0.024245,-1.211430,-0.050589,-0.024242,-0.998425,0.000000,0.000000,0.000000,-1,0.031719,-0.064409,0.038575,-0.010461,0.005367,0.007245
"2019-05-06 15:50:51.158 +0000",1557157851.157597,-0.050299,0.023237,-1.210841,-0.050264,-0.023235,-0.998466,0.000000,0.000000,0.000000,-1,-0.089765,0.057087,0.029555,-0.009016,0.002178,0.005347
"2019-05-06 15:50:51.177 +0000",1557157851.177494,-0.049498,0.021559,-1.210216,-0.049466,-0.021557,-0.998543,0.000000,0.000000,0.000000,-1,-0.055893,0.021378,0.023559,-0.000216,0.005978,0.008004
"2019-05-06 15:50:51.197 +0000",1557157851.197392,-0.049287,0.021005,-1.209842,-0.049256,-0.021004,-0.998565,0.000000,0.000000,0.000000,-1,-0.001511,-0.000712,0.015624,-0.000198,0.003350,0.005233
"2019-05-06 15:50:51.217 +0000",1557157851.217288,-0.049621,0.021067,-1.209435,-0.049590,-0.021066,-0.998547,0.000000,0.000000,0.000000,-1,0.000120,-0.031824,0.028540,0.002852,0.001016,0.006818
"2019-05-06 15:50:51.237 +0000",1557157851.237185,-0.050308,0.021115,-1.208889,-0.050276,-0.021114,-0.998512,0.000000,0.000000,0.000000,-1,0.006713,-0.019076,0.026450,0.000044,0.004665,0.006325
"2019-05-06 15:50:51.257 +0000",1557157851.257083,-0.050544,0.021206,-1.208365,-0.050511,-0.021205,-0.998498,0.000000,0.000000,0.000000,-1,0.001497,-0.005129,0.029583,-0.000834,0.005427,0.004632
"2019-05-06 15:50:51.277 +0000",1557157851.276980,-0.050662,0.020928,-1.207784,-0.050629,-0.020927,-0.998498,0.000000,0.000000,0.000000,-1,-0.022169,-0.013367,0.032550,-0.003082,0.001777,0.005334
"2019-05-06 15:50:51.297 +0000",1557157851.296880,-0.051128,0.020404,-1.207151,-0.051095,-0.020403,-0.998485,0.000000,0.000000,0.000000,-1,-0.022228,-0.024010,0.026142,-0.003089,0.001680,0.010235
"2019-05-06 15:50:51.317 +0000",1557157851.316777,-0.051463,0.019961,-1.206636,-0.051431,-0.019960,-0.998477,0.000000,0.000000,0.000000,-1,-0.020926,-0.002665,0.028263,-0.003059,-0.003554,0.008350
"2019-05-06 15:50:51.337 +0000",1557157851.336765,-0.051409,0.019546,-1.206043,-0.051377,-0.019545,-0.998488,0.000000,0.000000,0.000000,-1,-0.015538,0.000469,0.028314,-0.008026,-0.000902,0.001814
"2019-05-06 15:50:51.357 +0000",1557157851.356662,-0.051532,0.019442,-1.205555,-0.051500,-0.019441,-0.998484,0.000000,0.000000,0.000000,-1,0.007981,-0.008355,0.020020,0.001008,0.004961,-0.000814
"2019-05-06 15:50:51.377 +0000",1557157851.376560,-0.051739,0.019932,-1.205162,-0.051705,-0.019931,-0.998463,0.000000,0.000000,0.000000,-1,0.041019,-0.019506,0.019329,-0.003867,0.007663,0.006322
"2019-05-06 15:50:51.396 +0000",1557157851.396458,-0.052447,0.020700,-1.204702,-0.052412,-0.020699,-0.998411,0.000000,0.000000,0.000000,-1,0.036454,-0.038719,0.024663,-0.001009,0.005043,0.006880
"2019-05-06 15:50:51.416 +0000",1557157851.416354,-0.053148,0.021431,-1.204171,-0.053110,-0.021429,-0.998359,0.000000,0.000000,0.000000,-1,0.037565,-0.033406,0.026808,-0.005621,0.002005,0.008979
"2019-05-06 15:50:51.436 +0000",1557157851.436252,-0.053876,0.022102,-1.203630,-0.053837,-0.022100,-0.998305,0.000000,0.000000,0.000000,-1,0.034316,-0.037628,0.025709,-0.002117,0.001104,0.003737
"2019-05-06 15:50:51.456 +0000",1557157851.456158,-0.054417,0.022488,-1.202975,-0.054376,-0.022486,-0.998267,0.000000,0.000000,0.000000,-1,0.006813,-0.004162,0.033920,-0.008109,-0.000265,0.002158
"2019-05-06 15:50:51.476 +0000",1557157851.476054,-0.054262,0.022373,-1.202376,-0.054222,-0.022371,-0.998278,0.000000,0.000000,0.000000,-1,-0.003553,0.012110,0.020931,-0.005715,0.000673,0.004672
"2019-05-06 15:50:51.496 +0000",1557157851.495951,-0.054152,0.022436,-1.201910,-0.054112,-0.022434,-0.998283,0.000000,0.000000,0.000000,-1,0.013386,0.001150,0.025417,-0.004162,0.001804,0.009315
"2019-05-06 15:50:51.516 +0000",1557157851.515850,-0.054133,0.022723,-1.201347,-0.054093,-0.022721,-0.998277,0.000000,0.000000,0.000000,-1,0.016560,0.001082,0.028664,-0.005524,0.000047,0.009004
"2019-05-06 15:50:51.536 +0000",1557157851.535746,-0.054186,0.022848,-1.200696,-0.054145,-0.022846,-0.998272,0.000000,0.000000,0.000000,-1,-0.001742,-0.002979,0.034895,-0.008049,-0.003338,0.004223
"2019-05-06 15:50:51.556 +0000",1557157851.555644,-0.054352,0.022750,-1.200059,-0.054311,-0.022748,-0.998265,0.000000,0.000000,0.000000,-1,0.000390,-0.009377,0.028504,-0.003169,-0.001254,0.006184
"2019-05-06 15:50:51.576 +0000",1557157851.575541,-0.054582,0.022805,-1.199438,-0.054541,-0.022803,-0.998251,0.000000,0.000000,0.000000,-1,0.007825,-0.013759,0.028593,-0.006738,-0.001199,0.007086
"2019-05-06 15:50:51.595 +0000",1557157851.595438,-0.054705,0.022761,-1.198840,-0.054664,-0.022759,-0.998245,0.000000,0.000000,0.000000,-1,-0.005958,0.000302,0.032702,-0.002008,0.001336,0.004746
"2019-05-06 15:50:51.615 +0000",1557157851.615305,-0.054656,0.022653,-1.198243,-0.054615,-0.022651,-0.998251,0.000000,0.000000,0.000000,-1,-0.001558,0.006684,0.028457,-0.000606,0.001914,0.004018
"2019-05-06 15:50:51.635 +0000",1557157851.635203,-0.054583,0.022647,-1.197710,-0.054542,-0.022645,-0.998255,0.000000,0.000000,0.000000,-1,0.000603,0.005607,0.025270,-0.000664,0.001954,0.006159
"2019-05-06 15:50:51.655 +0000",1557157851.655099,-0.054452,0.022621,-1.197261,-0.054411,-0.022619,-0.998262,0.000000,0.000000,0.000000,-1,0.000646,0.003514,0.018850,0.000731,0.001715,0.005983
"2019-05-06 15:50:51.675 +0000",1557157851.674998,-0.054544,0.022769,-1.196899,-0.054503,-0.022767,-0.998254,0.000000,0.000000,0.000000,-1,0.015475,-0.011638,0.015824,0.003127,0.002671,0.009072
"2019-05-06 15:50:51.695 +0000",1557157851.694894,-0.055045,0.023104,-1.196558,-0.055002,-0.023102,-0.998219,0.000000,0.000000,0.000000,-1,0.019413,-0.036309,0.020190,0.003016,0.002151,0.008107
"2019-05-06 15:50:51.715 +0000",1557157851.714792,-0.055615,0.023391,-1.196098,-0.055571,-0.023389,-0.998181,0.000000,0.000000,0.000000,-1,0.011051,-0.018034,0.022211,-0.002763,0.003491,0.004788
"2019-05-06 15:50:51.735 +0000",1557157851.734689,-0.055903,0.023444,-1.195680,-0.055859,-0.023442,-0.998163,0.000000,0.000000,0.000000,-1,-0.003797,-0.009257,0.019893,0.000637,0.002415,0.002161
"2019-05-06 15:50:51.755 +0000",1557157851.754587,-0.055993,0.023240,-1.195334,-0.055949,-0.023238,-0.998163,0.000000,0.000000,0.000000,-1,-0.011161,-0.002709,0.015519,-0.001607,0.002227,0.007471
"2019-05-06 15:50:51.774 +0000",1557157851.774484,-0.056003,0.022945,-1.195015,-0.055959,-0.022943,-0.998169,0.000000,0.000000,0.000000,-1,-0.017624,-0.002647,0.019731,-0.002787,0.003138,0.006470
"2019-05-06 15:50:51.794 +0000",1557157851.794382,-0.056137,0.022606,-1.194695,-0.056094,-0.022605,-0.998170,0.000000,0.000000,0.000000,-1,-0.011239,-0.010182,0.014459,-0.001218,0.003485,0.003876
"2019-05-06 15:50:51.814 +0000",1557157851.814279,-0.056357,0.022593,-1.194443,-0.056312,-0.022591,-0.998158,0.000000,0.000000,0.000000,-1,0.008012,-0.010455,0.014670,-0.002114,0.004173,0.006565
"2019-05-06 15:50:51.834 +0000",1557157851.834176,-0.056567,0.022767,-1.194158,-0.056522,-0.022766,-0.998142,0.000000,0.000000,0.000000,-1,0.011242,-0.011547,0.011495,-0.003659,0.002014,0.006153
"2019-05-06 15:50:51.854 +0000",1557157851.854073,-0.056939,0.022907,-1.193985,-0.056893,-0.022905,-0.998117,0.000000,0.000000,0.000000,-1,0.005828,-0.018938,0.009307,-0.001746,0.001055,0.005671
"2019-05-06 15:50:51.874 +0000",1557157851.873970,-0.057233,0.022991,-1.193829,-0.057187,-0.022989,-0.998099,0.000000,0.000000,0.000000,-1,0.006013,-0.008213,0.003938,-0.005222,0.001154,0.006171
"2019-05-06 15:50:51.894 +0000",1557157851.893868,-0.057403,0.023099,-1.193781,-0.057356,-0.023097,-0.998087,0.000000,0.000000,0.000000,-1,0.007080,-0.010351,0.001811,-0.002794,0.001369,0.003366
"2019-05-06 15:50:51.914 +0000",1557157851.913765,-0.057675,0.023243,-1.193643,-0.057627,-0.023241,-0.998068,0.000000,0.000000,0.000000,-1,0.008047,-0.010433,0.011458,-0.006566,0.001986,0.004492
"2019-05-06 15:50:51.934 +0000",1557157851.933663,-0.057791,0.023383,-1.193483,-0.057743,-0.023381,-0.998058,0.000000,0.000000,0.000000,-1,0.008229,-0.001831,0.003952,-0.005199,-0.000331,0.005016
"2019-05-06 15:50:51.954 +0000",1557157851.953560,-0.057825,0.023604,-1.193442,-0.057777,-0.023601,-0.998051,0.000000,0.000000,0.000000,-1,0.009384,0.002451,0.000745,-0.004617,0.000744,0.007633
"2019-05-06 15:50:51.973 +0000",1557157851.973458,-0.057800,0.023585,-1.193333,-0.057751,-0.023583,-0.998052,0.000000,0.000000,0.000000,-1,-0.011054,0.000542,0.009090,-0.009891,-0.001792,0.003546
"2019-05-06 15:50:51.993 +0000",1557157851.993354,-0.057986,0.023228,-1.193200,-0.057938,-0.023226,-0.998050,0.000000,0.000000,0.000000,-1,-0.019795,-0.018543,0.004743,-0.001617,-0.003416,0.002856
"2019-05-06 15:50:52.013 +0000",1557157852.013252,-0.058300,0.022922,-1.193146,-0.058251,-0.022920,-0.998039,0.000000,0.000000,0.000000,-1,-0.006847,-0.010168,0.003800,-0.002997,-0.000655,0.006553
"2019-05-06 15:50:52.033 +0000",1557157852.033149,-0.058386,0.022857,-1.193017,-0.058338,-0.022855,-0.998035,0.000000,0.000000,0.000000,-1,-0.004619,0.005765,0.013435,-0.004330,-0.001086,0.004978
"2019-05-06 15:50:52.053 +0000",1557157852.053047,-0.058323,0.022756,-1.192774,-0.058275,-0.022754,-0.998041,0.000000,0.000000,0.000000,-1,0.001802,-0.000686,0.006021,-0.008025,0.000843,-0.000723
"2019-05-06 15:50:52.073 +0000",1557157852.072944,-0.058405,0.022859,-1.192698,-0.058357,-0.022857,-0.998034,0.000000,0.000000,0.000000,-1,0.007171,-0.001808,0.002869,-0.005089,0.002990,0.005282
"2019-05-06 15:50:52.093 +0000",1557157852.092842,-0.058461,0.022920,-1.192657,-0.058412,-0.022918,-0.998029,0.000000,0.000000,0.000000,-1,-0.002469,-0.003802,0.001696,-0.005232,0.000518,0.009092
"2019-05-06 15:50:52.113 +0000",1557157852.112739,-0.058557,0.022786,-1.192560,-0.058509,-0.022784,-0.998027,0.000000,0.000000,0.000000,-1,-0.012149,-0.001580,0.009082,-0.005700,0.001482,0.005717
"2019-05-06 15:50:52.133 +0000",1557157852.132636,-0.058593,0.022517,-1.192442,-0.058544,-0.022515,-0.998031,0.000000,0.000000,0.000000,-1,-0.012080,-0.001535,0.002658,-0.003544,0.002496,0.003906
"2019-05-06 15:50:52.153 +0000",1557157852.152534,-0.058576,0.022399,-1.192429,-0.058528,-0.022398,-0.998034,0.000000,0.000000,0.000000,-1,-0.000238,0.005771,0.003847,-0.003087,0.002714,0.003940
"2019-05-06 15:50:52.172 +0000",1557157852.172430,-0.058315,0.022478,-1.192496,-0.058267,-0.022476,-0.998048,0.000000,0.000000,0.000000,-1,0.005439,0.021816,-0.008966,-0.000616,0.003067,0.005571
"2019-05-06 15:50:52.192 +0000",1557157852.192328,-0.057841,0.022566,-1.192669,-0.057794,-0.022564,-0.998074,0.000000,0.000000,0.000000,-1,0.000107,0.025083,-0.006888,-0.004675,0.002468,0.006390
"2019-05-06 15:50:52.212 +0000",1557157852.212225,-0.057476,0.022500,-1.192813,-0.057430,-0.022498,-0.998096,0.000000,0.000000,0.000000,-1,-0.008630,0.009181,-0.008028,-0.003315,0.001716,0.006320
"2019-05-06 15:50:52.232 +0000",1557157852.232123,-0.057377,0.022195,-1.192976,-0.057331,-0.022193,-0.998109,0.000000,0.000000,0.000000,-1,-0.020445,0.005073,-0.008151,-0.002789,0.002387,0.007035
"2019-05-06 15:50:52.252 +0000",1557157852.252020,-0.057239,0.021742,-1.193130,-0.057195,-0.021740,-0.998126,0.000000,0.000000,0.000000,-1,-0.027890,0.011569,-0.005031,-0.002742,0.003033,0.004611
"2019-05-06 15:50:52.272 +0000",1557157852.271918,-0.056979,0.021214,-1.193276,-0.056935,-0.021213,-0.998152,0.000000,0.000000,0.000000,-1,-0.025700,0.015814,-0.005014,-0.003322,0.002429,0.004775
"2019-05-06 15:50:52.292 +0000",1557157852.291815,-0.056704,0.020620,-1.193410,-0.056661,-0.020619,-0.998181,0.000000,0.000000,0.000000,-1,-0.034355,0.009508,-0.002957,-0.001612,0.001500,0.003552
"2019-05-06 15:50:52.312 +0000",1557157852.311713,-0.056654,0.019922,-1.193442,-0.056612,-0.019921,-0.998197,0.000000,0.000000,0.000000,-1,-0.029265,-0.003463,0.006758,-0.006193,-0.000785,0.003447
"2019-05-06 15:50:52.332 +0000",1557157852.331610,-0.057060,0.019485,-1.193260,-0.057018,-0.019484,-0.998183,0.000000,0.000000,0.000000,-1,-0.004943,-0.032623,0.000648,-0.002628,-0.002962,0.007323
"2019-05-06 15:50:52.352 +0000",1557157852.351507,-0.057672,0.019565,-1.193280,-0.057629,-0.019564,-0.998146,0.000000,0.000000,0.000000,-1,-0.001534,-0.018752,-0.002550,-0.004047,0.000506,0.001000
"2019-05-06 15:50:52.371 +0000",1557157852.371405,-0.057272,0.019007,-1.193408,-0.057230,-0.019006,-0.998180,0.000000,0.000000,0.000000,-1,-0.037100,0.042726,-0.009463,-0.005087,-0.004691,-0.005360
"2019-05-06 15:50:52.391 +0000",1557157852.391302,-0.056496,0.018612,-1.193816,-0.056456,-0.018611,-0.998232,0.000000,0.000000,0.000000,-1,-0.000731,0.028428,-0.025102,0.001433,0.009456,0.013429
"2019-05-06 15:50:52.411 +0000",1557157852.411199,-0.056429,0.019058,-1.194382,-0.056389,-0.019057,-0.998227,0.000000,0.000000,0.000000,-1,0.029894,-0.010441,-0.031129,-0.002312,0.009887,0.018628
"2019-05-06 15:50:52.431 +0000",1557157852.431096,-0.056495,0.019232,-1.195046,-0.056455,-0.019230,-0.998220,0.000000,0.000000,0.000000,-1,-0.022288,0.005294,-0.036008,-0.001696,0.007237,0.007940
"2019-05-06 15:50:52.451 +0000",1557157852.450978,-0.056334,0.018495,-1.195859,-0.056294,-0.018494,-0.998243,0.000000,0.000000,0.000000,-1,-0.048966,0.007834,-0.039516,0.003789,0.006669,-0.000552
"2019-05-06 15:50:52.471 +0000",1557157852.470876,-0.056229,0.017595,-1.196576,-0.056190,-0.017594,-0.998265,0.000000,0.000000,0.000000,-1,-0.042782,0.004410,-0.021240,0.001777,0.003449,0.004231
"2019-05-06 15:50:52.491 +0000",1557157852.490774,-0.056119,0.016778,-1.196793,-0.056082,-0.016777,-0.998285,0.000000,0.000000,0.000000,-1,-0.031213,0.003055,-0.003980,-0.001276,-0.009300,0.001795
"2019-05-06 15:50:52.511 +0000",1557157852.510671,-0.056145,0.016380,-1.196947,-0.056108,-0.016379,-0.998290,0.000000,0.000000,0.000000,-1,-0.007716,-0.004723,-0.009064,-0.000715,-0.005670,0.002929
"2019-05-06 15:50:52.531 +0000",1557157852.530568,-0.056261,0.016266,-1.197099,-0.056223,-0.016266,-0.998286,0.000000,0.000000,0.000000,-1,-0.007766,-0.007937,-0.007989,-0.004537,-0.007096,0.004832
"2019-05-06 15:50:52.550 +0000",1557157852.550466,-0.056516,0.016198,-1.197338,-0.056479,-0.016197,-0.998272,0.000000,0.000000,0.000000,-1,0.002933,-0.014449,-0.015356,-0.006601,-0.002388,0.001355
"2019-05-06 15:50:52.570 +0000",1557157852.570363,-0.056647,0.016462,-1.197666,-0.056609,-0.016461,-0.998261,0.000000,0.000000,0.000000,-1,0.017103,0.005675,-0.017376,-0.010072,0.002072,0.006638
"2019-05-06 15:50:52.590 +0000",1557157852.590260,-0.056347,0.016818,-1.197946,-0.056310,-0.016817,-0.998272,0.000000,0.000000,0.000000,-1,0.009810,0.023934,-0.015344,-0.017085,0.002016,0.006145
"2019-05-06 15:50:52.610 +0000",1557157852.610158,-0.055968,0.016870,-1.198254,-0.055931,-0.016869,-0.998292,0.000000,0.000000,0.000000,-1,-0.007441,0.013483,-0.014445,-0.009117,0.004891,0.004487
"2019-05-06 15:50:52.630 +0000",1557157852.630056,-0.055694,0.016678,-1.198511,-0.055657,-0.016677,-0.998311,0.000000,0.000000,0.000000,-1,-0.012771,0.018872,-0.010229,-0.006538,0.005569,0.007695
"2019-05-06 15:50:52.650 +0000",1557157852.649952,-0.055269,0.016495,-1.198708,-0.055233,-0.016494,-0.998337,0.000000,0.000000,0.000000,-1,-0.007369,0.025194,-0.008039,-0.003452,0.004165,0.005982
"2019-05-06 15:50:52.670 +0000",1557157852.669850,-0.054697,0.016385,-1.198823,-0.054662,-0.016384,-0.998370,0.000000,0.000000,0.000000,-1,-0.005150,0.034760,-0.004818,-0.002101,0.000485,0.002689
"2019-05-06 15:50:52.690 +0000",1557157852.689746,-0.053873,0.016258,-1.198944,-0.053840,-0.016257,-0.998417,0.000000,0.000000,0.000000,-1,-0.019859,0.054232,-0.008222,-0.001916,-0.000055,-0.001232
"2019-05-06 15:50:52.710 +0000",1557157852.709644,-0.052579,0.015155,-1.199118,-0.052549,-0.015155,-0.998503,0.000000,0.000000,0.000000,-1,-0.098751,0.083090,-0.001637,0.000440,-0.004987,-0.010103
"2019-05-06 15:50:52.730 +0000",1557157852.729541,-0.050624,0.012430,-1.199411,-0.050599,-0.012429,-0.998642,0.000000,0.000000,0.000000,-1,-0.155038,0.100059,-0.021553,0.002106,0.002877,-0.011032
"2019-05-06 15:50:52.749 +0000",1557157852.749440,-0.049260,0.010147,-1.200141,-0.049238,-0.010146,-0.998736,0.000000,0.000000,0.000000,-1,-0.068889,0.042314,-0.038719,-0.000079,0.015731,0.006640
"2019-05-06 15:50:52.769 +0000",1557157852.769336,-0.048655,0.009783,-1.201112,-0.048634,-0.009783,-0.998769,0.000000,0.000000,0.000000,-1,0.015383,0.011280,-0.050595,-0.004375,0.016634,0.028279
"2019-05-06 15:50:52.789 +0000",1557157852.789234,-0.048928,0.010392,-1.201848,-0.048906,-0.010391,-0.998749,0.000000,0.000000,0.000000,-1,0.033723,-0.040486,-0.022472,-0.006865,0.006882,0.021226
"2019-05-06 15:50:52.809 +0000",1557157852.809131,-0.050156,0.011057,-1.202161,-0.050132,-0.011056,-0.998681,0.000000,0.000000,0.000000,-1,0.027813,-0.077890,-0.011769,-0.001275,0.004266,0.005929
"2019-05-06 15:50:52.829 +0000",1557157852.829029,-0.051558,0.011505,-1.202346,-0.051531,-0.011505,-0.998605,0.000000,0.000000,0.000000,-1,0.022680,-0.061769,-0.013993,0.005450,-0.000565,0.000223
"2019-05-06 15:50:52.849 +0000",1557157852.848925,-0.052779,0.012260,-1.202814,-0.052751,-0.012260,-0.998532,0.000000,0.000000,0.000000,-1,0.060261,-0.063264,-0.028569,0.001481,0.004386,-0.000644
"2019-05-06 15:50:52.869 +0000",1557157852.868823,-0.054090,0.013641,-1.203233,-0.054059,-0.013641,-0.998445,0.000000,0.000000,0.000000,-1,0.067635,-0.062384,-0.016712,-0.000995,0.002975,0.007157
"2019-05-06 15:50:52.889 +0000",1557157852.888721,-0.055044,0.014603,-1.203373,-0.055011,-0.014602,-0.998379,0.000000,0.000000,0.000000,-1,0.031453,-0.035239,-0.004304,-0.010450,0.001449,0.003872
"2019-05-06 15:50:52.909 +0000",1557157852.908617,-0.055684,0.015388,-1.203470,-0.055649,-0.015387,-0.998332,0.000000,0.000000,0.000000,-1,0.039022,-0.033170,-0.009578,0.000213,0.003882,0.012034
"2019-05-06 15:50:52.929 +0000",1557157852.928515,-0.056248,0.016122,-1.203635,-0.056211,-0.016121,-0.998289,0.000000,0.000000,0.000000,-1,0.026434,-0.010560,-0.007611,-0.001193,0.001198,0.007749
"2019-05-06 15:50:52.948 +0000",1557157852.948411,-0.056128,0.016480,-1.203755,-0.056091,-0.016479,-0.998290,0.000000,0.000000,0.000000,-1,0.012841,0.018471,-0.004595,-0.000641,-0.003007,0.003386
"2019-05-06 15:50:52.968 +0000",1557157852.968311,-0.055769,0.016749,-1.203857,-0.055732,-0.016749,-0.998305,0.000000,0.000000,0.000000,-1,0.017068,0.014135,-0.004541,-0.000832,-0.002401,0.001418
"2019-05-06 15:50:52.988 +0000",1557157852.988207,-0.055834,0.017153,-1.203801,-0.055797,-0.017152,-0.998295,0.000000,0.000000,0.000000,-1,0.028373,-0.014962,0.006337,-0.003072,-0.001723,0.002171
"2019-05-06 15:50:53.008 +0000",1557157853.008104,-0.056175,0.017761,-1.203565,-0.056137,-0.017760,-0.998265,0.000000,0.000000,0.000000,-1,0.026152,-0.016045,0.012738,-0.004502,0.001097,0.009236
"2019-05-06 15:50:53.028 +0000",1557157853.028001,-0.056431,0.018119,-1.203378,-0.056392,-0.018118,-0.998244,0.000000,0.000000,0.000000,-1,0.012371,-0.009406,0.008294,-0.004002,0.002935,0.004714
"2019-05-06 15:50:53.048 +0000",1557157853.047899,-0.056645,0.018275,-1.203159,-0.056605,-0.018274,-0.998229,0.000000,0.000000,0.000000,-1,0.003719,-0.012528,0.013558,-0.005406,0.003336,0.002273
"2019-05-06 15:50:53.068 +0000",1557157853.067796,-0.056769,0.018304,-1.202856,-0.056729,-0.018303,-0.998222,0.000000,0.000000,0.000000,-1,0.003849,0.000282,0.015680,-0.005786,0.003746,0.002357
"2019-05-06 15:50:53.088 +0000",1557157853.087694,-0.056723,0.018405,-1.202521,-0.056683,-0.018404,-0.998223,0.000000,0.000000,0.000000,-1,0.009213,0.003397,0.017875,-0.006489,0.004488,0.002144
"2019-05-06 15:50:53.108 +0000",1557157853.107591,-0.056772,0.018531,-1.202192,-0.056732,-0.018530,-0.998217,0.000000,0.000000,0.000000,-1,0.004841,-0.007207,0.014632,-0.004105,0.004492,0.006244
"2019-05-06 15:50:53.127 +0000",1557157853.127489,-0.056910,0.018499,-1.201913,-0.056870,-0.018498,-0.998210,0.000000,0.000000,0.000000,-1,-0.007929,-0.001681,0.014484,-0.004471,0.004139,0.005596
"2019-05-06 15:50:53.147 +0000",1557157853.147386,-0.056902,0.018285,-1.201658,-0.056862,-0.018284,-0.998215,0.000000,0.000000,0.000000,-1,-0.011051,0.003723,0.012299,-0.002601,0.005452,0.003540
"2019-05-06 15:50:53.167 +0000",1557157853.167282,-0.056743,0.018057,-1.201502,-0.056703,-0.018056,-0.998228,0.000000,0.000000,0.000000,-1,-0.007719,0.011181,0.009112,-0.002486,0.005620,0.002973
"2019-05-06 15:50:53.187 +0000",1557157853.187180,-0.056600,0.017826,-1.201318,-0.056561,-0.017825,-0.998240,0.000000,0.000000,0.000000,-1,-0.012084,0.005883,0.011214,-0.004627,0.002947,0.002970
"2019-05-06 15:50:53.207 +0000",1557157853.207078,-0.056384,0.017576,-1.201116,-0.056345,-0.017575,-0.998257,0.000000,0.000000,0.000000,-1,-0.006622,0.014365,0.010189,-0.006933,0.004437,0.003857
"2019-05-06 15:50:53.227 +0000",1557157853.226975,-0.056194,0.017530,-1.200922,-0.056156,-0.017529,-0.998268,0.000000,0.000000,0.000000,-1,0.001856,0.006770,0.009224,-0.001874,0.000821,0.005852
"2019-05-06 15:50:53.247 +0000",1557157853.246872,-0.056057,0.017553,-1.200754,-0.056019,-0.017552,-0.998275,0.000000,0.000000,0.000000,-1,0.004032,0.008884,0.008173,-0.002758,0.001271,0.006347
"2019-05-06 15:50:53.267 +0000",1557157853.266770,-0.055935,0.017651,-1.200636,-0.055897,-0.017650,-0.998281,0.000000,0.000000,0.000000,-1,0.006152,0.002479,0.002853,0.001683,0.002223,0.006413
"2019-05-06 15:50:53.287 +0000",1557157853.286667,-0.056028,0.017778,-1.200627,-0.055989,-0.017777,-0.998273,0.000000,0.000000,0.000000,-1,0.009267,-0.008232,-0.000307,-0.000346,0.003723,0.003995
"2019-05-06 15:50:53.307 +0000",1557157853.306565,-0.056188,0.017995,-1.200564,-0.056149,-0.017994,-0.998260,0.000000,0.000000,0.000000,-1,0.010292,-0.007216,0.005056,-0.000720,0.003452,0.006424
"2019-05-06 15:50:53.326 +0000",1557157853.326462,-0.056403,0.018252,-1.200413,-0.056364,-0.018251,-0.998243,0.000000,0.000000,0.000000,-1,0.010204,-0.011519,0.008278,-0.000414,0.001634,0.004744
"2019-05-06 15:50:53.346 +0000",1557157853.346359,-0.056604,0.018300,-1.200262,-0.056564,-0.018299,-0.998231,0.000000,0.000000,0.000000,-1,-0.005752,-0.005933,0.005953,-0.003693,0.001194,-0.000395
"2019-05-06 15:50:53.366 +0000",1557157853.366257,-0.056596,0.018137,-1.200175,-0.056556,-0.018136,-0.998235,0.000000,0.000000,0.000000,-1,-0.005637,0.003686,0.005939,-0.003670,0.001626,-0.000606
"2019-05-06 15:50:53.386 +0000",1557157853.386153,-0.056526,0.018043,-1.200045,-0.056486,-0.018042,-0.998240,0.000000,0.000000,0.000000,-1,-0.002454,0.001503,0.005977,-0.006899,0.001730,0.007640
"2019-05-06 15:50:53.406 +0000",1557157853.406051,-0.056592,0.018021,-1.199945,-0.056553,-0.018020,-0.998237,0.000000,0.000000,0.000000,-1,0.001795,-0.003879,0.002820,-0.003719,-0.000199,0.006156
"2019-05-06 15:50:53.426 +0000",1557157853.425948,-0.056612,0.018083,-1.199927,-0.056573,-0.018082,-0.998235,0.000000,0.000000,0.000000,-1,0.006195,0.002502,-0.001425,-0.004661,-0.000732,0.007054
"2019-05-06 15:50:53.446 +0000",1557157853.445846,-0.056609,0.018227,-1.199944,-0.056570,-0.018226,-0.998232,0.000000,0.000000,0.000000,-1,0.009402,0.001396,-0.002459,-0.001185,-0.001091,0.005068
"2019-05-06 15:50:53.466 +0000",1557157853.465751,-0.056522,0.018332,-1.199975,-0.056483,-0.018331,-0.998235,0.000000,0.000000,0.000000,-1,0.001968,0.006838,-0.001478,-0.003057,-0.001658,0.003210
"2019-05-06 15:50:53.486 +0000",1557157853.485650,-0.056441,0.018336,-1.200012,-0.056402,-0.018335,-0.998240,0.000000,0.000000,0.000000,-1,0.003011,0.003624,-0.002532,-0.004664,0.000421,0.003611
"2019-05-06 15:50:53.506 +0000",1557157853.505546,-0.056233,0.018399,-1.200048,-0.056194,-0.018398,-0.998250,0.000000,0.000000,0.000000,-1,0.002110,0.019655,-0.000427,-0.007680,0.000255,0.005956
