timestamp,timeIntervalSince1970,attitude.roll,attitude.pitch,attitude.yaw,gravity.x,gravity.y,gravity.z,magneticField.x,magneticField.y,magneticField.z,magneticField.accuracy,rotationRate.x,rotationRate.y,rotationRate.z,userAcceleration.x,userAcceleration.y,userAcceleration.z
"2019-04-16 11:02:25.594 +0000",1555412545.594350,-0.039709,0.381088,0.014568,-0.036850,-0.371931,-0.927529,0.000000,0.000000,0.000000,-1,0.160228,-0.478973,0.208575,0.013153,-0.066866,0.270867
"2019-04-16 11:02:25.614 +0000",1555412545.614308,-0.043224,0.375868,0.019413,-0.040194,-0.367080,-0.929320,0.000000,0.000000,0.000000,-1,-0.649158,0.232600,0.245378,-0.025953,-0.063294,0.290679
"2019-04-16 11:02:25.634 +0000",1555412545.634297,-0.038721,0.358669,0.023652,-0.036248,-0.351028,-0.935663,0.000000,0.000000,0.000000,-1,-0.927403,0.249132,0.204445,-0.029182,-0.088928,0.061960
"2019-04-16 11:02:25.654 +0000",1555412545.654253,-0.039154,0.344117,0.026268,-0.036849,-0.337366,-0.940652,0.000000,0.000000,0.000000,-1,-0.452532,-0.130603,0.119399,-0.041627,-0.155051,-0.163336
"2019-04-16 11:02:25.674 +0000",1555412545.674213,-0.041720,0.339158,0.027872,-0.039332,-0.332694,-0.942214,0.000000,0.000000,0.000000,-1,-0.125435,-0.057342,0.022410,-0.091283,-0.104791,-0.041932
"2019-04-16 11:02:25.694 +0000",1555412545.694199,-0.043095,0.336812,0.025842,-0.040661,-0.330480,-0.942937,0.000000,0.000000,0.000000,-1,-0.114077,-0.199712,-0.174609,-0.099201,-0.069011,0.016133
"2019-04-16 11:02:25.714 +0000",1555412545.714157,-0.052600,0.333698,0.022903,-0.049675,-0.327539,-0.943531,0.000000,0.000000,0.000000,-1,-0.241684,-0.891806,-0.121117,-0.095924,0.058130,0.094898
"2019-04-16 11:02:25.734 +0000",1555412545.734144,-0.067707,0.329479,0.017102,-0.064016,-0.323550,-0.944043,0.000000,0.000000,0.000000,-1,-0.244142,-0.678295,-0.326343,-0.044764,-0.047040,0.155118
"2019-04-16 11:02:25.754 +0000",1555412545.754103,-0.077402,0.322734,0.011845,-0.073332,-0.317161,-0.945532,0.000000,0.000000,0.000000,-1,-0.471354,-0.451000,-0.154013,-0.024538,-0.075127,0.096259
"2019-04-16 11:02:25.774 +0000",1555412545.774061,-0.111484,0.359801,0.016297,-0.104130,-0.352088,-0.930156,0.000000,0.000000,0.000000,-1,-0.496529,-0.009131,-0.360509,-0.102322,-0.059411,0.000820
"2019-04-16 11:02:25.794 +0000",1555412545.794048,-0.128468,0.332616,0.014087,-0.121093,-0.326517,-0.937402,0.000000,0.000000,0.000000,-1,-0.651565,0.447360,-0.502963,-0.036911,-0.059866,0.064844
"2019-04-16 11:02:25.814 +0000",1555412545.814006,-0.126994,0.352054,0.006167,-0.118885,-0.344826,-0.931107,0.000000,0.000000,0.000000,-1,-0.670748,0.546342,-0.458690,0.048160,-0.013130,-0.021590
"2019-04-16 11:02:25.834 +0000",1555412545.833963,-0.109624,0.368339,-0.004825,-0.102067,-0.360066,-0.927327,0.000000,0.000000,0.000000,-1,-0.537215,0.412984,-0.282660,0.097214,0.022344,-0.028499
"2019-04-16 11:02:25.854 +0000",1555412545.853952,-0.117382,0.366844,-0.004438,-0.109321,-0.358671,-0.927040,0.000000,0.000000,0.000000,-1,-0.557169,0.307394,-0.143348,0.080069,-0.009829,0.011834
"2019-04-16 11:02:25.874 +0000",1555412545.873910,-0.124237,0.363002,-0.003587,-0.115842,-0.355082,-0.927630,0.000000,0.000000,0.000000,-1,-0.654959,0.119259,-0.068456,0.069074,-0.010961,0.030734
"2019-04-16 11:02:25.894 +0000",1555412545.893898,-0.120824,0.353088,-0.008594,-0.113094,-0.345797,-0.931469,0.000000,0.000000,0.000000,-1,-0.587995,-0.394183,-0.157411,-0.030994,0.023455,-0.029011
"2019-04-16 11:02:25.914 +0000",1555412545.913855,-0.119259,0.344704,-0.019758,-0.111977,-0.337918,-0.934490,0.000000,0.000000,0.000000,-1,-0.294463,-0.995234,-0.331693,-0.030463,0.001493,-0.065067
"2019-04-16 11:02:25.934 +0000",1555412545.933813,-0.127364,0.342706,-0.030502,-0.119634,-0.336037,-0.934220,0.000000,0.000000,0.000000,-1,-0.326219,-1.000230,-0.247480,0.037313,0.023827,0.078721
"2019-04-16 11:02:25.954 +0000",1555412545.953802,-0.133101,0.337923,-0.038251,-0.125204,-0.331528,-0.935101,0.000000,0.000000,0.000000,-1,-0.617751,-0.458997,-0.130631,-0.005702,0.049454,0.115658
"2019-04-16 11:02:25.974 +0000",1555412545.973758,-0.135519,0.323842,-0.042704,-0.128082,-0.318211,-0.939328,0.000000,0.000000,0.000000,-1,-0.915393,-0.126127,-0.023544,0.008804,0.074818,0.110501
"2019-04-16 11:02:25.994 +0000",1555412545.993716,-0.140677,0.300670,-0.039658,-0.133923,-0.296161,-0.945703,0.000000,0.000000,0.000000,-1,-1.520487,-0.188847,0.870726,0.349468,0.026446,0.260080
"2019-04-16 11:02:26.014 +0000",1555412546.013705,-0.147000,0.258785,-0.020412,-0.141594,-0.255906,-0.956276,0.000000,0.000000,0.000000,-1,-2.161255,0.004567,1.224654,-0.048394,0.048539,0.231651
"2019-04-16 11:02:26.034 +0000",1555412546.033663,-0.158736,0.217037,-0.007782,-0.154361,-0.215337,-0.964263,0.000000,0.000000,0.000000,-1,-1.792173,-0.970704,0.764118,-0.043316,0.067342,0.033003
"2019-04-16 11:02:26.054 +0000",1555412546.053593,-0.180620,0.183379,0.003271,-0.176628,-0.182352,-0.967238,0.000000,0.000000,0.000000,-1,-1.301292,-0.909536,0.839636,0.074256,0.066142,0.199782
"2019-04-16 11:02:26.074 +0000",1555412546.073581,-0.204448,0.158623,0.015960,-0.200478,-0.157958,-0.966880,0.000000,0.000000,0.000000,-1,-0.956449,-1.299976,0.850824,0.025856,0.018401,0.261665
"2019-04-16 11:02:26.094 +0000",1555412546.093539,-0.233952,0.134097,0.028624,-0.229742,-0.133695,-0.964025,0.000000,0.000000,0.000000,-1,-1.324600,-1.469062,0.948985,0.083273,-0.002779,0.437978
"2019-04-16 11:02:26.114 +0000",1555412546.113527,-0.268581,0.094786,0.042039,-0.264172,-0.094644,-0.959821,0.000000,0.000000,0.000000,-1,-2.101749,-1.944353,1.365842,0.164364,0.069482,0.373853
"2019-04-16 11:02:26.133 +0000",1555412546.133484,-0.317837,0.042488,0.060825,-0.312231,-0.042475,-0.949056,0.000000,0.000000,0.000000,-1,-2.279561,-2.982262,1.957229,0.165960,0.142130,0.277807
"2019-04-16 11:02:26.153 +0000",1555412546.153441,-0.394176,-0.013627,0.087463,-0.384011,0.013627,-0.923228,0.000000,0.000000,0.000000,-1,-2.053902,-4.646132,2.388217,-0.061271,0.161895,0.277720
"2019-04-16 11:02:26.173 +0000",1555412546.173430,-0.499667,-0.070631,0.110474,-0.477938,0.070572,-0.875554,0.000000,0.000000,0.000000,-1,-2.191652,-5.856835,2.060255,-0.301725,0.092636,0.136998
"2019-04-16 11:02:26.193 +0000",1555412546.193389,-0.611943,-0.129096,0.121540,-0.569679,0.128737,-0.811722,0.000000,0.000000,0.000000,-1,-2.100085,-5.229059,2.128638,-0.285027,0.196840,-0.192764
"2019-04-16 11:02:26.213 +0000",1555412546.213345,-0.701822,-0.187320,0.136630,-0.634316,0.186226,-0.750308,0.000000,0.000000,0.000000,-1,-1.570879,-4.045461,2.603319,-0.180946,0.140525,-0.294934
"2019-04-16 11:02:26.233 +0000",1555412546.233333,-0.768186,-0.247364,0.160233,-0.673682,0.244849,-0.697282,0.000000,0.000000,0.000000,-1,-1.529977,-3.152028,3.097664,-0.075784,0.096917,0.062012
"2019-04-16 11:02:26.253 +0000",1555412546.253291,-0.816422,-0.322292,0.176568,-0.691181,0.316742,-0.649572,0.000000,0.000000,0.000000,-1,-2.743369,-2.016018,3.364235,-0.105038,0.041412,0.369589
"2019-04-16 11:02:26.273 +0000",1555412546.273281,-0.849334,-0.417051,0.172450,-0.686484,0.405066,-0.603872,0.000000,0.000000,0.000000,-1,-3.732117,-1.292072,3.292543,-0.210321,0.045480,-0.078135
"2019-04-16 11:02:26.293 +0000",1555412546.293237,-0.886543,-0.507635,0.159684,-0.677175,0.486112,-0.552385,0.000000,0.000000,0.000000,-1,-2.627882,-1.943834,2.867741,-0.155574,-0.022809,-0.683073
"2019-04-16 11:02:26.313 +0000",1555412546.313195,-0.923110,-0.568903,0.163176,-0.671872,0.538708,-0.508312,0.000000,0.000000,0.000000,-1,-1.147662,-1.782626,2.130127,-0.076052,-0.083691,-0.410069
"2019-04-16 11:02:26.333 +0000",1555412546.333183,-0.946976,-0.612789,0.171510,-0.663970,0.575151,-0.477854,0.000000,0.000000,0.000000,-1,-1.013603,-0.874474,1.939896,0.018005,-0.066347,-0.132940
"2019-04-16 11:02:26.353 +0000",1555412546.353141,-0.940015,-0.657908,0.177791,-0.639006,0.611463,-0.466674,0.000000,0.000000,0.000000,-1,-1.324324,1.160468,2.002504,-0.087114,0.108523,-0.032899
"2019-04-16 11:02:26.373 +0000",1555412546.373100,-0.908955,-0.708139,0.173537,-0.599199,0.650421,-0.466811,0.000000,0.000000,0.000000,-1,-1.900024,1.990592,1.756353,-0.149275,0.247879,-0.058534
"2019-04-16 11:02:26.393 +0000",1555412546.393087,-0.887537,-0.754017,0.157904,-0.565311,0.684572,-0.460200,0.000000,0.000000,0.000000,-1,-1.713186,0.873810,1.034069,-0.119534,0.261579,-0.347920
"2019-04-16 11:02:26.413 +0000",1555412546.413044,-0.902208,-0.779265,0.139182,-0.558258,0.702756,-0.441001,0.000000,0.000000,0.000000,-1,-0.987497,-0.992248,0.028033,-0.162796,0.204730,-0.203881
"2019-04-16 11:02:26.433 +0000",1555412546.433033,-0.955372,-0.783835,0.109514,-0.578275,0.706001,-0.408854,0.000000,0.000000,0.000000,-1,-1.063430,-2.068362,-0.803589,-0.090533,0.179787,0.099558
"2019-04-16 11:02:26.453 +0000",1555412546.452991,-1.028673,-0.782421,0.070414,-0.607519,0.704998,-0.365921,0.000000,0.000000,0.000000,-1,-1.125483,-2.394299,-0.696739,0.160528,0.136753,0.044281
"2019-04-16 11:02:26.473 +0000",1555412546.472948,-1.095851,-0.785669,0.034985,-0.628672,0.707298,-0.323266,0.000000,0.000000,0.000000,-1,-1.309487,-1.731448,-0.197876,0.274363,0.130043,0.178063
"2019-04-16 11:02:26.493 +0000",1555412546.492936,-1.143866,-0.800417,0.003597,-0.633899,0.717646,-0.288367,0.000000,0.000000,0.000000,-1,-1.395271,-0.676026,0.488138,0.431812,0.223775,0.267875
"2019-04-16 11:02:26.513 +0000",1555412546.512893,-1.173431,-0.823075,-0.031526,-0.626989,0.733240,-0.263142,0.000000,0.000000,0.000000,-1,-1.625781,0.030605,0.484986,0.101827,0.236944,0.091252
"2019-04-16 11:02:26.533 +0000",1555412546.532851,-1.202717,-0.839095,-0.070425,-0.623384,0.744039,-0.240411,0.000000,0.000000,0.000000,-1,-1.382834,-0.041963,0.030884,0.067324,0.165080,0.007776
"2019-04-16 11:02:26.553 +0000",1555412546.552839,-1.234956,-0.845022,-0.109231,-0.626636,0.747986,-0.218736,0.000000,0.000000,0.000000,-1,-1.322920,-0.350800,-0.332787,0.136264,0.211777,0.066987
"2019-04-16 11:02:26.573 +0000",1555412546.572797,-1.276987,-0.844485,-0.150015,-0.635657,0.747629,-0.192329,0.000000,0.000000,0.000000,-1,-1.160558,-0.718930,-0.552047,0.078452,0.079214,-0.004464
"2019-04-16 11:02:26.593 +0000",1555412546.592786,-1.317195,-0.837700,-0.186476,-0.647771,0.743106,-0.167890,0.000000,0.000000,0.000000,-1,-1.044454,-0.551518,-0.738942,0.044118,-0.078234,0.061293
"2019-04-16 11:02:26.613 +0000",1555412546.612742,-1.353882,-0.829061,-0.221884,-0.659737,0.737297,-0.145394,0.000000,0.000000,0.000000,-1,-1.104652,-0.488482,-0.626425,0.031579,-0.111946,0.042229
"2019-04-16 11:02:26.633 +0000",1555412546.632701,-1.386747,-0.823885,-0.258312,-0.667901,0.733791,-0.124334,0.000000,0.000000,0.000000,-1,-1.168044,-0.134558,-0.369907,0.095300,-0.069347,-0.039637
"2019-04-16 11:02:26.653 +0000",1555412546.652689,-1.414454,-0.823123,-0.292169,-0.671642,0.733273,-0.105870,0.000000,0.000000,0.000000,-1,-1.093118,-0.164918,-0.158512,0.022746,0.066257,0.016423
"2019-04-16 11:02:26.673 +0000",1555412546.672646,-1.442489,-0.821678,-0.322786,-0.675395,0.732290,-0.087137,0.000000,0.000000,0.000000,-1,-0.901006,-0.445864,-0.202595,0.052119,0.044749,-0.042792
"2019-04-16 11:02:26.693 +0000",1555412546.692604,-1.472157,-0.820309,-0.345406,-0.678680,0.731357,-0.067163,0.000000,0.000000,0.000000,-1,-0.660695,-0.777518,-0.233200,0.010299,0.201093,0.009484
"2019-04-16 11:02:26.713 +0000",1555412546.712592,-1.501511,-0.818024,-0.362064,-0.682024,0.729796,-0.047330,0.000000,0.000000,0.000000,-1,-0.397963,-1.057985,0.133855,0.081851,-0.092910,-0.104800
"2019-04-16 11:02:26.733 +0000",1555412546.732550,-1.525213,-0.822895,-0.371772,-0.679395,0.733118,-0.030991,0.000000,0.000000,0.000000,-1,-0.386894,-0.580256,0.232195,-0.052981,0.054922,0.131851
"2019-04-16 11:02:26.753 +0000",1555412546.752538,-1.541437,-0.827463,-0.383558,-0.676454,0.736217,-0.019866,0.000000,0.000000,0.000000,-1,-0.448296,-0.201542,0.165742,-0.046324,0.049977,0.086028
"2019-04-16 11:02:26.772 +0000",1555412546.772497,-1.545664,-0.834811,-0.390521,-0.671106,0.741169,-0.016870,0.000000,0.000000,0.000000,-1,-0.442924,0.006044,0.035447,-0.003577,0.046169,0.030924
"2019-04-16 11:02:26.792 +0000",1555412546.792454,-1.547525,-0.836217,-0.399173,-0.670094,0.742113,-0.015597,0.000000,0.000000,0.000000,-1,-0.470571,0.045979,-0.214079,0.015949,0.067229,-0.011167
"2019-04-16 11:02:26.812 +0000",1555412546.812441,-1.567708,-0.825159,-0.418977,-0.678437,0.734656,-0.002095,0.000000,0.000000,0.000000,-1,-0.525962,-0.345983,-0.522746,0.030426,0.059076,0.006154
"2019-04-16 11:02:26.832 +0000",1555412546.832400,-1.597554,-0.809441,-0.440588,-0.689656,0.723902,0.018458,0.000000,0.000000,0.000000,-1,-0.588412,-0.699613,-1.003781,-0.004619,-0.025553,0.020589
"2019-04-16 11:02:26.852 +0000",1555412546.852357,-1.621132,-0.783233,-0.449573,-0.707739,0.705574,0.035655,0.000000,0.000000,0.000000,-1,-0.156980,-1.227908,-1.782349,0.059225,0.001305,-0.118388
"2019-04-16 11:02:26.872 +0000",1555412546.872346,-1.651786,-0.743686,-0.443825,-0.733566,0.677005,0.059542,0.000000,0.000000,0.000000,-1,0.277054,-2.254095,-2.089210,0.206420,-0.034595,-0.027712
"2019-04-16 11:02:26.892 +0000",1555412546.892303,-1.692020,-0.705079,-0.423360,-0.755972,0.648094,0.092093,0.000000,0.000000,0.000000,-1,0.946152,-2.969112,-1.860982,0.178045,-0.031410,-0.048422
"2019-04-16 11:02:26.912 +0000",1555412546.912291,-1.718071,-0.676405,-0.383411,-0.771387,0.625993,0.114434,0.000000,0.000000,0.000000,-1,1.640665,-2.007677,-1.346429,0.024759,-0.151872,0.026862
"2019-04-16 11:02:26.932 +0000",1555412546.932249,-1.728724,-0.670287,-0.343770,-0.773891,0.621211,0.123245,0.000000,0.000000,0.000000,-1,1.026927,-1.743555,0.433590,0.187984,-0.676295,-0.085846
"2019-04-16 11:02:26.952 +0000",1555412546.952207,-1.755434,-0.685428,-0.342378,-0.760990,0.633004,0.142126,0.000000,0.000000,0.000000,-1,-0.635279,-0.734176,1.049746,0.075718,-0.075051,0.190286
"2019-04-16 11:02:26.972 +0000",1555412546.972195,-1.771734,-0.715209,-0.376201,-0.739766,0.655775,0.150680,0.000000,0.000000,0.000000,-1,-1.140017,1.099008,2.072785,-0.044627,0.241243,0.162888
"2019-04-16 11:02:26.992 +0000",1555412546.992152,-1.767116,-0.743943,-0.414735,-0.721671,0.677194,0.143527,0.000000,0.000000,0.000000,-1,-1.179088,1.812168,1.165694,-0.136072,0.677802,0.209318
"2019-04-16 11:02:27.012 +0000",1555412547.012111,-1.762271,-0.749112,-0.453777,-0.718911,0.680989,0.139360,0.000000,0.000000,0.000000,-1,-1.470790,1.085705,0.139219,-0.042762,0.293270,-0.082399
"2019-04-16 11:02:27.032 +0000",1555412547.032099,-1.777645,-0.745748,-0.496672,-0.718921,0.678522,0.150866,0.000000,0.000000,0.000000,-1,-1.672753,0.316813,0.204200,0.028827,-0.116800,-0.096743
"2019-04-16 11:02:27.052 +0000",1555412547.052005,-1.806758,-0.742967,-0.538546,-0.716057,0.676476,0.172169,0.000000,0.000000,0.000000,-1,-1.379912,-0.434248,0.190986,0.023720,-0.165825,-0.113591
"2019-04-16 11:02:27.072 +0000",1555412547.071993,-1.844761,-0.741917,-0.577056,-0.709682,0.675702,0.199443,0.000000,0.000000,0.000000,-1,-1.457614,-0.509796,0.431230,0.068783,-0.226041,0.090077
"2019-04-16 11:02:27.092 +0000",1555412547.091951,-1.881351,-0.740226,-0.625761,-0.702998,0.674455,0.225620,0.000000,0.000000,0.000000,-1,-2.042391,0.072758,0.390369,0.020060,-0.293153,0.185162
"2019-04-16 11:02:27.112 +0000",1555412547.111909,-1.913388,-0.732306,-0.686181,-0.700420,0.668586,0.249809,0.000000,0.000000,0.000000,-1,-2.550186,0.944257,0.266479,0.035564,-0.182761,0.347146
"2019-04-16 11:02:27.132 +0000",1555412547.131897,-1.936954,-0.713639,-0.754096,-0.705871,0.654589,0.270666,0.000000,0.000000,0.000000,-1,-2.605189,0.804611,-0.342724,-0.066209,-0.080248,-0.067983
"2019-04-16 11:02:27.152 +0000",1555412547.151854,-1.961178,-0.682317,-0.806235,-0.717722,0.630593,0.295344,0.000000,0.000000,0.000000,-1,-2.383514,0.328142,-0.987544,-0.021902,0.041328,-0.115397
"2019-04-16 11:02:27.172 +0000",1555412547.171812,-1.980512,-0.646048,-0.852773,-0.732383,0.602036,0.318069,0.000000,0.000000,0.000000,-1,-2.501231,0.639857,-0.823233,0.149863,0.069015,0.095902
"2019-04-16 11:02:27.192 +0000",1555412547.191799,-1.987962,-0.611543,-0.902427,-0.748547,0.574132,0.331739,0.000000,0.000000,0.000000,-1,-2.462253,1.590105,-0.814548,0.204571,0.159404,0.000399
"2019-04-16 11:02:27.212 +0000",1555412547.211758,-1.970010,-0.576997,-0.939137,-0.772202,0.545509,0.325767,0.000000,0.000000,0.000000,-1,-1.610391,2.424430,-1.128757,0.264099,-0.053703,-0.052253
"2019-04-16 11:02:27.232 +0000",1555412547.231746,-1.910154,-0.546839,-0.956621,-0.805457,0.519990,0.284338,0.000000,0.000000,0.000000,-1,-1.153506,5.207018,-1.225645,0.395408,-0.180940,0.216821
"2019-04-16 11:02:27.252 +0000",1555412547.251703,-1.770758,-0.507098,-0.973277,-0.856739,0.485643,0.173635,0.000000,0.000000,0.000000,-1,-1.144655,8.169773,-1.991112,0.916523,-0.345872,-0.026968
"2019-04-16 11:02:27.272 +0000",1555412547.271661,-1.704071,-0.472624,-0.992147,-0.882481,0.455224,0.118314,0.000000,0.000000,0.000000,-1,-1.009744,-2.571624,-0.958990,0.338429,-0.125650,-0.454023
"2019-04-16 11:02:27.292 +0000",1555412547.291649,-1.853487,-0.454293,-1.003193,-0.862906,0.438827,0.250648,0.000000,0.000000,0.000000,-1,-0.356368,-9.392633,-0.900986,0.465521,0.043092,-0.225944
"2019-04-16 11:02:27.312 +0000",1555412547.311607,-1.990123,-0.449827,-1.000227,-0.822504,0.434810,0.366644,0.000000,0.000000,0.000000,-1,0.283368,-2.098168,2.660169,0.272257,-0.290629,1.506037
"2019-04-16 11:02:27.332 +0000",1555412547.331565,-1.968030,-0.575054,-1.039364,-0.773821,0.543880,0.324646,0.000000,0.000000,0.000000,-1,1.562832,4.637510,7.054753,-0.144377,0.449879,0.260300
"2019-04-16 11:02:27.352 +0000",1555412547.351552,-1.869900,-0.701133,-1.049765,-0.730186,0.645084,0.225156,0.000000,0.000000,0.000000,-1,1.971293,5.123647,5.068461,-0.015054,0.191769,-0.346235
"2019-04-16 11:02:27.372 +0000",1555412547.371511,-1.769096,-0.791774,-1.022483,-0.688816,0.711601,0.138411,0.000000,0.000000,0.000000,-1,1.956086,2.797749,3.398645,0.040393,0.087762,-0.172591
"2019-04-16 11:02:27.391 +0000",1555412547.391499,-1.719786,-0.856909,-0.994399,-0.647523,0.755822,0.097194,0.000000,0.000000,0.000000,-1,0.934861,0.510035,2.954915,0.096879,-0.047220,-0.040492
"2019-04-16 11:02:27.411 +0000",1555412547.411457,-1.717676,-0.923964,-1.003788,-0.596172,0.797997,0.088201,0.000000,0.000000,0.000000,-1,-0.362384,0.459689,3.791921,0.117443,-0.173119,-0.055287
"2019-04-16 11:02:27.431 +0000",1555412547.431414,-1.742725,-0.995612,-1.036259,-0.535970,0.839092,0.093067,0.000000,0.000000,0.000000,-1,-0.153403,-0.198473,3.354187,-0.095851,0.120625,-0.048588
"2019-04-16 11:02:27.451 +0000",1555412547.451403,-1.750700,-1.053750,-1.046459,-0.486337,0.869283,0.088450,0.000000,0.000000,0.000000,-1,0.691090,0.371673,2.546161,0.008874,0.143275,0.140249
"2019-04-16 11:02:27.471 +0000",1555412547.471360,-1.715469,-1.103856,-1.017019,-0.445454,0.892950,0.064898,0.000000,0.000000,0.000000,-1,1.375220,0.399110,2.312371,0.153401,0.045405,0.008161
"2019-04-16 11:02:27.491 +0000",1555412547.491318,-1.662472,-1.150205,-0.965716,-0.406586,0.912848,0.037379,0.000000,0.000000,0.000000,-1,1.261334,0.339438,1.995227,0.104019,0.069910,0.066182
"2019-04-16 11:02:27.511 +0000",1555412547.511307,-1.625986,-1.186136,-0.919601,-0.374673,0.926926,0.020699,0.000000,0.000000,0.000000,-1,1.009033,-0.886681,1.282552,-0.327017,0.909118,-0.218407
"2019-04-16 11:02:27.531 +0000",1555412547.531263,-1.591294,-1.202158,-0.865367,-0.360270,0.932819,0.007386,0.000000,0.000000,0.000000,-1,0.926904,-0.245069,0.348704,-0.413229,1.635128,0.218872
"2019-04-16 11:02:27.551 +0000",1555412547.551251,-1.563375,-1.201794,-0.841995,-0.360675,0.932688,-0.002677,0.000000,0.000000,0.000000,-1,-0.090955,0.255530,-0.309126,-0.131192,0.313986,0.081900
"2019-04-16 11:02:27.571 +0000",1555412547.571210,-1.582576,-1.196177,-0.858107,-0.365893,0.930647,0.004310,0.000000,0.000000,0.000000,-1,-0.391503,-0.403457,-0.271160,0.223254,-0.249998,0.018410
"2019-04-16 11:02:27.591 +0000",1555412547.591168,-1.600128,-1.190350,-0.869444,-0.371175,0.928499,0.010890,0.000000,0.000000,0.000000,-1,0.022462,-0.289186,-0.328046,0.112523,-0.233186,0.034199
"2019-04-16 11:02:27.611 +0000",1555412547.611155,-1.588893,-1.185220,-0.852752,-0.376032,0.926582,0.006806,0.000000,0.000000,0.000000,-1,0.501306,-0.238501,-0.216231,-0.029486,-0.103416,0.009430
"2019-04-16 11:02:27.631 +0000",1555412547.631114,-1.575769,-1.180092,-0.830733,-0.380835,0.924641,0.001894,0.000000,0.000000,0.000000,-1,0.208066,-0.524565,-0.389505,-0.130594,-0.043599,0.056715
"2019-04-16 11:02:27.651 +0000",1555412547.651070,-1.590870,-1.171885,-0.829113,-0.388337,0.921485,0.007796,0.000000,0.000000,0.000000,-1,-0.102163,-1.075529,-0.409862,-0.148498,0.006891,0.052446
"2019-04-16 11:02:27.671 +0000",1555412547.671059,-1.610723,-1.168612,-0.828080,-0.391117,0.920208,0.015624,0.000000,0.000000,0.000000,-1,0.129586,-0.925417,0.020116,-0.066509,0.114795,0.033234
"2019-04-16 11:02:27.691 +0000",1555412547.691018,-1.635217,-1.162539,-0.836557,-0.396187,0.917814,0.025558,0.000000,0.000000,0.000000,-1,-0.653235,-0.857736,-0.720273,-0.107201,-0.238325,0.006256
"2019-04-16 11:02:27.711 +0000",1555412547.711007,-1.685321,-1.150973,-0.866059,-0.404929,0.913161,0.046578,0.000000,0.000000,0.000000,-1,-0.289826,-1.406937,-0.224941,0.180899,-0.100997,-0.407921
"2019-04-16 11:02:27.731 +0000",1555412547.730963,-1.695450,-1.154079,-0.850525,-0.401621,0.914422,0.050324,0.000000,0.000000,0.000000,-1,0.926854,-0.906628,0.435210,0.108347,0.152136,-0.368073
"2019-04-16 11:02:27.751 +0000",1555412547.750922,-1.661911,-1.167062,-0.799513,-0.391226,0.919600,0.035745,0.000000,0.000000,0.000000,-1,1.033351,-0.665466,0.525855,-0.065592,0.063035,-0.129144
"2019-04-16 11:02:27.771 +0000",1555412547.770910,-1.646909,-1.176856,-0.761615,-0.382719,0.923404,0.029186,0.000000,0.000000,0.000000,-1,0.518325,-1.329840,0.348200,-0.086718,-0.034396,0.025898
"2019-04-16 11:02:27.791 +0000",1555412547.790867,-1.655841,-1.183388,-0.741376,-0.376425,0.925891,0.032090,0.000000,0.000000,0.000000,-1,0.365294,-1.273727,0.248275,-0.015680,0.010190,-0.020616
"2019-04-16 11:02:27.811 +0000",1555412547.810825,-1.657939,-1.187909,-0.721449,-0.372183,0.927590,0.032515,0.000000,0.000000,0.000000,-1,0.427342,-0.797864,0.157825,0.059240,0.045799,-0.071853
"2019-04-16 11:02:27.831 +0000",1555412547.830813,-1.650807,-1.191874,-0.701649,-0.368736,0.929064,0.029566,0.000000,0.000000,0.000000,-1,0.313225,-0.337022,0.191033,0.123649,0.041716,0.016241
"2019-04-16 11:02:27.851 +0000",1555412547.850769,-1.645459,-1.196083,-0.692014,-0.364986,0.930613,0.027302,0.000000,0.000000,0.000000,-1,0.057211,-0.006672,0.191575,0.110988,0.087469,0.087460
"2019-04-16 11:02:27.871 +0000",1555412547.870757,-1.649254,-1.198455,-0.700148,-0.362678,0.931478,0.028514,0.000000,0.000000,0.000000,-1,-0.299001,0.332082,0.067209,0.097450,0.114512,0.126363
"2019-04-16 11:02:27.891 +0000",1555412547.890715,-1.662183,-1.197782,-0.721778,-0.362904,0.931233,0.033257,0.000000,0.000000,0.000000,-1,-0.483638,0.357105,-0.055289,0.019566,0.054332,0.041892
"2019-04-16 11:02:27.911 +0000",1555412547.910674,-1.682130,-1.195897,-0.750376,-0.363912,0.930544,0.040684,0.000000,0.000000,0.000000,-1,-0.552072,0.335675,-0.029043,-0.049571,-0.032626,-0.048374
"2019-04-16 11:02:27.931 +0000",1555412547.930661,-1.702942,-1.194982,-0.780719,-0.363830,0.930209,0.048360,0.000000,0.000000,0.000000,-1,-0.578689,0.406599,0.136109,-0.052002,-0.125613,-0.123845
"2019-04-16 11:02:27.951 +0000",1555412547.950620,-1.736296,-1.202339,-0.827970,-0.355255,0.932884,0.059337,0.000000,0.000000,0.000000,-1,-0.863678,0.763037,0.459153,-0.099441,-0.202446,-0.092846
"2019-04-16 11:02:27.971 +0000",1555412547.970577,-1.779686,-1.204826,-0.890346,-0.350076,0.933777,0.074210,0.000000,0.000000,0.000000,-1,-1.211910,0.653303,0.127421,-0.194571,-0.119736,-0.222113
"2019-04-16 11:02:27.991 +0000",1555412547.990565,-1.829320,-1.195892,-0.958319,-0.354015,0.930543,0.093616,0.000000,0.000000,0.000000,-1,-1.407856,0.906079,-0.499797,-0.232594,-0.127824,-0.186115
"2019-04-16 11:02:28.011 +0000",1555412548.010524,-1.863628,-1.169471,-1.016597,-0.374009,0.920544,0.112763,0.000000,0.000000,0.000000,-1,-1.344914,0.924361,-1.475447,-0.202452,-0.192624,-0.235337
"2019-04-16 11:02:28.031 +0000",1555412548.030511,-1.866535,-1.123336,-1.039955,-0.413893,0.901549,0.126102,0.000000,0.000000,0.000000,-1,-0.960494,1.223613,-2.646400,0.078353,-0.359847,0.183117
"2019-04-16 11:02:28.050 +0000",1555412548.050425,-1.851401,-1.063653,-1.050052,-0.466686,0.874135,0.134503,0.000000,0.000000,0.000000,-1,-1.207726,0.904276,-2.918554,0.390804,-0.452322,0.310993
"2019-04-16 11:02:28.070 +0000",1555412548.070384,-1.848581,-0.998171,-1.059082,-0.521070,0.840481,0.148587,0.000000,0.000000,0.000000,-1,-0.942527,0.387552,-3.192901,0.350278,-0.499936,0.115421
"2019-04-16 11:02:28.090 +0000",1555412548.090373,-1.835407,-0.935041,-1.053066,-0.573118,0.804623,0.155295,0.000000,0.000000,0.000000,-1,-0.479073,0.477726,-2.845129,0.430754,-0.753476,0.061273
"2019-04-16 11:02:28.110 +0000",1555412548.110331,-1.819282,-0.878712,-1.045430,-0.618543,0.769918,0.156943,0.000000,0.000000,0.000000,-1,-0.570034,0.339630,-2.951095,-0.123461,-0.126836,0.435266
"2019-04-16 11:02:28.130 +0000",1555412548.130287,-1.814940,-0.809028,-1.047400,-0.669734,0.723616,0.166839,0.000000,0.000000,0.000000,-1,-1.084656,0.667273,-3.989778,-0.727604,0.888932,0.795242
"2019-04-16 11:02:28.150 +0000",1555412548.150277,-1.788787,-0.718274,-1.041227,-0.735124,0.658086,0.162838,0.000000,0.000000,0.000000,-1,-0.698271,0.848261,-4.641639,-0.969924,0.688685,0.428974
"2019-04-16 11:02:28.170 +0000",1555412548.170234,-1.784287,-0.635789,-1.041656,-0.786337,0.593812,0.170474,0.000000,0.000000,0.000000,-1,-1.049114,-0.280965,-3.121167,-0.798884,-0.150743,0.123136
"2019-04-16 11:02:28.190 +0000",1555412548.190221,-1.801878,-0.595198,-1.050324,-0.806028,0.560672,0.189646,0.000000,0.000000,0.000000,-1,-0.359214,-0.698849,-0.870334,-0.562899,-0.774143,0.240499
"2019-04-16 11:02:28.210 +0000",1555412548.210179,-1.811819,-0.583425,-1.044846,-0.810456,0.550886,0.199211,0.000000,0.000000,0.000000,-1,0.417612,-0.761147,-0.496727,-0.410109,-0.048185,0.487054
"2019-04-16 11:02:28.230 +0000",1555412548.230136,-1.819431,-0.580741,-1.031498,-0.810347,0.548644,0.205738,0.000000,0.000000,0.000000,-1,0.523031,-0.858766,0.016734,-0.466799,0.109712,0.391049
"2019-04-16 11:02:28.250 +0000",1555412548.250124,-1.834525,-0.586962,-1.021964,-0.803839,0.553834,0.217051,0.000000,0.000000,0.000000,-1,0.427255,-1.113424,0.359235,-0.708048,-0.102921,0.415319
"2019-04-16 11:02:28.270 +0000",1555412548.270083,-1.853830,-0.600185,-1.013305,-0.792398,0.564795,0.230462,0.000000,0.000000,0.000000,-1,0.662649,-1.293041,0.730927,-0.608420,-0.385596,0.360541
"2019-04-16 11:02:28.290 +0000",1555412548.290039,-1.869000,-0.621637,-1.001992,-0.777048,0.582367,0.238840,0.000000,0.000000,0.000000,-1,0.844289,-0.832289,1.073486,-0.245031,-0.567032,0.358465
"2019-04-16 11:02:28.310 +0000",1555412548.310028,-1.872975,-0.650073,-0.988931,-0.759972,0.605244,0.236902,0.000000,0.000000,0.000000,-1,0.975576,-0.389203,1.338725,0.028206,-0.424931,0.251914
"2019-04-16 11:02:28.330 +0000",1555412548.329986,-1.869945,-0.683966,-0.976569,-0.740650,0.631872,0.228419,0.000000,0.000000,0.000000,-1,0.920834,-0.052247,1.594327,0.204456,-0.323126,0.222768
"2019-04-16 11:02:28.350 +0000",1555412548.349974,-1.861729,-0.719147,-0.967583,-0.720751,0.658743,0.215813,0.000000,0.000000,0.000000,-1,0.780133,0.225070,1.514848,0.263537,-0.296576,0.195640
"2019-04-16 11:02:28.370 +0000",1555412548.369932,-1.850615,-0.752020,-0.960728,-0.701906,0.683115,0.201698,0.000000,0.000000,0.000000,-1,0.587306,0.577369,1.587455,0.374971,-0.485728,0.391060
"2019-04-16 11:02:28.390 +0000",1555412548.389889,-1.829784,-0.788062,-0.960765,-0.681702,0.708988,0.180608,0.000000,0.000000,0.000000,-1,0.500555,1.517040,1.904093,0.447037,-0.574848,0.206828
"2019-04-16 11:02:28.410 +0000",1555412548.409878,-1.789787,-0.833631,-0.954651,-0.656138,0.740377,0.146030,0.000000,0.000000,0.000000,-1,1.018775,1.886073,2.477668,0.552012,-0.679769,-0.139194
"2019-04-16 11:02:28.430 +0000",1555412548.429836,-1.738131,-0.893873,-0.934493,-0.617649,0.779504,0.104330,0.000000,0.000000,0.000000,-1,1.367062,1.755490,3.165478,0.637195,-0.708275,-0.171056
"2019-04-16 11:02:28.450 +0000",1555412548.449793,-1.676578,-0.963682,-0.903524,-0.567311,0.821298,0.060236,0.000000,0.000000,0.000000,-1,1.377775,1.909335,3.497338,0.694936,-0.690637,-0.119959
"2019-04-16 11:02:28.470 +0000",1555412548.469781,-1.610659,-1.039234,-0.865970,-0.506478,0.862016,0.020200,0.000000,0.000000,0.000000,-1,1.128985,1.389863,3.933866,0.785225,-0.713564,-0.112379
"2019-04-16 11:02:28.490 +0000",1555412548.489739,-1.572423,-1.122480,-0.833226,-0.433448,0.901178,0.000705,0.000000,0.000000,0.000000,-1,0.759741,-0.491663,4.327675,0.564597,-0.414362,-0.151157
"2019-04-16 11:02:28.510 +0000",1555412548.509726,-1.489321,-1.212657,-0.750400,-0.349370,0.936551,-0.028528,0.000000,0.000000,0.000000,-1,2.133538,1.931060,4.865712,0.656575,0.120655,-0.636145
"2019-04-16 11:02:28.530 +0000",1555412548.529685,-1.196307,-1.300713,-0.512436,-0.248320,0.963749,-0.097599,0.000000,0.000000,0.000000,-1,3.100008,4.111823,4.655185,0.332137,2.521557,-0.880383
"2019-04-16 11:02:28.550 +0000",1555412548.549642,-0.962165,-1.315890,-0.317010,-0.206876,0.967687,-0.144169,0.000000,0.000000,0.000000,-1,-0.528582,0.264307,-0.846377,-0.593829,1.646159,0.681644
"2019-04-16 11:02:28.570 +0000",1555412548.569630,-1.168768,-1.325437,-0.501349,-0.223538,0.970050,-0.095045,0.000000,0.000000,0.000000,-1,-3.290568,-3.012315,0.073550,0.499340,-0.517887,0.410917
"2019-04-16 11:02:28.590 +0000",1555412548.589588,-1.453520,-1.363159,-0.734375,-0.204733,0.978521,-0.024121,0.000000,0.000000,0.000000,-1,-2.015795,-1.288431,2.304301,0.536626,-0.779653,0.588330
"2019-04-16 11:02:28.610 +0000",1555412548.609546,-1.387875,-1.422382,-0.713553,-0.145404,0.989007,-0.026898,0.000000,0.000000,0.000000,-1,1.690052,5.250256,3.220186,0.114382,-0.082009,-0.286197
"2019-04-16 11:02:28.630 +0000",1555412548.629534,-0.640468,-1.436188,-0.063092,-0.080195,0.990954,-0.107605,0.000000,0.000000,0.000000,-1,4.858666,3.057317,2.521925,-1.356191,1.189618,-1.763641
"2019-04-16 11:02:28.649 +0000",1555412548.649492,-0.170807,-1.365107,0.377631,-0.034716,0.978920,-0.201270,0.000000,0.000000,0.000000,-1,3.833375,3.643647,1.808034,-2.484433,1.697135,1.380698
"2019-04-16 11:02:28.669 +0000",1555412548.669480,0.042729,-1.326568,0.530314,0.010329,0.970324,-0.241587,0.000000,0.000000,0.000000,-1,0.193536,0.724227,1.385628,-3.343184,0.615949,1.000895
"2019-04-16 11:02:28.689 +0000",1555412548.689437,0.139278,-1.327995,0.651773,0.033377,0.970668,-0.238094,0.000000,0.000000,0.000000,-1,-0.017762,-2.158484,1.424138,-2.567862,-0.578792,0.484905
"2019-04-16 11:02:28.709 +0000",1555412548.709396,0.135943,-1.319588,0.697329,0.033688,0.968613,-0.246281,0.000000,0.000000,0.000000,-1,0.766612,-2.646140,0.007983,-0.772427,-0.137100,0.164738
"2019-04-16 11:02:28.729 +0000",1555412548.729384,0.095224,-1.294756,0.708880,0.025914,0.962142,-0.271313,0.000000,0.000000,0.000000,-1,1.450805,-2.166957,0.566415,0.307063,0.305939,-0.034031
"2019-04-16 11:02:28.749 +0000",1555412548.749340,0.072613,-1.271565,0.725023,0.021386,0.955563,-0.294009,0.000000,0.000000,0.000000,-1,0.669943,-2.055030,0.139084,-0.078332,-0.095639,0.198337
"2019-04-16 11:02:28.769 +0000",1555412548.769299,0.026176,-1.268253,0.720170,0.007798,0.954582,-0.297847,0.000000,0.000000,0.000000,-1,-0.310445,-1.788846,-0.279980,-0.121110,-0.387336,0.809657
"2019-04-16 11:02:28.789 +0000",1555412548.789287,-0.026234,-1.282605,0.686238,-0.007455,0.958759,-0.284121,0.000000,0.000000,0.000000,-1,-1.065113,-0.132939,-0.741090,-0.179190,-0.705784,0.996432
"2019-04-16 11:02:28.809 +0000",1555412548.809244,-0.107653,-1.310202,0.593864,-0.027684,0.966237,-0.256163,0.000000,0.000000,0.000000,-1,-1.904591,0.561632,-1.639935,-0.461895,-0.966741,0.791197
"2019-04-16 11:02:28.829 +0000",1555412548.829232,-0.312686,-1.345892,0.379929,-0.068602,0.974815,-0.212200,0.000000,0.000000,0.000000,-1,-2.505331,-0.536748,-2.593518,-0.370973,-1.008171,0.097576
"2019-04-16 11:02:28.849 +0000",1555412548.849191,-0.677516,-1.362351,0.034418,-0.129722,0.978354,-0.161232,0.000000,0.000000,0.000000,-1,-2.466541,-2.020833,-3.121822,-0.022439,-0.963736,-0.139518
"2019-04-16 11:02:28.869 +0000",1555412548.869147,-1.139297,-1.342438,-0.377154,-0.205629,0.974039,-0.094679,0.000000,0.000000,0.000000,-1,-3.422392,-4.668856,-4.017671,-0.200667,-0.559885,0.061339
"2019-04-16 11:02:28.889 +0000",1555412548.889136,-1.543508,-1.268121,-0.684317,-0.297965,0.954542,-0.008133,0.000000,0.000000,0.000000,-1,-2.341592,-4.934902,-5.004704,-0.247644,-0.041533,-0.840484
"2019-04-16 11:02:28.909 +0000",1555412548.909094,-1.644345,-1.148657,-0.734449,-0.408605,0.912215,0.030106,0.000000,0.000000,0.000000,-1,0.296883,1.712801,-6.722012,-0.923792,2.062273,-0.590287
"2019-04-16 11:02:28.929 +0000",1555412548.929052,-1.535364,-1.028978,-0.760444,-0.515371,0.856772,-0.018268,0.000000,0.000000,0.000000,-1,-3.356439,4.175912,-4.988902,-1.214991,5.614251,1.787052
"2019-04-16 11:02:28.949 +0000",1555412548.949039,-1.643329,-0.934641,-0.864041,-0.592546,0.804386,0.043055,0.000000,0.000000,0.000000,-1,-2.025543,-3.470498,-4.301162,-0.304976,0.985898,-0.514536
"2019-04-16 11:02:28.969 +0000",1555412548.968998,-1.729065,-0.852967,-0.898896,-0.649531,0.753235,0.103667,0.000000,0.000000,0.000000,-1,-1.403473,-1.721139,-3.635916,0.637919,-0.245194,0.048570
"2019-04-16 11:02:28.989 +0000",1555412548.988985,-1.771524,-0.784564,-0.919554,-0.693487,0.706517,0.141102,0.000000,0.000000,0.000000,-1,-1.079737,-1.516914,-2.722172,0.692328,-0.561360,-0.196369
"2019-04-16 11:02:29.009 +0000",1555412549.008943,-1.796856,-0.738310,-0.923692,-0.720789,0.673039,0.165775,0.000000,0.000000,0.000000,-1,-0.070638,-0.479948,-1.691056,0.303812,-0.478901,0.097012
"2019-04-16 11:02:29.029 +0000",1555412549.028901,-1.785635,-0.725282,-0.905234,-0.731109,0.663346,0.159533,0.000000,0.000000,0.000000,-1,0.744431,0.460709,0.344896,0.372940,-0.585572,-0.046038
"2019-04-16 11:02:29.049 +0000",1555412549.048890,-1.766855,-0.750337,-0.907710,-0.717446,0.681885,0.142492,0.000000,0.000000,0.000000,-1,-0.316679,1.445733,1.811947,0.489876,-0.985810,0.122599
"2019-04-16 11:02:29.069 +0000",1555412549.068799,-1.755947,-0.789202,-0.933119,-0.692373,0.709791,0.129679,0.000000,0.000000,0.000000,-1,-0.587481,1.241684,2.230765,1.059026,-1.178358,-0.004114
"2019-04-16 11:02:29.089 +0000",1555412549.088757,-1.764634,-0.831092,-0.953553,-0.661446,0.738668,0.129844,0.000000,0.000000,0.000000,-1,-0.078307,-0.347359,2.116428,1.156273,-1.288900,-0.011222
"2019-04-16 11:02:29.109 +0000",1555412549.108745,-1.766858,-0.869385,-0.972570,-0.632934,0.763932,0.125709,0.000000,0.000000,0.000000,-1,-0.435576,1.771740,1.871409,1.147429,-1.318772,0.196130
"2019-04-16 11:02:29.129 +0000",1555412549.128702,-1.745379,-0.903099,-0.995908,-0.609768,0.785249,0.107550,0.000000,0.000000,0.000000,-1,-0.273845,1.676268,1.764185,1.216625,-1.187593,-0.303534
"2019-04-16 11:02:29.149 +0000",1555412549.148691,-1.747556,-0.936530,-1.015906,-0.583353,0.805507,0.104201,0.000000,0.000000,0.000000,-1,-0.571456,-0.304331,1.668348,1.019251,-0.771037,0.038377
"2019-04-16 11:02:29.169 +0000",1555412549.168648,-1.816168,-0.963796,-1.052741,-0.553321,0.821363,0.138561,0.000000,0.000000,0.000000,-1,0.828365,-2.435196,1.398428,0.682517,0.074023,-0.746945
"2019-04-16 11:02:29.189 +0000",1555412549.188606,-1.674629,-0.999477,-0.925997,-0.537830,0.841189,0.056046,0.000000,0.000000,0.000000,-1,5.328137,6.191422,0.835858,0.526737,2.538465,-0.445939
"2019-04-16 11:02:29.209 +0000",1555412549.208593,-1.414126,-1.019844,-0.798041,-0.517087,0.852026,-0.081681,0.000000,0.000000,0.000000,-1,0.307707,6.579623,0.930302,-0.094302,3.840967,0.811998
"2019-04-16 11:02:29.229 +0000",1555412549.228552,-1.406871,-1.056818,-0.879202,-0.485055,0.870795,-0.080233,0.000000,0.000000,0.000000,-1,-3.940693,0.803121,2.059974,0.210809,-0.514915,-0.994657
"2019-04-16 11:02:29.249 +0000",1555412549.248509,-1.567629,-1.112934,-1.027442,-0.442029,0.896999,-0.001400,0.000000,0.000000,0.000000,-1,-2.438000,-2.454703,2.758437,-0.489108,-0.744412,-1.073276
"2019-04-16 11:02:29.268 +0000",1555412549.268497,-1.511700,-1.169933,-0.967669,-0.389532,0.920724,-0.023047,0.000000,0.000000,0.000000,-1,4.447988,1.721640,2.886082,-2.339670,0.354880,-1.450861
"2019-04-16 11:02:29.288 +0000",1555412549.288455,-1.112336,-1.208518,-0.605073,-0.317807,0.935092,-0.156848,0.000000,0.000000,0.000000,-1,6.561269,5.456608,3.924574,-3.051379,0.255872,-0.606244
"2019-04-16 11:02:29.308 +0000",1555412549.308444,-0.782469,-1.210588,-0.370629,-0.248502,0.935823,-0.249962,0.000000,0.000000,0.000000,-1,-0.053383,-0.514010,0.783174,-5.002093,-0.232759,2.638253
"2019-04-16 11:02:29.328 +0000",1555412549.328401,-0.864633,-1.226528,-0.389054,-0.256795,0.941323,-0.219015,0.000000,0.000000,0.000000,-1,-1.496028,-4.330792,-0.246019,-0.732371,-0.901177,0.916525
"2019-04-16 11:02:29.348 +0000",1555412549.348359,-1.020309,-1.240494,-0.465273,-0.276415,0.945944,-0.169657,0.000000,0.000000,0.000000,-1,-1.031325,-2.894582,0.229062,0.609164,-0.157309,0.222651
"2019-04-16 11:02:29.368 +0000",1555412549.368347,-1.020451,-1.246299,-0.454229,-0.271755,0.947811,-0.166743,0.000000,0.000000,0.000000,-1,0.672289,1.386490,0.058745,0.175228,0.676777,-0.759862
"2019-04-16 11:02:29.388 +0000",1555412549.388304,-0.962456,-1.237212,-0.414174,-0.268690,0.944875,-0.187129,0.000000,0.000000,0.000000,-1,1.008831,0.124469,0.040825,0.354047,-0.268743,-0.696492
"2019-04-16 11:02:29.408 +0000",1555412549.408262,-0.922431,-1.224511,-0.355440,-0.270531,0.940640,-0.204962,0.000000,0.000000,0.000000,-1,1.174134,-1.704357,0.094680,0.510307,-0.821316,-0.017389
"2019-04-16 11:02:29.428 +0000",1555412549.428250,-0.934930,-1.215094,-0.320342,-0.280186,0.937402,-0.206816,0.000000,0.000000,0.000000,-1,0.103512,-2.216948,-0.219917,0.492344,-1.141244,1.073653
"2019-04-16 11:02:29.448 +0000",1555412549.448208,-1.020129,-1.215338,-0.399133,-0.296574,0.937487,-0.182104,0.000000,0.000000,0.000000,-1,-2.148049,0.901837,-1.405197,-0.167171,-1.191027,1.556173
"2019-04-16 11:02:29.468 +0000",1555412549.468196,-1.163916,-1.199062,-0.563562,-0.333578,0.931699,-0.143748,0.000000,0.000000,0.000000,-1,-2.073987,-0.511060,-2.734300,-0.308863,-0.990918,-0.205663
"2019-04-16 11:02:29.488 +0000",1555412549.488154,-1.339726,-1.146675,-0.712022,-0.400583,0.911401,-0.094246,0.000000,0.000000,0.000000,-1,-1.912021,-3.362538,-4.084743,-0.434378,-0.855355,-0.360802
"2019-04-16 11:02:29.508 +0000",1555412549.508112,-1.543121,-1.051818,-0.838653,-0.495803,0.868326,-0.013725,0.000000,0.000000,0.000000,-1,-2.339205,-5.656713,-6.201894,-1.303635,-0.142222,-0.751381
"2019-04-16 11:02:29.528 +0000",1555412549.528099,-1.689229,-0.900895,-0.903522,-0.616560,0.783883,0.073364,0.000000,0.000000,0.000000,-1,-1.806487,-0.064297,-8.449595,-2.788958,1.995841,0.425034
"2019-04-16 11:02:29.548 +0000",1555412549.548058,-1.588960,-0.756971,-0.874616,-0.726800,0.686722,0.013202,0.000000,0.000000,0.000000,-1,0.733816,2.245019,-4.618929,-1.764045,4.720397,1.349682
"2019-04-16 11:02:29.568 +0000",1555412549.568014,-1.622035,-0.695747,-0.897497,-0.766568,0.640959,0.039313,0.000000,0.000000,0.000000,-1,-1.577321,-1.683552,-3.026040,-0.760760,1.181780,0.119745
"2019-04-16 11:02:29.588 +0000",1555412549.588002,-1.654794,-0.638517,-0.918026,-0.800149,0.596005,0.067369,0.000000,0.000000,0.000000,-1,-0.449792,-0.681337,-2.614906,0.722894,0.226810,-0.516420
"2019-04-16 11:02:29.608 +0000",1555412549.607961,-1.669544,-0.591078,-0.910168,-0.826295,0.557257,0.081861,0.000000,0.000000,0.000000,-1,0.787403,-1.292419,-1.945068,0.799959,0.001566,-0.620649
"2019-04-16 11:02:29.628 +0000",1555412549.627949,-1.666636,-0.568808,-0.886074,-0.838677,0.538628,0.080626,0.000000,0.000000,0.000000,-1,0.980525,0.086106,-0.524794,0.810082,-0.384652,-0.103849
"2019-04-16 11:02:29.648 +0000",1555412549.647907,-1.643427,-0.572339,-0.867759,-0.838420,0.541600,0.061002,0.000000,0.000000,0.000000,-1,0.360831,1.390566,0.682576,1.115169,-0.707325,0.259524
"2019-04-16 11:02:29.668 +0000",1555412549.667864,-1.610543,-0.595781,-0.878353,-0.827057,0.561155,0.032890,0.000000,0.000000,0.000000,-1,-1.129679,2.039797,1.746639,1.545959,-1.137297,0.352699
"2019-04-16 11:02:29.688 +0000",1555412549.687853,-1.616692,-0.640506,-0.917860,-0.800949,0.597601,0.036786,0.000000,0.000000,0.000000,-1,-1.606671,-0.591498,2.701140,1.697510,-1.263464,-0.049222
"2019-04-16 11:02:29.708 +0000",1555412549.707810,-1.671306,-0.690878,-0.959885,-0.766797,0.637214,0.077331,0.000000,0.000000,0.000000,-1,-1.340332,-1.516597,2.561296,1.426984,-1.090400,0.200974
"2019-04-16 11:02:29.728 +0000",1555412549.727767,-1.701404,-0.739285,-0.994641,-0.732657,0.673760,0.096238,0.000000,0.000000,0.000000,-1,-0.526168,0.874289,2.621106,1.339270,-0.915108,0.000228
"2019-04-16 11:02:29.748 +0000",1555412549.747756,-1.681055,-0.785494,-1.001172,-0.702746,0.707174,0.077800,0.000000,0.000000,0.000000,-1,0.680829,0.865703,1.772919,0.590975,-0.171881,-0.446635
"2019-04-16 11:02:29.768 +0000",1555412549.767714,-1.636981,-0.798907,-0.940052,-0.695963,0.716594,0.046129,0.000000,0.000000,0.000000,-1,4.418044,0.194007,-1.226260,-0.405172,0.753254,-1.217272
"2019-04-16 11:02:29.788 +0000",1555412549.787702,-1.568042,-0.746602,-0.844797,-0.733998,0.679148,-0.002022,0.000000,0.000000,0.000000,-1,0.578080,-0.641889,-3.079963,-0.650661,2.147084,1.675087
"2019-04-16 11:02:29.808 +0000",1555412549.807659,-1.535805,-0.714317,-0.844799,-0.755078,0.655101,-0.026432,0.000000,0.000000,0.000000,-1,-0.315084,3.512371,-0.147832,-1.641025,4.178929,-0.059032
"2019-04-16 11:02:29.828 +0000",1555412549.827616,-1.502275,-0.750664,-0.859495,-0.729520,0.682125,-0.050066,0.000000,0.000000,0.000000,-1,-1.115594,1.101087,3.587914,0.588651,-0.587078,-0.406645
"2019-04-16 11:02:29.848 +0000",1555412549.847605,-1.494988,-0.851810,-0.884530,-0.656731,0.752473,-0.049881,0.000000,0.000000,0.000000,-1,-0.620310,1.524381,6.115374,0.568474,-1.556566,-0.834991
"2019-04-16 11:02:29.868 +0000",1555412549.867563,-1.403515,-0.964562,-0.809157,-0.561823,0.821799,-0.094869,0.000000,0.000000,0.000000,-1,3.846804,0.416791,4.574173,-1.942373,0.517388,-1.639155
"2019-04-16 11:02:29.888 +0000",1555412549.887520,-1.236588,-1.010764,-0.626868,-0.501822,0.847238,-0.174249,0.000000,0.000000,0.000000,-1,4.738126,0.942748,3.806311,-0.718988,0.495169,-0.631125
"2019-04-16 11:02:29.908 +0000",1555412549.907508,-1.022908,-1.046107,-0.357787,-0.427619,0.865480,-0.260935,0.000000,0.000000,0.000000,-1,4.812129,-2.313861,3.823350,-2.049050,-0.177766,1.194696
"2019-04-16 11:02:29.927 +0000",1555412549.927466,-0.993074,-1.060146,-0.287218,-0.409426,0.872427,-0.266912,0.000000,0.000000,0.000000,-1,-1.228932,-1.112979,0.124907,-1.346663,-1.170782,2.451207
"2019-04-16 11:02:29.947 +0000",1555412549.947423,-1.091901,-1.076850,-0.372746,-0.420769,0.880469,-0.218466,0.000000,0.000000,0.000000,-1,-2.975876,-1.095597,-0.437422,0.427743,-0.189749,0.997656
"2019-04-16 11:02:29.967 +0000",1555412549.967412,-1.199200,-1.097548,-0.477140,-0.424672,0.890093,-0.165495,0.000000,0.000000,0.000000,-1,-1.874992,-0.721222,0.030967,0.854406,0.118544,-0.197268
"2019-04-16 11:02:29.987 +0000",1555412549.987370,-1.258662,-1.098931,-0.528539,-0.432584,0.890722,-0.139587,0.000000,0.000000,0.000000,-1,-0.801682,-0.183540,-0.692638,0.599729,-0.421484,-0.443161
"2019-04-16 11:02:30.007 +0000",1555412550.007359,-1.301584,-1.087878,-0.571970,-0.447639,0.885644,-0.123508,0.000000,0.000000,0.000000,-1,-0.869934,-0.782521,-0.762027,0.494529,-0.969277,-0.641949
"2019-04-16 11:02:30.027 +0000",1555412550.027316,-1.381876,-1.080651,-0.635509,-0.462378,0.882264,-0.088407,0.000000,0.000000,0.000000,-1,-1.929786,-1.066104,-0.796436,-0.100580,-0.881700,-0.118227
"2019-04-16 11:02:30.047 +0000",1555412550.047274,-1.466940,-1.060763,-0.736616,-0.485575,0.872728,-0.050612,0.000000,0.000000,0.000000,-1,-2.415522,1.444568,-1.992694,-0.227468,-0.950594,0.251449
"2019-04-16 11:02:30.067 +0000",1555412550.067236,-1.527079,-1.002072,-0.857278,-0.538043,0.842589,-0.023537,0.000000,0.000000,0.000000,-1,-3.946852,1.982297,-4.917305,-1.410642,-0.688261,1.450493
"2019-04-16 11:02:30.087 +0000",1555412550.087193,-1.662614,-0.857298,-0.973634,-0.651726,0.756077,0.060009,0.000000,0.000000,0.000000,-1,-2.921244,-6.939319,-9.355750,-2.486427,-0.120137,-1.637111
"2019-04-16 11:02:30.107 +0000",1555412550.107152,-1.778608,-0.636853,-0.981639,-0.786674,0.594668,0.165875,0.000000,0.000000,0.000000,-1,-1.268686,-0.192811,-11.585464,-3.250131,2.233441,0.551823
"2019-04-16 11:02:30.127 +0000",1555412550.127140,-1.701197,-0.464394,-0.934591,-0.886502,0.447881,0.116260,0.000000,0.000000,0.000000,-1,1.703661,2.362695,-4.339678,-0.406726,2.461711,-0.437320
"2019-04-16 11:02:30.147 +0000",1555412550.147096,-1.688658,-0.412168,-0.926576,-0.909898,0.400597,0.107741,0.000000,0.000000,0.000000,-1,-1.607024,-0.620344,-3.478189,-0.388732,0.725029,-0.027419
"2019-04-16 11:02:30.167 +0000",1555412550.167085,-1.705777,-0.324625,-0.934226,-0.939150,0.318953,0.127542,0.000000,0.000000,0.000000,-1,0.528861,-0.317627,-3.587599,0.733370,0.144990,-0.864145
"2019-04-16 11:02:30.187 +0000",1555412550.187044,-1.667285,-0.279281,-0.885074,-0.956783,0.275665,0.092606,0.000000,0.000000,0.000000,-1,2.974086,2.488192,-1.555118,0.373287,0.031678,-0.672699
"2019-04-16 11:02:30.207 +0000",1555412550.207001,-1.627061,-0.272464,-0.822097,-0.961587,0.269106,0.054161,0.000000,0.000000,0.000000,-1,2.735743,-0.419797,0.469690,1.409249,-0.193636,-0.072380
"2019-04-16 11:02:30.227 +0000",1555412550.226989,-1.633150,-0.304558,-0.784373,-0.952126,0.299871,0.059446,0.000000,0.000000,0.000000,-1,0.952761,-0.932541,2.462589,2.132103,-0.060308,0.675006
"2019-04-16 11:02:30.247 +0000",1555412550.246947,-1.649353,-0.369716,-0.783293,-0.929554,0.361351,0.073174,0.000000,0.000000,0.000000,-1,-0.056129,-0.963269,3.912418,2.348149,-0.517936,0.704521
"2019-04-16 11:02:30.267 +0000",1555412550.266903,-1.690188,-0.449057,-0.792226,-0.894444,0.434116,0.107300,0.000000,0.000000,0.000000,-1,-0.155273,-2.547751,3.793952,1.603291,-0.321415,0.351700
"2019-04-16 11:02:30.287 +0000",1555412550.286891,-1.742509,-0.509182,-0.822376,-0.860302,0.487463,0.149194,0.000000,0.000000,0.000000,-1,-1.567469,-0.974328,2.426377,1.118252,-0.159613,0.181205
"2019-04-16 11:02:30.307 +0000",1555412550.306850,-1.756123,-0.532156,-0.858774,-0.846959,0.507392,0.158786,0.000000,0.000000,0.000000,-1,-0.621016,1.408542,0.346990,0.487310,0.242180,-0.719684
"2019-04-16 11:02:30.327 +0000",1555412550.326839,-1.701815,-0.519184,-0.839887,-0.860783,0.496172,0.113429,0.000000,0.000000,0.000000,-1,1.812884,2.663882,-1.658837,0.362095,0.166593,-1.157801
"2019-04-16 11:02:30.347 +0000",1555412550.346795,-1.660485,-0.487172,-0.796417,-0.880109,0.468128,0.079148,0.000000,0.000000,0.000000,-1,-0.036990,-4.935221,-1.822664,-0.089374,0.452282,2.429443
"2019-04-16 11:02:30.367 +0000",1555412550.366753,-1.659795,-0.449832,-0.825699,-0.896956,0.434814,0.080040,0.000000,0.000000,0.000000,-1,-3.037266,7.353007,-1.454911,-1.032457,3.499893,-1.097542
"2019-04-16 11:02:30.387 +0000",1555412550.386741,-1.493814,-0.392821,-0.778850,-0.921097,0.382796,-0.071049,0.000000,0.000000,0.000000,-1,5.515090,4.910658,-2.054878,-2.278671,2.653459,-1.574169
"2019-04-16 11:02:30.407 +0000",1555412550.406699,-1.450378,-0.409968,-0.697403,-0.910492,0.398580,-0.110173,0.000000,0.000000,0.000000,-1,1.222728,-3.427175,3.667627,1.243988,-1.824880,1.271718
"2019-04-16 11:02:30.427 +0000",1555412550.426657,-1.539578,-0.512634,-0.712992,-0.871031,0.490474,-0.027201,0.000000,0.000000,0.000000,-1,-4.327796,-0.904614,6.617001,0.840407,-0.871593,1.586542
"2019-04-16 11:02:30.447 +0000",1555412550.446646,-1.551913,-0.605629,-0.829317,-0.821997,0.569280,-0.015524,0.000000,0.000000,0.000000,-1,-0.822844,4.039464,1.439410,-4.093118,2.624080,-3.453120
"2019-04-16 11:02:30.467 +0000",1555412550.466603,-1.366789,-0.670410,-0.720555,-0.767318,0.621307,-0.158747,0.000000,0.000000,0.000000,-1,6.773006,5.431757,6.368342,-0.042069,-0.642074,-1.432745
"2019-04-16 11:02:30.487 +0000",1555412550.486591,-1.260417,-0.749163,-0.550164,-0.697270,0.681026,-0.223647,0.000000,0.000000,0.000000,-1,1.077623,-1.712149,3.583476,-3.438777,-1.802852,4.188689
"2019-04-16 11:02:30.507 +0000",1555412550.506549,-1.294949,-0.766453,-0.585949,-0.693142,0.693584,-0.196203,0.000000,0.000000,0.000000,-1,-3.212662,0.075692,-1.919258,-1.240010,-0.281749,2.063864
"2019-04-16 11:02:30.527 +0000",1555412550.526505,-1.370259,-0.758790,-0.677035,-0.711126,0.688044,-0.144550,0.000000,0.000000,0.000000,-1,-2.150925,-1.557491,0.277386,1.273123,0.789846,-0.293576
"2019-04-16 11:02:30.546 +0000",1555412550.546494,-1.414776,-0.773040,-0.676547,-0.707097,0.698314,-0.111226,0.000000,0.000000,0.000000,-1,1.811699,-2.621295,0.934055,0.242848,0.003437,-1.035533
"2019-04-16 11:02:30.566 +0000",1555412550.566453,-1.399145,-0.786452,-0.584877,-0.695980,0.707851,-0.120653,0.000000,0.000000,0.000000,-1,3.745183,-2.064120,1.276097,0.613232,-0.920513,-0.336088
"2019-04-16 11:02:30.586 +0000",1555412550.586409,-1.350990,-0.794156,-0.504303,-0.684024,0.713272,-0.152822,0.000000,0.000000,0.000000,-1,0.720395,2.495972,0.232471,0.160403,-1.321152,1.773061
"2019-04-16 11:02:30.606 +0000",1555412550.606398,-1.321777,-0.779979,-0.566359,-0.688999,0.703265,-0.175211,0.000000,0.000000,0.000000,-1,-4.254001,2.721580,-2.597015,-0.210644,-1.364489,0.930170
"2019-04-16 11:02:30.626 +0000",1555412550.626355,-1.431526,-0.740723,-0.729363,-0.730835,0.674822,-0.102447,0.000000,0.000000,0.000000,-1,-5.999038,-2.315207,-3.382484,0.471009,-1.216799,-0.015748
"2019-04-16 11:02:30.646 +0000",1555412550.646343,-1.613473,-0.675205,-0.885303,-0.779868,0.625057,0.033302,0.000000,0.000000,0.000000,-1,-5.410315,-5.710344,-4.063888,0.370109,-0.807003,-0.206276
"2019-04-16 11:02:30.666 +0000",1555412550.666301,-1.740812,-0.555543,-0.954721,-0.837365,0.527404,0.143753,0.000000,0.000000,0.000000,-1,0.002595,-3.403369,-7.710723,-1.382591,-0.203079,-1.962814
"2019-04-16 11:02:30.686 +0000",1555412550.686260,-1.788705,-0.395256,-0.883862,-0.901073,0.385045,0.199520,0.000000,0.000000,0.000000,-1,2.717179,2.329426,-6.216811,-3.698552,-0.066258,0.107899
"2019-04-16 11:02:30.706 +0000",1555412550.706248,-1.634360,-0.379097,-0.795376,-0.927123,0.370081,0.059011,0.000000,0.000000,0.000000,-1,2.059763,-0.222652,-1.543711,-5.900987,5.845708,1.504725
"2019-04-16 11:02:30.726 +0000",1555412550.726205,-1.696691,-0.300859,-0.819012,-0.947524,0.296340,0.119922,0.000000,0.000000,0.000000,-1,-2.538545,-2.797362,-5.499686,-0.135210,2.130021,-0.887897
"2019-04-16 11:02:30.746 +0000",1555412550.746162,-1.748148,-0.192305,-0.823345,-0.966170,0.191122,0.173172,0.000000,0.000000,0.000000,-1,-0.138114,-1.614011,-4.736460,1.437849,0.307292,-0.450058
"2019-04-16 11:02:30.766 +0000",1555412550.766151,-1.770961,-0.115573,-0.793686,-0.973496,0.115316,0.197504,0.000000,0.000000,0.000000,-1,1.890170,-1.450829,-3.275605,0.789216,-0.193029,-0.973566
"2019-04-16 11:02:30.786 +0000",1555412550.786108,-1.762615,-0.091933,-0.742773,-0.977514,0.091804,0.189840,0.000000,0.000000,0.000000,-1,2.683316,1.869783,0.052196,1.050664,-0.324653,0.133006
"2019-04-16 11:02:30.806 +0000",1555412550.806096,-1.696925,-0.129532,-0.678159,-0.983745,0.129170,0.124741,0.000000,0.000000,0.000000,-1,3.782179,3.095905,2.353288,1.523983,0.169810,-0.317337
"2019-04-16 11:02:30.826 +0000",1555412550.826054,-1.672046,-0.182829,-0.634251,-0.978297,0.181812,0.099392,0.000000,0.000000,0.000000,-1,0.940284,-1.377872,2.271072,1.889796,0.232677,0.122989
"2019-04-16 11:02:30.846 +0000",1555412550.846011,-1.721402,-0.231179,-0.636126,-0.962378,0.229125,0.146045,0.000000,0.000000,0.000000,-1,-0.512622,-2.740931,2.604040,2.266532,-0.272536,0.346676
"2019-04-16 11:02:30.866 +0000",1555412550.866000,-1.756139,-0.272938,-0.687385,-0.946490,0.269562,0.177462,0.000000,0.000000,0.000000,-1,-3.335054,0.617220,2.336488,2.251254,-0.485871,0.284544
"2019-04-16 11:02:30.886 +0000",1555412550.885958,-1.753875,-0.304914,-0.752429,-0.937932,0.300211,0.173660,0.000000,0.000000,0.000000,-1,-1.694877,1.045921,1.985994,1.844731,-0.377893,-0.816483
"2019-04-16 11:02:30.906 +0000",1555412550.905915,-1.749986,-0.342989,-0.771926,-0.926675,0.336303,0.167851,0.000000,0.000000,0.000000,-1,0.235558,-0.296227,2.075025,1.328332,-0.067611,-0.438771
"2019-04-16 11:02:30.926 +0000",1555412550.925902,-1.790118,-0.384621,-0.773245,-0.904736,0.375208,0.201672,0.000000,0.000000,0.000000,-1,0.356663,-3.955864,2.001351,0.754193,0.287588,0.244144
"2019-04-16 11:02:30.946 +0000",1555412550.945861,-1.833880,-0.417687,-0.762418,-0.882580,0.405648,0.237702,0.000000,0.000000,0.000000,-1,1.384222,1.269822,0.658709,0.090512,0.499611,0.595413
"2019-04-16 11:02:30.966 +0000",1555412550.965818,-1.754622,-0.409158,-0.756312,-0.901998,0.397837,0.167704,0.000000,0.000000,0.000000,-1,-1.156930,6.016672,-1.805738,-0.550120,0.756734,0.558615
"2019-04-16 11:02:30.986 +0000",1555412550.985807,-1.637610,-0.331318,-0.771187,-0.943505,0.325289,0.063133,0.000000,0.000000,0.000000,-1,0.783976,4.625121,-5.857053,-5.441398,6.425672,-4.114037
"2019-04-16 11:02:31.006 +0000",1555412551.005765,-1.557422,-0.286069,-0.721011,-0.959275,0.282183,-0.012831,0.000000,0.000000,0.000000,-1,2.369294,0.903783,1.849113,0.960495,-0.962527,0.639326
"2019-04-16 11:02:31.026 +0000",1555412551.025753,-1.587872,-0.346132,-0.709274,-0.940555,0.339262,0.016062,0.000000,0.000000,0.000000,-1,-1.188110,-3.263648,3.774640,1.204028,-0.875746,0.967672
"2019-04-16 11:02:31.046 +0000",1555412551.045710,-1.660059,-0.439672,-0.775946,-0.901289,0.425643,0.080666,0.000000,0.000000,0.000000,-1,-4.031244,-0.933325,5.788960,0.478620,-0.464599,-0.252785
"2019-04-16 11:02:31.066 +0000",1555412551.065632,-1.707626,-0.524429,-0.827117,-0.857519,0.500719,0.118072,0.000000,0.000000,0.000000,-1,1.566951,0.964789,3.185872,-3.515863,0.945143,-1.871078
"2019-04-16 11:02:31.086 +0000",1555412551.085621,-1.546432,-0.626372,-0.722982,-0.809919,0.586210,-0.019737,0.000000,0.000000,0.000000,-1,7.325849,7.510499,5.743169,-0.635027,-0.704664,-1.800590
"2019-04-16 11:02:31.106 +0000",1555412551.105579,-1.376377,-0.714084,-0.537755,-0.741456,0.654926,-0.145997,0.000000,0.000000,0.000000,-1,3.122524,-2.589688,3.039447,-3.000350,-1.200473,3.552934
"2019-04-16 11:02:31.126 +0000",1555412551.125536,-1.424624,-0.739693,-0.500717,-0.730798,0.674061,-0.107590,0.000000,0.000000,0.000000,-1,0.255010,-3.642393,0.547157,-0.370062,-0.667088,1.533478
"2019-04-16 11:02:31.146 +0000",1555412551.145524,-1.445164,-0.754390,-0.489081,-0.722946,0.684844,-0.091306,0.000000,0.000000,0.000000,-1,0.637959,0.827794,1.491557,0.582565,1.559144,0.282194
"2019-04-16 11:02:31.165 +0000",1555412551.165482,-1.422030,-0.778450,-0.476743,-0.704139,0.702176,-0.105532,0.000000,0.000000,0.000000,-1,-0.191763,-0.270738,0.704945,-0.478662,0.613223,-0.731413
"2019-04-16 11:02:31.185 +0000",1555412551.185470,-1.433902,-0.790421,-0.458436,-0.696964,0.710650,-0.096011,0.000000,0.000000,0.000000,-1,1.638156,-2.003583,0.944637,0.862842,-0.643740,-1.078214
"2019-04-16 11:02:31.205 +0000",1555412551.205427,-1.428449,-0.809233,-0.396826,-0.683074,0.723758,-0.097896,0.000000,0.000000,0.000000,-1,1.640944,-1.369041,1.351141,1.238433,-0.948810,0.236094
"2019-04-16 11:02:31.225 +0000",1555412551.225385,-1.417726,-0.824510,-0.405358,-0.670979,0.734215,-0.103517,0.000000,0.000000,0.000000,-1,-3.142558,3.430803,-0.387463,0.304279,-1.193947,2.195314
"2019-04-16 11:02:31.245 +0000",1555412551.245374,-1.465628,-0.806818,-0.564322,-0.687977,0.722090,-0.072622,0.000000,0.000000,0.000000,-1,-6.356104,1.964630,-2.602780,0.116307,-1.252333,-0.077952
"2019-04-16 11:02:31.265 +0000",1555412551.265332,-1.596525,-0.750713,-0.736412,-0.730961,0.682160,0.018811,0.000000,0.000000,0.000000,-1,-5.515779,-2.851098,-3.464584,0.256763,-1.133836,-0.861431
"2019-04-16 11:02:31.285 +0000",1555412551.285289,-1.763601,-0.649145,-0.848317,-0.781841,0.604505,0.152639,0.000000,0.000000,0.000000,-1,-2.815754,-5.738090,-6.096516,-1.758488,-1.333433,-0.637807
"2019-04-16 11:02:31.305 +0000",1555412551.305277,-1.826426,-0.494045,-0.787985,-0.851812,0.474191,0.222619,0.000000,0.000000,0.000000,-1,2.613214,-1.741201,-9.705203,-3.318262,0.317694,-1.458062
"2019-04-16 11:02:31.325 +0000",1555412551.325234,-1.708917,-0.425355,-0.693573,-0.902217,0.412644,0.125413,0.000000,0.000000,0.000000,-1,5.058157,4.142893,-0.604364,-4.677159,4.828353,-1.110704
"2019-04-16 11:02:31.345 +0000",1555412551.345223,-1.705691,-0.376141,-0.648673,-0.921640,0.367334,0.125084,0.000000,0.000000,0.000000,-1,-1.393716,-2.707281,-4.017135,-0.445853,2.605108,0.278038
"2019-04-16 11:02:31.365 +0000",1555412551.365181,-1.760630,-0.277091,-0.656223,-0.944576,0.273559,0.181498,0.000000,0.000000,0.000000,-1,-0.171041,-2.644309,-5.198020,0.128979,0.060914,-0.763102
"2019-04-16 11:02:31.385 +0000",1555412551.385137,-1.780401,-0.198671,-0.628740,-0.958873,0.197366,0.203980,0.000000,0.000000,0.000000,-1,1.015724,-0.129051,-2.755784,0.299160,-0.227350,-0.226365
"2019-04-16 11:02:31.405 +0000",1555412551.405127,-1.765823,-0.173610,-0.602766,-0.966295,0.172740,0.190880,0.000000,0.000000,0.000000,-1,1.711440,0.825900,-0.531682,0.667009,0.376882,-0.624718
"2019-04-16 11:02:31.425 +0000",1555412551.425086,-1.735019,-0.189212,-0.538027,-0.968939,0.188085,0.160568,0.000000,0.000000,0.000000,-1,4.311367,0.852181,1.053354,1.360647,0.303905,-0.690872
"2019-04-16 11:02:31.445 +0000",1555412551.445042,-1.726615,-0.235409,-0.462004,-0.960638,0.233241,0.150909,0.000000,0.000000,0.000000,-1,3.416528,-1.635544,2.190717,1.330328,0.346562,-0.102722
"2019-04-16 11:02:31.465 +0000",1555412551.465030,-1.761232,-0.285448,-0.418342,-0.942189,0.281588,0.181628,0.000000,0.000000,0.000000,-1,1.330698,-2.458945,1.876431,1.542546,0.120054,0.698362
"2019-04-16 11:02:31.485 +0000",1555412551.484988,-1.785168,-0.317228,-0.440597,-0.928356,0.311934,0.202119,0.000000,0.000000,0.000000,-1,-2.707253,0.911571,1.808026,2.119320,-0.276015,0.693984
"2019-04-16 11:02:31.505 +0000",1555412551.504976,-1.793222,-0.339615,-0.524838,-0.919655,0.333124,0.207997,0.000000,0.000000,0.000000,-1,-3.875122,0.076416,2.240360,2.068261,-0.150522,-0.751835
"2019-04-16 11:02:31.525 +0000",1555412551.524933,-1.842600,-0.376565,-0.599767,-0.895794,0.367728,0.249658,0.000000,0.000000,0.000000,-1,-1.636813,-2.014280,2.950275,2.024899,-0.331626,-0.611368
"2019-04-16 11:02:31.545 +0000",1555412551.544892,-1.897712,-0.427858,-0.622577,-0.861668,0.414923,0.292177,0.000000,0.000000,0.000000,-1,0.800767,-2.268135,2.247351,1.565830,-0.293600,-0.157014
"2019-04-16 11:02:31.565 +0000",1555412551.564880,-1.909451,-0.458789,-0.605141,-0.845666,0.442863,0.297863,0.000000,0.000000,0.000000,-1,2.120391,3.340014,0.062933,0.666710,0.201668,1.810749
"2019-04-16 11:02:31.585 +0000",1555412551.584837,-1.784564,-0.458779,-0.580888,-0.876186,0.442854,0.190206,0.000000,0.000000,0.000000,-1,-0.096667,4.640192,-0.262473,0.430767,-0.170225,-0.655996
"2019-04-16 11:02:31.605 +0000",1555412551.604795,-1.729171,-0.437872,-0.592402,-0.894322,0.424013,0.142834,0.000000,0.000000,0.000000,-1,-0.948881,2.192258,-2.151588,-3.571682,6.464979,-1.974026
"2019-04-16 11:02:31.625 +0000",1555412551.624783,-1.693365,-0.389493,-0.614879,-0.918161,0.379719,0.113105,0.000000,0.000000,0.000000,-1,-1.295311,1.509441,-0.810653,-0.286337,0.359905,-0.353462
"2019-04-16 11:02:31.645 +0000",1555412551.644740,-1.678078,-0.435415,-0.634217,-0.901482,0.421787,0.097085,0.000000,0.000000,0.000000,-1,0.114273,-0.282082,5.895999,-0.265968,-2.005314,-1.587655
"2019-04-16 11:02:31.665 +0000",1555412551.664698,-1.691784,-0.576495,-0.579846,-0.832250,0.545089,0.101186,0.000000,0.000000,0.000000,-1,5.492288,1.337549,5.967265,-4.597087,0.642792,-0.124487
"2019-04-16 11:02:31.685 +0000",1555412551.684687,-1.548560,-0.693940,-0.466204,-0.768542,0.639571,-0.017092,0.000000,0.000000,0.000000,-1,4.324399,1.401412,4.670888,-2.265790,-1.000929,0.630846
"2019-04-16 11:02:31.705 +0000",1555412551.704644,-1.514245,-0.753141,-0.372261,-0.728378,0.683934,-0.041234,0.000000,0.000000,0.000000,-1,2.578940,-2.963748,1.583663,-1.607712,-1.848622,1.499517
"2019-04-16 11:02:31.725 +0000",1555412551.724631,-1.546359,-0.757357,-0.311293,-0.726437,0.687004,-0.017756,0.000000,0.000000,0.000000,-1,1.759204,-3.799232,-0.261453,-0.071659,-0.640770,0.296748
"2019-04-16 11:02:31.745 +0000",1555412551.744590,-1.573850,-0.764865,-0.258857,-0.721472,0.692440,0.002203,0.000000,0.000000,0.000000,-1,2.285243,-2.773222,0.735669,0.369391,0.018177,-0.488272
"2019-04-16 11:02:31.765 +0000",1555412551.764547,-1.583856,-0.774169,-0.195846,-0.714941,0.699122,0.009337,0.000000,0.000000,0.000000,-1,2.126567,-2.388774,0.251408,0.787100,-0.302699,0.037873
"2019-04-16 11:02:31.785 +0000",1555412551.784534,-1.584692,-0.779043,-0.137337,-0.711517,0.702599,0.009888,0.000000,0.000000,0.000000,-1,1.917976,-1.433472,0.038795,1.033966,-0.550041,-0.101914
"2019-04-16 11:02:31.804 +0000",1555412551.804494,-1.569456,-0.772361,-0.104766,-0.716265,0.697828,-0.000960,0.000000,0.000000,0.000000,-1,0.180627,0.367493,-0.644111,0.778643,-0.592252,0.121840
"2019-04-16 11:02:31.824 +0000",1555412551.824450,-1.578363,-0.755123,-0.131538,-0.728167,0.685378,0.005510,0.000000,0.000000,0.000000,-1,-2.094992,0.350844,-1.146630,0.463533,-0.768035,0.138457
"2019-04-16 11:02:31.844 +0000",1555412551.844439,-1.638885,-0.719992,-0.212029,-0.750069,0.659378,0.051150,0.000000,0.000000,0.000000,-1,-3.759390,-1.411730,-2.163866,0.312936,-0.788925,-0.142474
"2019-04-16 11:02:31.864 +0000",1555412551.864396,-1.747114,-0.653667,-0.302731,-0.781552,0.608101,0.139248,0.000000,0.000000,0.000000,-1,-3.615455,-3.487475,-3.891238,-0.448078,-0.850258,-0.513195
"2019-04-16 11:02:31.884 +0000",1555412551.884385,-1.858250,-0.542659,-0.322256,-0.821202,0.516415,0.242782,0.000000,0.000000,0.000000,-1,-0.090175,-5.108885,-6.463308,-2.825771,-0.774624,-1.064101
"2019-04-16 11:02:31.904 +0000",1555412551.904342,-1.843646,-0.473266,-0.266788,-0.857158,0.455796,0.239857,0.000000,0.000000,0.000000,-1,1.801285,3.465670,-1.733273,-5.675954,2.379425,-0.240879
"2019-04-16 11:02:31.924 +0000",1555412551.924300,-1.843681,-0.434956,-0.251367,-0.873331,0.421371,0.244416,0.000000,0.000000,0.000000,-1,-2.074056,-2.588951,-2.212406,-0.639761,2.839539,0.094466
"2019-04-16 11:02:31.944 +0000",1555412551.944288,-1.872963,-0.347956,-0.263290,-0.897481,0.340977,0.279755,0.000000,0.000000,0.000000,-1,-1.220564,-0.518325,-4.949685,0.350834,1.269756,-0.654297
"2019-04-16 11:02:31.964 +0000",1555412551.964246,-1.882164,-0.262016,-0.260808,-0.919426,0.259028,0.295905,0.000000,0.000000,0.000000,-1,-1.111886,-0.263596,-3.367676,0.624764,0.214421,-0.176413
"2019-04-16 11:02:31.984 +0000",1555412551.984204,-1.883191,-0.212892,-0.247669,-0.930117,0.211288,0.300400,0.000000,0.000000,0.000000,-1,1.041093,0.075856,-1.459701,0.695772,0.108933,-0.612534
"2019-04-16 11:02:32.004 +0000",1555412552.004191,-1.861224,-0.213234,-0.205538,-0.936422,0.211622,0.279876,0.000000,0.000000,0.000000,-1,2.444374,1.148012,-0.164535,0.692235,0.278185,-0.322342
"2019-04-16 11:02:32.024 +0000",1555412552.024149,-1.827576,-0.227236,-0.166152,-0.942349,0.225285,0.247438,0.000000,0.000000,0.000000,-1,1.596354,0.849747,0.617591,1.434613,0.039028,0.182829
"2019-04-16 11:02:32.044 +0000",1555412552.044137,-1.826137,-0.254741,-0.157485,-0.936352,0.251995,0.244424,0.000000,0.000000,0.000000,-1,-0.316816,-0.904213,1.754595,1.857769,-0.204631,0.316428
"2019-04-16 11:02:32.064 +0000",1555412552.064061,-1.869863,-0.288079,-0.190875,-0.916232,0.284111,0.282487,0.000000,0.000000,0.000000,-1,-1.810564,-2.135261,2.358149,2.008670,-0.684380,-0.169420
"2019-04-16 11:02:32.084 +0000",1555412552.084017,-1.910634,-0.312104,-0.254417,-0.897261,0.307062,0.317231,0.000000,0.000000,0.000000,-1,-2.839519,-0.068775,1.431985,1.352187,-0.520258,-0.581956
"2019-04-16 11:02:32.104 +0000",1555412552.104005,-1.924056,-0.310466,-0.301402,-0.893394,0.305502,0.329419,0.000000,0.000000,0.000000,-1,-1.252656,0.141446,0.242814,1.353156,-0.486914,-0.874462
"2019-04-16 11:02:32.124 +0000",1555412552.123964,-1.914201,-0.309258,-0.311668,-0.896944,0.304352,0.320722,0.000000,0.000000,0.000000,-1,0.273762,0.984659,-0.189715,1.258027,-0.043320,-0.233716
"2019-04-16 11:02:32.144 +0000",1555412552.143920,-1.925923,-0.302545,-0.271679,-0.895018,0.297951,0.331917,0.000000,0.000000,0.000000,-1,2.948662,-3.121729,-2.126539,-0.329348,0.848732,-0.938850
"2019-04-16 11:02:32.164 +0000",1555412552.163909,-1.857071,-0.255875,-0.213491,-0.928070,0.253092,0.273187,0.000000,0.000000,0.000000,-1,0.580680,8.289056,-2.238926,-4.273575,4.983114,-0.953362
"2019-04-16 11:02:32.184 +0000",1555412552.183868,-1.764067,-0.272848,-0.225821,-0.945078,0.269475,0.184964,0.000000,0.000000,0.000000,-1,-1.206053,1.791112,3.355105,0.015924,-0.383504,-0.046384
"2019-04-16 11:02:32.204 +0000",1555412552.203823,-1.759483,-0.345962,-0.267323,-0.924053,0.339102,0.176455,0.000000,0.000000,0.000000,-1,-1.232947,0.437718,4.417534,1.077709,-1.127386,-0.226824
"2019-04-16 11:02:32.224 +0000",1555412552.223812,-1.755331,-0.446056,-0.299499,-0.886839,0.431411,0.165536,0.000000,0.000000,0.000000,-1,0.851537,1.116922,6.137300,0.596083,-0.019637,-0.201364
"2019-04-16 11:02:32.244 +0000",1555412552.243770,-1.777733,-0.573700,-0.259884,-0.821979,0.542743,0.172568,0.000000,0.000000,0.000000,-1,4.616608,-4.376162,5.210557,-1.432507,1.131375,-2.905799
"2019-04-16 11:02:32.264 +0000",1555412552.263758,-1.750548,-0.700039,-0.112420,-0.752495,0.644247,0.136738,0.000000,0.000000,0.000000,-1,9.335507,0.180818,5.485822,-2.063957,0.075723,-1.229755
"2019-04-16 11:02:32.284 +0000",1555412552.283716,-1.477340,-0.810511,0.077462,-0.686121,0.724639,-0.064310,0.000000,0.000000,0.000000,-1,2.860548,3.504591,2.485715,-4.406332,-2.537933,4.298365
"2019-04-16 11:02:32.304 +0000",1555412552.303674,-1.452066,-0.808008,0.122353,-0.686076,0.722912,-0.081843,0.000000,0.000000,0.000000,-1,0.523048,-2.731663,-1.207126,0.326472,-0.662823,0.901316
"2019-04-16 11:02:32.324 +0000",1555412552.323662,-1.497035,-0.799040,0.131635,-0.695499,0.716687,-0.051394,0.000000,0.000000,0.000000,-1,0.756157,-0.779171,0.779552,1.505634,1.484363,-0.097532
"2019-04-16 11:02:32.344 +0000",1555412552.343619,-1.451047,-0.805625,0.173918,-0.687700,0.721264,-0.082748,0.000000,0.000000,0.000000,-1,1.474644,0.338689,-0.033195,-0.239958,0.617115,-1.380799
"2019-04-16 11:02:32.364 +0000",1555412552.363577,-1.443890,-0.799731,0.204923,-0.691295,0.717169,-0.088203,0.000000,0.000000,0.000000,-1,0.883728,-1.636439,-0.043885,0.387188,-0.392706,-0.449074
"2019-04-16 11:02:32.384 +0000",1555412552.383565,-1.465916,-0.795883,0.227928,-0.695810,0.714482,-0.073246,0.000000,0.000000,0.000000,-1,0.514799,-1.699905,-0.254133,0.753686,-0.810459,0.607761
"2019-04-16 11:02:32.404 +0000",1555412552.403523,-1.482362,-0.784587,0.182496,-0.704915,0.706533,-0.062502,0.000000,0.000000,0.000000,-1,-4.277398,3.276167,-1.439841,0.200215,-1.222936,2.402315
"2019-04-16 11:02:32.424 +0000",1555412552.423511,-1.551369,-0.746055,0.029056,-0.734234,0.678747,-0.014266,0.000000,0.000000,0.000000,-1,-5.520693,-0.336337,-2.785826,0.221737,-1.257269,-0.335236
"2019-04-16 11:02:32.443 +0000",1555412552.443468,-1.683956,-0.684454,-0.089269,-0.769809,0.632250,0.087485,0.000000,0.000000,0.000000,-1,-3.495465,-4.985307,-3.130507,-0.104657,-1.423724,-0.452765
"2019-04-16 11:02:32.463 +0000",1555412552.463425,-1.808115,-0.598808,-0.103927,-0.802856,0.563659,0.194192,0.000000,0.000000,0.000000,-1,1.273277,-6.319589,-5.567196,-1.449646,-0.949035,-1.605966
"2019-04-16 11:02:32.483 +0000",1555412552.483414,-1.903584,-0.475410,-0.002979,-0.840325,0.457703,0.290452,0.000000,0.000000,0.000000,-1,1.868921,-5.525546,-7.568315,-2.615303,0.111267,-1.615403
"2019-04-16 11:02:32.503 +0000",1555412552.503372,-1.793291,-0.429397,0.095532,-0.886804,0.416323,0.200631,0.000000,0.000000,0.000000,-1,6.192906,9.026581,-1.033599,-5.236609,4.444838,-0.612847
"2019-04-16 11:02:32.523 +0000",1555412552.523329,-1.765812,-0.397690,0.136082,-0.904482,0.387290,0.178659,0.000000,0.000000,0.000000,-1,-1.741477,-3.688126,-3.328033,-1.388197,2.211099,-0.451303
"2019-04-16 11:02:32.543 +0000",1555412552.543317,-1.838239,-0.299695,0.133277,-0.921461,0.295229,0.252487,0.000000,0.000000,0.000000,-1,-0.785794,-2.322444,-5.071125,0.568098,0.644758,-0.313659
"2019-04-16 11:02:32.563 +0000",1555412552.563275,-1.838596,-0.222778,0.156747,-0.940524,0.220940,0.258071,0.000000,0.000000,0.000000,-1,0.861040,1.527032,-2.914576,0.583865,0.858314,-0.298065
"2019-04-16 11:02:32.583 +0000",1555412552.583233,-1.796682,-0.192964,0.184875,-0.956508,0.191769,0.219813,0.000000,0.000000,0.000000,-1,1.238005,1.295737,-0.861862,0.691966,0.615727,-0.554514
"2019-04-16 11:02:32.603 +0000",1555412552.603221,-1.778664,-0.191070,0.222805,-0.960666,0.189910,0.202619,0.000000,0.000000,0.000000,-1,2.201720,0.053708,-0.102642,1.207508,0.234498,-0.341764
"2019-04-16 11:02:32.623 +0000",1555412552.623178,-1.768521,-0.213655,0.269775,-0.958221,0.212033,0.191972,0.000000,0.000000,0.000000,-1,2.470581,0.281598,1.486202,1.887848,-0.176328,0.277281
"2019-04-16 11:02:32.643 +0000",1555412552.643167,-1.758240,-0.257807,0.288423,-0.950014,0.254961,0.180189,0.000000,0.000000,0.000000,-1,-0.059827,-0.328398,2.284348,2.049959,-0.258516,0.647844
"2019-04-16 11:02:32.663 +0000",1555412552.663125,-1.785974,-0.297481,0.250912,-0.934029,0.293113,0.204143,0.000000,0.000000,0.000000,-1,-2.689485,-0.769314,2.226635,2.036812,-0.515876,0.317967
"2019-04-16 11:02:32.683 +0000",1555412552.683083,-1.816766,-0.320355,0.171037,-0.920557,0.314904,0.231109,0.000000,0.000000,0.000000,-1,-3.778789,-0.086203,1.773676,1.943475,-0.513512,-0.366897
"2019-04-16 11:02:32.703 +0000",1555412552.703070,-1.844768,-0.333959,0.099698,-0.909516,0.327786,0.255610,0.000000,0.000000,0.000000,-1,-2.001522,-0.291303,1.224203,1.675614,-0.347775,-0.816965
"2019-04-16 11:02:32.723 +0000",1555412552.723028,-1.843450,-0.344818,0.089585,-0.906371,0.338025,0.253437,0.000000,0.000000,0.000000,-1,1.484263,0.616300,0.010483,0.771712,-0.109555,-1.088276
"2019-04-16 11:02:32.743 +0000",1555412552.742986,-1.830018,-0.351602,0.142417,-0.907456,0.344403,0.240647,0.000000,0.000000,0.000000,-1,2.668326,-0.990172,-0.562026,0.543946,0.261417,-0.057984
"2019-04-16 11:02:32.763 +0000",1555412552.762974,-1.781343,-0.332653,0.179875,-0.924307,0.326552,0.197537,0.000000,0.000000,0.000000,-1,0.163418,4.206548,-2.222174,-0.033320,0.386003,0.035235
"2019-04-16 11:02:32.783 +0000",1555412552.782931,-1.672900,-0.258680,0.173535,-0.961694,0.255805,0.098535,0.000000,0.000000,0.000000,-1,-1.710891,7.398643,-5.652930,-4.565070,6.505364,-0.627649
"2019-04-16 11:02:32.803 +0000",1555412552.802920,-1.578006,-0.219082,0.131650,-0.976072,0.217334,0.007037,0.000000,0.000000,0.000000,-1,-2.129266,0.427385,4.083879,0.204847,-0.421649,-0.567050
"2019-04-16 11:02:32.823 +0000",1555412552.822877,-1.633970,-0.343704,0.091761,-0.939635,0.336977,0.059439,0.000000,0.000000,0.000000,-1,-0.800075,-4.560837,6.974281,-0.021349,-0.440294,-1.236136
"2019-04-16 11:02:32.843 +0000",1555412552.842834,-1.729008,-0.468708,0.107257,-0.881010,0.451734,0.140561,0.000000,0.000000,0.000000,-1,3.216969,-3.033639,5.513059,-1.929308,0.059664,-0.991879
"2019-04-16 11:02:32.863 +0000",1555412552.862823,-1.661551,-0.592520,0.157528,-0.826122,0.558454,0.075181,0.000000,0.000000,0.000000,-1,3.632562,5.416245,6.436852,-2.756443,-1.039533,-1.257294
"2019-04-16 11:02:32.883 +0000",1555412552.882781,-1.468580,-0.703726,0.304395,-0.758457,0.647063,-0.077798,0.000000,0.000000,0.000000,-1,6.266182,2.513779,3.945551,-1.717724,-1.906111,1.011025
"2019-04-16 11:02:32.903 +0000",1555412552.902738,-1.423307,-0.728060,0.400495,-0.738362,0.665423,-0.109697,0.000000,0.000000,0.000000,-1,1.676956,-2.636109,0.109765,-1.131541,-1.108767,1.914598
"2019-04-16 11:02:32.923 +0000",1555412552.922727,-1.460909,-0.715248,0.422629,-0.750377,0.655805,-0.082791,0.000000,0.000000,0.000000,-1,0.309349,-1.995743,-0.342153,0.667202,0.184085,0.251568
"2019-04-16 11:02:32.943 +0000",1555412552.942684,-1.473921,-0.716436,0.441855,-0.750615,0.656701,-0.072944,0.000000,0.000000,0.000000,-1,1.310984,-0.680059,-0.019096,-0.108501,0.424323,-0.356621
"2019-04-16 11:02:32.963 +0000",1555412552.962672,-1.462070,-0.705060,0.485539,-0.757075,0.648080,-0.082640,0.000000,0.000000,0.000000,-1,1.819086,-1.015021,-0.683528,0.064570,-0.121057,-0.494661
"2019-04-16 11:02:32.983 +0000",1555412552.982630,-1.449701,-0.685001,0.524253,-0.768748,0.632674,-0.093549,0.000000,0.000000,0.000000,-1,1.356077,0.115719,-0.854230,0.869486,-0.331114,-0.053271
"2019-04-16 11:02:33.003 +0000",1555412553.002588,-1.428213,-0.668660,0.539711,-0.776690,0.619935,-0.111500,0.000000,0.000000,0.000000,-1,-0.478325,0.664354,-0.779408,1.069064,-0.591493,1.031849
"2019-04-16 11:02:33.023 +0000",1555412553.022577,-1.465334,-0.647883,0.462863,-0.792933,0.603500,-0.083936,0.000000,0.000000,0.000000,-1,-4.839469,0.159149,-2.153727,0.434413,-0.733932,1.154691
"2019-04-16 11:02:33.043 +0000",1555412553.042534,-1.551236,-0.602857,0.333160,-0.823562,0.566998,-0.016111,0.000000,0.000000,0.000000,-1,-4.994397,-1.294951,-2.860223,0.682402,-0.807904,-0.178393
"2019-04-16 11:02:33.062 +0000",1555412553.062449,-1.648058,-0.543553,0.236421,-0.853323,0.517180,0.066061,0.000000,0.000000,0.000000,-1,-2.993557,-3.263511,-2.922663,0.744101,-0.782073,-1.049948
"2019-04-16 11:02:33.082 +0000",1555412553.082436,-1.735161,-0.472012,0.228459,-0.878652,0.454679,0.145734,0.000000,0.000000,0.000000,-1,2.343993,-6.245885,-4.672141,-0.919734,-0.797437,-2.404492
"2019-04-16 11:02:33.102 +0000",1555412553.102393,-1.816074,-0.380095,0.353854,-0.900835,0.371009,0.225495,0.000000,0.000000,0.000000,-1,4.042257,-0.782423,-5.670219,-4.207930,-0.640555,1.358733
"2019-04-16 11:02:33.122 +0000",1555412553.122351,-1.734647,-0.350651,0.376768,-0.926571,0.343509,0.153193,0.000000,0.000000,0.000000,-1,-1.097713,-0.520863,-0.124798,-4.969303,4.126080,0.346639
"2019-04-16 11:02:33.142 +0000",1555412553.142339,-1.780041,-0.309178,0.347373,-0.931806,0.304276,0.197872,0.000000,0.000000,0.000000,-1,-2.762869,-0.396946,-3.399268,-0.633623,2.856369,-0.122189
"2019-04-16 11:02:33.162 +0000",1555412553.162297,-1.800011,-0.214590,0.322447,-0.951509,0.212947,0.222001,0.000000,0.000000,0.000000,-1,-1.314198,-1.218075,-4.766504,1.170518,1.061818,-1.103944
"2019-04-16 11:02:33.182 +0000",1555412553.182285,-1.805677,-0.134453,0.340794,-0.963765,0.134048,0.230627,0.000000,0.000000,0.000000,-1,1.455292,0.581079,-3.068638,1.281880,0.108902,-0.728826
"2019-04-16 11:02:33.202 +0000",1555412553.202243,-1.766765,-0.121078,0.391932,-0.973679,0.120782,0.193291,0.000000,0.000000,0.000000,-1,2.617965,2.544688,0.524217,1.238342,-0.340554,-0.126641
"2019-04-16 11:02:33.222 +0000",1555412553.222200,-1.702990,-0.152644,0.425843,-0.979749,0.152052,0.130277,0.000000,0.000000,0.000000,-1,1.032909,3.109098,1.703339,1.463926,0.201144,0.365039
"2019-04-16 11:02:33.242 +0000",1555412553.242188,-1.661400,-0.191076,0.425720,-0.977773,0.189916,0.088833,0.000000,0.000000,0.000000,-1,-0.742629,0.707022,2.165682,1.765554,0.080455,0.307330
"2019-04-16 11:02:33.262 +0000",1555412553.262146,-1.679657,-0.235681,0.384969,-0.966600,0.233505,0.105642,0.000000,0.000000,0.000000,-1,-2.638188,-1.303951,2.546047,1.643281,-0.297806,0.223276
"2019-04-16 11:02:33.282 +0000",1555412553.282103,-1.728235,-0.275682,0.312863,-0.950339,0.272203,0.150869,0.000000,0.000000,0.000000,-1,-3.597544,-1.392880,2.267819,1.501074,-0.441881,-0.069555
"2019-04-16 11:02:33.302 +0000",1555412553.302092,-1.769650,-0.300318,0.240792,-0.936418,0.295824,0.188704,0.000000,0.000000,0.000000,-1,-2.372530,-0.844107,1.307041,1.262712,-0.439135,-0.550826
"2019-04-16 11:02:33.322 +0000",1555412553.322049,-1.792473,-0.311914,0.206978,-0.928459,0.306881,0.209256,0.000000,0.000000,0.000000,-1,-0.686212,-0.466414,0.532742,0.996040,-0.210324,-0.443387
"2019-04-16 11:02:33.342 +0000",1555412553.342007,-1.814844,-0.315618,0.198339,-0.922436,0.310404,0.229697,0.000000,0.000000,0.000000,-1,-0.296228,-1.590798,-0.007097,0.807309,0.066366,-0.146003
"2019-04-16 11:02:33.362 +0000",1555412553.361995,-1.804564,-0.300075,0.196890,-0.929330,0.295592,0.221293,0.000000,0.000000,0.000000,-1,-0.148801,3.607027,-1.797569,0.225397,0.572648,0.013677
"2019-04-16 11:02:33.382 +0000",1555412553.381953,-1.689041,-0.248577,0.214591,-0.962495,0.246025,0.114344,0.000000,0.000000,0.000000,-1,0.973412,7.234897,-3.528519,-1.820998,3.437630,-1.282236
"2019-04-16 11:02:33.402 +0000",1555412553.401941,-1.554250,-0.224603,0.240528,-0.974749,0.222720,-0.016130,0.000000,0.000000,0.000000,-1,0.090359,3.238851,2.715710,-0.657178,1.328580,0.274064
"2019-04-16 11:02:33.422 +0000",1555412553.421898,-1.570593,-0.330876,0.221631,-0.945758,0.324871,-0.000192,0.000000,0.000000,0.000000,-1,-1.640160,-1.602600,6.689128,0.348697,-0.096401,0.635339
"2019-04-16 11:02:33.442 +0000",1555412553.441857,-1.633383,-0.463107,0.192667,-0.892917,0.446730,0.055957,0.000000,0.000000,0.000000,-1,0.042428,-4.527143,6.586788,-1.370160,0.361421,-1.548145
"2019-04-16 11:02:33.462 +0000",1555412553.461845,-1.685453,-0.602457,0.231492,-0.818536,0.566669,0.094264,0.000000,0.000000,0.000000,-1,4.123519,0.820257,6.983335,-3.175727,-0.629001,-0.879451
"2019-04-16 11:02:33.482 +0000",1555412553.481803,-1.509640,-0.729366,0.359062,-0.744203,0.666397,-0.045570,0.000000,0.000000,0.000000,-1,6.327470,6.464209,5.141973,-1.942626,-2.076172,-0.945672
"2019-04-16 11:02:33.502 +0000",1555412553.501761,-1.395016,-0.781837,0.472290,-0.698685,0.704584,-0.124096,0.000000,0.000000,0.000000,-1,0.578602,-1.097132,0.904627,-2.526412,-1.800471,3.310314
"2019-04-16 11:02:33.522 +0000",1555412553.521749,-1.424850,-0.783117,0.479910,-0.701184,0.705492,-0.103068,0.000000,0.000000,0.000000,-1,0.478317,-2.157707,-0.171032,0.367413,-0.381014,0.197367
"2019-04-16 11:02:33.542 +0000",1555412553.541706,-1.421969,-0.788572,0.524830,-0.697067,0.709348,-0.104515,0.000000,0.000000,0.000000,-1,2.515831,-0.452929,1.031399,1.206894,0.167117,-0.378273
"2019-04-16 11:02:33.562 +0000",1555412553.561693,-1.361344,-0.792151,0.614046,-0.686966,0.711866,-0.146028,0.000000,0.000000,0.000000,-1,3.452539,-0.501222,0.342535,0.260498,-0.080945,-0.390150
"2019-04-16 11:02:33.582 +0000",1555412553.581651,-1.309837,-0.772987,0.708160,-0.691592,0.698277,-0.184689,0.000000,0.000000,0.000000,-1,3.321247,-0.649662,-0.639326,0.242389,-0.236058,-0.178974
"2019-04-16 11:02:33.602 +0000",1555412553.601609,-1.272443,-0.742003,0.771755,-0.704552,0.675766,-0.216673,0.000000,0.000000,0.000000,-1,1.717810,-0.151743,-0.900139,0.496361,-0.358246,0.441999
"2019-04-16 11:02:33.622 +0000",1555412553.621597,-1.283243,-0.720808,0.767529,-0.720426,0.659992,-0.213066,0.000000,0.000000,0.000000,-1,-1.884859,-0.622590,-1.509098,0.360578,-0.487736,1.728904
"2019-04-16 11:02:33.642 +0000",1555412553.641555,-1.380598,-0.693292,0.647590,-0.755276,0.639073,-0.145410,0.000000,0.000000,0.000000,-1,-5.453292,-1.910161,-3.024801,0.114681,-0.662007,0.623346
"2019-04-16 11:02:33.662 +0000",1555412553.661512,-1.529866,-0.644596,0.504599,-0.798673,0.600875,-0.032708,0.000000,0.000000,0.000000,-1,-4.870928,-3.881783,-3.397577,0.128782,-0.567840,0.238091
"2019-04-16 11:02:33.682 +0000",1555412553.681500,-1.655235,-0.561902,0.443405,-0.843229,0.532796,0.071371,0.000000,0.000000,0.000000,-1,0.113635,-6.759800,-4.808434,-0.865542,-0.809484,-2.336736
"2019-04-16 11:02:33.701 +0000",1555412553.701459,-1.792712,-0.462601,0.487511,-0.872950,0.446277,0.196965,0.000000,0.000000,0.000000,-1,0.616046,-3.504786,-4.834461,-2.309728,0.130505,-0.576054
"2019-04-16 11:02:33.721 +0000",1555412553.721416,-1.657588,-0.408549,0.541725,-0.914244,0.397278,0.079548,0.000000,0.000000,0.000000,-1,4.910080,9.285598,-2.482617,-4.559007,3.931808,-0.950551
"2019-04-16 11:02:33.741 +0000",1555412553.741404,-1.640941,-0.368237,0.564696,-0.930669,0.359971,0.065389,0.000000,0.000000,0.000000,-1,-3.366864,-3.131624,-2.382282,-0.733683,1.977035,0.850962
"2019-04-16 11:02:33.761 +0000",1555412553.761362,-1.689706,-0.272388,0.500769,-0.956330,0.269032,0.114256,0.000000,0.000000,0.000000,-1,-2.595571,-0.324965,-5.889211,-0.138091,1.009014,-0.658720
"2019-04-16 11:02:33.781 +0000",1555412553.781350,-1.693856,-0.171830,0.478669,-0.977823,0.170986,0.120941,0.000000,0.000000,0.000000,-1,-0.913276,0.591528,-3.578489,0.227808,0.249714,-0.305710
"2019-04-16 11:02:33.801 +0000",1555412553.801307,-1.670126,-0.125884,0.478382,-0.987197,0.125552,0.098381,0.000000,0.000000,0.000000,-1,0.399230,1.033042,-1.140383,0.736709,0.213499,-0.120415
"2019-04-16 11:02:33.821 +0000",1555412553.821266,-1.668073,-0.119244,0.508168,-0.988205,0.118962,0.096434,0.000000,0.000000,0.000000,-1,2.235460,-0.557180,0.096171,1.132172,0.030056,-0.540220
"2019-04-16 11:02:33.841 +0000",1555412553.841254,-1.670040,-0.141382,0.557221,-0.985151,0.140912,0.098092,0.000000,0.000000,0.000000,-1,2.731791,-0.147670,1.666851,1.553205,-0.267621,-0.091134
"2019-04-16 11:02:33.861 +0000",1555412553.861211,-1.664849,-0.184231,0.595607,-0.978733,0.183191,0.092325,0.000000,0.000000,0.000000,-1,1.082349,-0.481753,2.032857,1.672138,-0.080590,0.485373
"2019-04-16 11:02:33.881 +0000",1555412553.881170,-1.698846,-0.222113,0.585727,-0.967448,0.220292,0.124563,0.000000,0.000000,0.000000,-1,-1.934790,-1.861642,1.803074,1.988810,-0.375626,0.643839
"2019-04-16 11:02:33.901 +0000",1555412553.901157,-1.730456,-0.246028,0.505477,-0.957552,0.243553,0.154195,0.000000,0.000000,0.000000,-1,-4.775485,0.149550,1.832510,2.260775,-0.390618,-0.097219
"2019-04-16 11:02:33.921 +0000",1555412553.921115,-1.760271,-0.269454,0.417184,-0.946665,0.266205,0.181547,0.000000,0.000000,0.000000,-1,-2.671933,-0.824283,1.889205,2.024897,-0.294876,-0.904783
"2019-04-16 11:02:33.941 +0000",1555412553.941073,-1.776516,-0.294141,0.392698,-0.936871,0.289918,0.195499,0.000000,0.000000,0.000000,-1,0.804595,0.031780,0.779353,1.247509,-0.056077,-0.617755
"2019-04-16 11:02:33.961 +0000",1555412553.961061,-1.772028,-0.302748,0.437406,-0.935260,0.298144,0.190786,0.000000,0.000000,0.000000,-1,3.615522,-1.307253,-0.853962,0.246814,0.628919,0.539759
"2019-04-16 11:02:33.981 +0000",1555412553.981018,-1.737240,-0.280688,0.503485,-0.947586,0.277017,0.159192,0.000000,0.000000,0.000000,-1,1.226230,2.319747,-2.451208,-0.649216,0.877234,0.284319
"2019-04-16 11:02:34.001 +0000",1555412554.001007,-1.632707,-0.206455,0.491557,-0.976889,0.204991,0.060557,0.000000,0.000000,0.000000,-1,-2.390719,7.008523,-4.126977,-4.779840,6.103526,-0.467677
"2019-04-16 11:02:34.021 +0000",1555412554.020966,-1.559248,-0.205556,0.438636,-0.978882,0.204111,-0.011305,0.000000,0.000000,0.000000,-1,-3.052553,1.593737,4.027766,0.921967,-0.583597,-0.109865
"2019-04-16 11:02:34.041 +0000",1555412554.040922,-1.568976,-0.319915,0.370120,-0.949261,0.314486,-0.001728,0.000000,0.000000,0.000000,-1,-3.221950,-0.842026,6.451852,0.829128,-0.268679,-0.750194
"2019-04-16 11:02:34.061 +0000",1555412554.060861,-1.614652,-0.439823,0.343513,-0.903957,0.425779,0.039669,0.000000,0.000000,0.000000,-1,1.709975,-3.801650,5.125392,-1.729390,0.414995,-2.214856
"2019-04-16 11:02:34.081 +0000",1555412554.080818,-1.666399,-0.555911,0.420421,-0.845541,0.527717,0.081083,0.000000,0.000000,0.000000,-1,5.018343,-1.507204,6.959149,-2.333795,0.048348,-0.935270
"2019-04-16 11:02:34.101 +0000",1555412554.100777,-1.535350,-0.700869,0.557896,-0.763802,0.644882,-0.027085,0.000000,0.000000,0.000000,-1,6.788855,7.044919,6.580049,-2.475700,-1.565429,-0.031173
"2019-04-16 11:02:34.121 +0000",1555412554.120765,-1.374925,-0.769977,0.662978,-0.704199,0.696119,-0.139724,0.000000,0.000000,0.000000,-1,1.204530,0.085579,0.560127,-2.820414,-2.417433,2.160048
"2019-04-16 11:02:34.141 +0000",1555412554.140722,-1.378657,-0.753552,0.695403,-0.715843,0.684234,-0.139260,0.000000,0.000000,0.000000,-1,1.565247,-1.783386,-0.661754,0.961097,-0.420028,-0.063819
"2019-04-16 11:02:34.161 +0000",1555412554.160711,-1.362628,-0.755441,0.754198,-0.712253,0.685610,-0.150448,0.000000,0.000000,0.000000,-1,2.354716,-0.676113,1.163650,1.232227,0.460295,-0.407810
"2019-04-16 11:02:34.181 +0000",1555412554.180668,-1.338726,-0.759919,0.812841,-0.705459,0.688863,-0.166720,0.000000,0.000000,0.000000,-1,1.650043,-0.999844,0.100760,0.290176,-0.126012,-0.112088
"2019-04-16 11:02:34.201 +0000",1555412554.200626,-1.319670,-0.745341,0.853766,-0.711806,0.678222,-0.182608,0.000000,0.000000,0.000000,-1,1.669148,0.062443,-0.751887,0.329574,-0.251083,-0.330575
"2019-04-16 11:02:34.221 +0000",1555412554.220614,-1.297474,-0.722367,0.881810,-0.722394,0.661162,-0.202514,0.000000,0.000000,0.000000,-1,0.792424,0.102514,-0.832234,0.722272,-0.267531,0.333496
"2019-04-16 11:02:34.241 +0000",1555412554.240571,-1.318149,-0.703254,0.862075,-0.738528,0.646703,-0.190661,0.000000,0.000000,0.000000,-1,-2.816209,-1.038914,-1.828310,0.417422,-0.458058,2.164630
"2019-04-16 11:02:34.261 +0000",1555412554.260530,-1.442093,-0.671428,0.704568,-0.776459,0.622105,-0.100488,0.000000,0.000000,0.000000,-1,-7.196775,-1.374514,-3.069954,0.396210,-0.637150,1.028344
"2019-04-16 11:02:34.281 +0000",1555412554.280517,-1.590872,-0.620686,0.535239,-0.813316,0.581593,0.016330,0.000000,0.000000,0.000000,-1,-5.426272,-3.565482,-2.800813,0.648765,-0.736256,-0.908038
"2019-04-16 11:02:34.300 +0000",1555412554.300475,-1.718833,-0.553057,0.460276,-0.841616,0.525291,0.125508,0.000000,0.000000,0.000000,-1,-0.728141,-5.001388,-3.761183,-0.263517,-0.725578,-1.377950
"2019-04-16 11:02:34.320 +0000",1555412554.320433,-1.860401,-0.479288,0.538771,-0.850372,0.461148,0.253395,0.000000,0.000000,0.000000,-1,5.364145,-9.278434,-5.061943,-2.547394,-0.754422,-2.632012
"2019-04-16 11:02:34.340 +0000",1555412554.340421,-1.739072,-0.426298,0.643339,-0.897642,0.413503,0.152494,0.000000,0.000000,0.000000,-1,3.732957,11.405429,-3.244580,-7.101625,4.644908,0.212039
"2019-04-16 11:02:34.360 +0000",1555412554.360378,-1.734028,-0.371504,0.637639,-0.919397,0.363017,0.151421,0.000000,0.000000,0.000000,-1,-3.903913,-3.164727,-2.339654,-0.970130,2.822850,0.267005
"2019-04-16 11:02:34.380 +0000",1555412554.380367,-1.793243,-0.287458,0.573915,-0.935339,0.283515,0.211564,0.000000,0.000000,0.000000,-1,-2.559828,-0.605588,-4.588615,0.426321,1.052056,-1.224290
"2019-04-16 11:02:34.400 +0000",1555412554.400324,-1.787083,-0.192432,0.562235,-0.958673,0.191247,0.210643,0.000000,0.000000,0.000000,-1,-0.602907,0.848206,-3.929865,0.836221,0.225898,-0.686870
"2019-04-16 11:02:34.420 +0000",1555412554.420282,-1.761291,-0.146284,0.576588,-0.971423,0.145763,0.187322,0.000000,0.000000,0.000000,-1,1.033584,1.261744,-0.676346,1.256854,0.078358,-0.543569
"2019-04-16 11:02:34.440 +0000",1555412554.440270,-1.732605,-0.159066,0.618770,-0.974478,0.158396,0.159070,0.000000,0.000000,0.000000,-1,2.846245,1.201531,0.924851,1.314001,0.019475,-0.263272
"2019-04-16 11:02:34.460 +0000",1555412554.460228,-1.706272,-0.195451,0.663926,-0.971972,0.194209,0.132490,0.000000,0.000000,0.000000,-1,1.848239,0.616460,2.047029,1.534212,-0.176921,0.440096
"2019-04-16 11:02:34.480 +0000",1555412554.480185,-1.697288,-0.244851,0.675481,-0.962423,0.242412,0.122391,0.000000,0.000000,0.000000,-1,-0.053683,-0.297911,2.613545,1.627385,0.047658,0.504638
"2019-04-16 11:02:34.500 +0000",1555412554.500174,-1.729672,-0.295670,0.650272,-0.944559,0.291381,0.151343,0.000000,0.000000,0.000000,-1,-1.661728,-2.010221,2.768298,1.810969,-0.493117,0.196435
"2019-04-16 11:02:34.520 +0000",1555412554.520131,-1.773421,-0.338910,0.584270,-0.923823,0.332459,0.189794,0.000000,0.000000,0.000000,-1,-3.644881,0.051625,2.389976,1.634334,-0.498261,0.016734
"2019-04-16 11:02:34.540 +0000",1555412554.540088,-1.803905,-0.356445,0.507967,-0.911797,0.348945,0.216483,0.000000,0.000000,0.000000,-1,-2.337579,-1.097867,0.950384,1.459633,-0.601508,-1.200751
"2019-04-16 11:02:34.560 +0000",1555412554.560077,-1.835104,-0.356848,0.486256,-0.904464,0.349322,0.244783,0.000000,0.000000,0.000000,-1,0.236046,-0.557644,-0.395521,1.267913,-0.472308,-0.701845
"2019-04-16 11:02:34.580 +0000",1555412554.580035,-1.822427,-0.346003,0.514131,-0.911110,0.339140,0.234227,0.000000,0.000000,0.000000,-1,2.241428,0.688615,-1.373259,0.821511,0.219988,0.413447
"2019-04-16 11:02:34.600 +0000",1555412554.600023,-1.772806,-0.315003,0.570725,-0.931462,0.309819,0.190766,0.000000,0.000000,0.000000,-1,1.501857,2.342107,-3.245455,-1.343410,1.740306,1.443907
"2019-04-16 11:02:34.620 +0000",1555412554.619980,-1.650163,-0.225406,0.588746,-0.971635,0.223502,0.077278,0.000000,0.000000,0.000000,-1,-1.498087,7.817233,-3.910438,-3.077544,4.757012,-0.552268
"2019-04-16 11:02:34.640 +0000",1555412554.639938,-1.585365,-0.222688,0.528969,-0.975204,0.220852,0.014209,0.000000,0.000000,0.000000,-1,-3.880082,0.002531,3.320471,1.244766,-0.680355,-0.012836
"2019-04-16 11:02:34.660 +0000",1555412554.659926,-1.633049,-0.323293,0.453930,-0.946358,0.317691,0.058989,0.000000,0.000000,0.000000,-1,-1.980731,-2.568038,6.321937,0.158440,-0.035617,-1.026503
"2019-04-16 11:02:34.680 +0000",1555412554.679883,-1.722823,-0.455157,0.467532,-0.887832,0.439604,0.136024,0.000000,0.000000,0.000000,-1,4.536444,-5.699160,6.458417,-2.148957,0.598467,-2.493003
"2019-04-16 11:02:34.700 +0000",1555412554.699842,-1.692408,-0.607216,0.555884,-0.815174,0.570584,0.099626,0.000000,0.000000,0.000000,-1,4.915171,4.017665,6.881998,-3.073208,-0.267971,-0.579531
"2019-04-16 11:02:34.720 +0000",1555412554.719831,-1.505518,-0.738907,0.682367,-0.737631,0.673480,-0.048220,0.000000,0.000000,0.000000,-1,2.583268,2.856002,4.793556,-3.651010,-3.523257,5.065386
"2019-04-16 11:02:34.740 +0000",1555412554.739787,-1.487691,-0.762187,0.710971,-0.720831,0.690505,-0.060043,0.000000,0.000000,0.000000,-1,0.658471,-1.321180,-0.660954,-0.500467,-1.352935,0.954956
"2019-04-16 11:02:34.760 +0000",1555412554.759746,-1.492790,-0.750593,0.748049,-0.729060,0.682073,-0.056987,0.000000,0.000000,0.000000,-1,2.181010,-1.370511,0.271667,1.217983,0.407588,-0.439366
"2019-04-16 11:02:34.780 +0000",1555412554.779734,-1.463396,-0.762433,0.816423,-0.718991,0.690683,-0.077518,0.000000,0.000000,0.000000,-1,2.372469,-0.702717,0.573778,0.210767,0.304740,-0.251125
"2019-04-16 11:02:34.800 +0000",1555412554.799691,-1.441383,-0.760880,0.875708,-0.718174,0.689559,-0.093464,0.000000,0.000000,0.000000,-1,1.970115,-0.918567,-0.261466,0.114185,-0.296401,-0.479870
"2019-04-16 11:02:34.820 +0000",1555412554.819680,-1.425398,-0.743576,0.922478,-0.728286,0.676924,-0.106644,0.000000,0.000000,0.000000,-1,1.557610,-0.747813,-0.740465,0.402480,-0.383605,-0.283859
"2019-04-16 11:02:34.840 +0000",1555412554.839637,-1.418884,-0.725515,0.947427,-0.739541,0.663521,-0.113218,0.000000,0.000000,0.000000,-1,0.329006,-0.334519,-0.865121,0.785592,-0.550866,0.684431
"2019-04-16 11:02:34.860 +0000",1555412554.859594,-1.461129,-0.703205,0.885919,-0.758192,0.646665,-0.083484,0.000000,0.000000,0.000000,-1,-4.913771,0.043027,-2.124943,0.353254,-0.822569,1.933963
"2019-04-16 11:02:34.880 +0000",1555412554.879582,-1.568140,-0.660165,0.733155,-0.789888,0.613247,-0.002098,0.000000,0.000000,0.000000,-1,-5.969169,-1.426971,-2.635894,0.651125,-0.820263,-0.097191
"2019-04-16 11:02:34.900 +0000",1555412554.899540,-1.695244,-0.602914,0.609082,-0.817317,0.567045,0.102242,0.000000,0.000000,0.000000,-1,-4.216531,-3.740688,-2.642158,0.545146,-0.856901,-0.499245
"2019-04-16 11:02:34.919 +0000",1555412554.919497,-1.807699,-0.532786,0.572251,-0.837336,0.507935,0.202163,0.000000,0.000000,0.000000,-1,0.486455,-7.328899,-4.067032,-0.944509,-0.890290,-2.378708
"2019-04-16 11:02:34.939 +0000",1555412554.939486,-1.911438,-0.444111,0.677268,-0.851107,0.429655,0.301683,0.000000,0.000000,0.000000,-1,4.204525,-1.495312,-6.530389,-3.723493,0.337175,-0.377702
"2019-04-16 11:02:34.959 +0000",1555412554.959444,-1.736604,-0.403369,0.785656,-0.907130,0.392519,0.151803,0.000000,0.000000,0.000000,-1,2.945666,4.358270,-1.341790,-4.675039,4.702314,0.649741
"2019-04-16 11:02:34.979 +0000",1555412554.979402,-1.751644,-0.356727,0.772709,-0.921763,0.349209,0.168541,0.000000,0.000000,0.000000,-1,-2.366004,-1.969323,-4.037433,-1.044149,1.867847,-0.863044
"2019-04-16 11:02:34.999 +0000",1555412554.999390,-1.785958,-0.255507,0.758319,-0.945226,0.252736,0.206574,0.000000,0.000000,0.000000,-1,-1.254928,-1.063472,-4.704718,0.893209,0.521113,-0.558411
"2019-04-16 11:02:35.019 +0000",1555412555.019347,-1.806604,-0.177457,0.760840,-0.957057,0.176527,0.229960,0.000000,0.000000,0.000000,-1,-0.038696,-0.966987,-2.893373,0.689875,0.255373,-0.641993
"2019-04-16 11:02:35.039 +0000",1555412555.039336,-1.801556,-0.150224,0.784750,-0.962529,0.149660,0.226142,0.000000,0.000000,0.000000,-1,2.078287,0.970111,-0.485403,0.875905,0.163862,-0.424323
"2019-04-16 11:02:35.059 +0000",1555412555.059244,-1.760314,-0.169960,0.841952,-0.967945,0.169143,0.185671,0.000000,0.000000,0.000000,-1,3.244508,2.069016,1.236334,1.367176,0.286591,-0.072816
"2019-04-16 11:02:35.079 +0000",1555412555.079201,-1.719501,-0.214315,0.888995,-0.966339,0.212678,0.144768,0.000000,0.000000,0.000000,-1,1.692026,0.862321,2.258365,1.630005,0.194198,0.402351
"2019-04-16 11:02:35.099 +0000",1555412555.099190,-1.730988,-0.264959,0.890051,-0.952747,0.261870,0.153941,0.000000,0.000000,0.000000,-1,-0.939384,-1.767386,2.638592,1.715198,-0.083266,0.471639
"2019-04-16 11:02:35.119 +0000",1555412555.119148,-1.775474,-0.300686,0.826853,-0.935197,0.296175,0.194132,0.000000,0.000000,0.000000,-1,-3.971012,-0.328025,2.039391,1.803514,-0.543841,0.075354
"2019-04-16 11:02:35.139 +0000",1555412555.139105,-1.798739,-0.322756,0.731874,-0.923834,0.317182,0.214305,0.000000,0.000000,0.000000,-1,-3.824391,0.196931,2.107657,1.817099,-0.555997,-0.816020
"2019-04-16 11:02:35.159 +0000",1555412555.159093,-1.828531,-0.350728,0.667352,-0.908103,0.343582,0.239374,0.000000,0.000000,0.000000,-1,-1.248576,-0.816420,1.919453,1.577934,-0.627929,-0.790659
"2019-04-16 11:02:35.179 +0000",1555412555.179051,-1.846973,-0.377616,0.663300,-0.894321,0.368706,0.253468,0.000000,0.000000,0.000000,-1,1.312088,-0.958348,0.790474,1.008670,-0.414131,-0.425328
"2019-04-16 11:02:35.199 +0000",1555412555.199009,-1.871790,-0.392539,0.687434,-0.882403,0.382536,0.273920,0.000000,0.000000,0.000000,-1,0.636449,-0.909015,-0.092177,0.443438,0.043810,2.103781
"2019-04-16 11:02:35.219 +0000",1555412555.218997,-1.776031,-0.384961,0.703116,-0.907362,0.375523,0.188882,0.000000,0.000000,0.000000,-1,1.075205,5.404505,-1.378668,-0.338060,0.828075,-1.601357
"2019-04-16 11:02:35.239 +0000",1555412555.238955,-1.647952,-0.315929,0.764874,-0.947681,0.310699,0.073265,0.000000,0.000000,0.000000,-1,2.137093,5.967778,-4.191533,-3.734860,5.976014,-1.488762
"2019-04-16 11:02:35.259 +0000",1555412555.258943,-1.587946,-0.301331,0.765160,-0.954802,0.296791,0.016376,0.000000,0.000000,0.000000,-1,-1.621226,-1.328418,2.465011,0.794920,-0.830864,0.580517
"2019-04-16 11:02:35.279 +0000",1555412555.278900,-1.670277,-0.402346,0.715185,-0.915595,0.391578,0.091385,0.000000,0.000000,0.000000,-1,-1.569022,-5.053206,7.004272,-0.161782,-0.545051,-1.089982
"2019-04-16 11:02:35.299 +0000",1555412555.298858,-1.772601,-0.535236,0.721334,-0.842693,0.510044,0.172406,0.000000,0.000000,0.000000,-1,4.256503,-1.949661,5.814011,-3.251957,0.141186,-0.656201
"2019-04-16 11:02:35.319 +0000",1555412555.318846,-1.655630,-0.675893,0.822788,-0.777343,0.625594,0.066104,0.000000,0.000000,0.000000,-1,6.249324,5.837136,5.977102,-2.290055,-1.332580,-1.011081
"2019-04-16 11:02:35.339 +0000",1555412555.338804,-1.471181,-0.765137,0.994194,-0.717712,0.692636,-0.071732,0.000000,0.000000,0.000000,-1,5.008879,-0.893113,2.916006,-1.622346,-1.856179,0.916093
"2019-04-16 11:02:35.359 +0000",1555412555.358762,-1.468294,-0.783877,1.053695,-0.704464,0.706030,-0.072463,0.000000,0.000000,0.000000,-1,0.401802,-2.535925,-0.081164,-0.750080,-0.910819,1.295699
"2019-04-16 11:02:35.379 +0000",1555412555.378751,-1.519926,-0.778780,1.057395,-0.710850,0.702412,-0.036193,0.000000,0.000000,0.000000,-1,0.313605,-2.604800,0.029598,0.600987,0.311931,-0.202714
"2019-04-16 11:02:35.399 +0000",1555412555.398708,-1.529990,-0.784245,1.088376,-0.707333,0.706291,-0.028879,0.000000,0.000000,0.000000,-1,1.949913,-0.645677,0.101644,0.384136,0.602868,-0.429296
"2019-04-16 11:02:35.419 +0000",1555412555.418666,-1.495717,-0.772568,1.147854,-0.714104,0.697976,-0.053716,0.000000,0.000000,0.000000,-1,1.867969,-0.275885,-0.792434,0.295143,-0.071496,-0.499141
"2019-04-16 11:02:35.439 +0000",1555412555.438653,-1.484473,-0.753782,1.186034,-0.726391,0.684401,-0.062861,0.000000,0.000000,0.000000,-1,1.106946,-1.233423,-0.737735,1.041805,-0.467696,-0.339041
"2019-04-16 11:02:35.459 +0000",1555412555.458611,-1.500024,-0.739311,1.200068,-0.737083,0.673779,-0.052253,0.000000,0.000000,0.000000,-1,-0.139897,-1.175548,-0.743270,1.016288,-0.668789,0.362647
"2019-04-16 11:02:35.479 +0000",1555412555.478599,-1.544166,-0.717157,1.149399,-0.753410,0.657244,-0.020068,0.000000,0.000000,0.000000,-1,-4.172397,0.538956,-1.853695,0.532250,-0.748477,1.675372
"2019-04-16 11:02:35.499 +0000",1555412555.498557,-1.627251,-0.663923,0.992054,-0.786326,0.616211,0.044439,0.000000,0.000000,0.000000,-1,-7.121597,0.630065,-3.052029,0.620479,-0.700180,0.301340
"2019-04-16 11:02:35.519 +0000",1555412555.518514,-1.730183,-0.589130,0.840680,-0.820886,0.555638,0.131958,0.000000,0.000000,0.000000,-1,-5.376554,-2.443899,-3.119990,0.724664,-0.857853,-1.102310
"2019-04-16 11:02:35.539 +0000",1555412555.538503,-1.850757,-0.513690,0.788421,-0.837028,0.491395,0.240656,0.000000,0.000000,0.000000,-1,0.413065,-8.143176,-3.273746,-0.815987,-1.393998,-2.455987
"2019-04-16 11:02:35.558 +0000",1555412555.558460,-1.932748,-0.460327,0.924557,-0.837859,0.444241,0.317241,0.000000,0.000000,0.000000,-1,6.324162,-0.847102,-6.397807,-4.758546,0.366229,0.130834
"2019-04-16 11:02:35.578 +0000",1555412555.578418,-1.795633,-0.413839,1.034441,-0.892539,0.402127,0.204127,0.000000,0.000000,0.000000,-1,1.694596,1.412738,-1.775823,-4.980172,4.951144,0.159292
"2019-04-16 11:02:35.598 +0000",1555412555.598406,-1.818225,-0.354791,1.021207,-0.909161,0.347394,0.229659,0.000000,0.000000,0.000000,-1,-2.698379,0.082437,-4.169664,-0.627811,2.977892,-0.362669
"2019-04-16 11:02:35.618 +0000",1555412555.618364,-1.814338,-0.255651,1.013086,-0.938948,0.252875,0.233304,0.000000,0.000000,0.000000,-1,-0.681772,0.221822,-4.312462,1.220229,0.480065,-0.912366
"2019-04-16 11:02:35.638 +0000",1555412555.638321,-1.811758,-0.199362,1.035534,-0.951874,0.198044,0.233910,0.000000,0.000000,0.000000,-1,1.511229,0.115540,-1.756304,1.173615,0.092407,-0.899620
"2019-04-16 11:02:35.658 +0000",1555412555.658311,-1.782157,-0.197599,1.082061,-0.958720,0.196315,0.205708,0.000000,0.000000,0.000000,-1,2.687774,1.666824,0.476563,1.116801,0.037556,-0.365391
"2019-04-16 11:02:35.678 +0000",1555412555.678268,-1.735676,-0.229254,1.124914,-0.960629,0.227251,0.159840,0.000000,0.000000,0.000000,-1,1.889821,1.304957,1.629327,1.458233,-0.016954,0.221187
"2019-04-16 11:02:35.698 +0000",1555412555.698225,-1.722329,-0.271115,1.141865,-0.952432,0.267806,0.145439,0.000000,0.000000,0.000000,-1,0.103101,-0.190404,2.341751,1.592096,-0.048873,0.615684
"2019-04-16 11:02:35.718 +0000",1555412555.718213,-1.745199,-0.324084,1.112494,-0.933563,0.318441,0.164487,0.000000,0.000000,0.000000,-1,-2.054196,-0.920213,3.255894,1.840683,-0.473729,0.491061
"2019-04-16 11:02:35.738 +0000",1555412555.738171,-1.786565,-0.376322,1.037393,-0.908457,0.367502,0.199116,0.000000,0.000000,0.000000,-1,-3.524867,-0.516167,3.009482,1.454875,-0.517008,-0.029866
"2019-04-16 11:02:35.758 +0000",1555412555.758160,-1.831029,-0.411124,0.958487,-0.885808,0.399640,0.235865,0.000000,0.000000,0.000000,-1,-2.351080,-1.105468,2.098531,1.213933,-0.741574,-0.749491
"2019-04-16 11:02:35.778 +0000",1555412555.778116,-1.874670,-0.435214,0.923080,-0.865235,0.421605,0.271325,0.000000,0.000000,0.000000,-1,-0.111005,-1.760922,1.002386,0.959886,-0.845250,-0.712243
"2019-04-16 11:02:35.798 +0000",1555412555.798074,-1.917002,-0.441501,0.931087,-0.850468,0.427297,0.306793,0.000000,0.000000,0.000000,-1,0.462331,-2.406588,-0.560219,0.547504,-0.414037,0.054733
"2019-04-16 11:02:35.818 +0000",1555412555.818063,-1.913713,-0.425255,0.938245,-0.857897,0.412553,0.306288,0.000000,0.000000,0.000000,-1,-0.279856,1.635494,-0.940519,0.588259,-0.103013,1.233873
"2019-04-16 11:02:35.838 +0000",1555412555.838020,-1.842518,-0.414017,0.935997,-0.881922,0.402290,0.245715,0.000000,0.000000,0.000000,-1,-0.596946,6.954586,-0.199582,1.054606,0.491188,-0.666232
"2019-04-16 11:02:35.858 +0000",1555412555.857978,-1.670451,-0.385335,0.953642,-0.922075,0.375869,0.092195,0.000000,0.000000,0.000000,-1,2.968227,8.491240,-3.987871,-4.110609,7.563492,-2.729585
"2019-04-16 11:02:35.878 +0000",1555412555.877967,-1.570997,-0.328841,1.037365,-0.946417,0.322946,0.000190,0.000000,0.000000,0.000000,-1,3.337265,-3.162369,0.032291,0.463660,0.446448,-1.564795
"2019-04-16 11:02:35.898 +0000",1555412555.897923,-1.701667,-0.436528,1.058561,-0.898476,0.422795,0.118260,0.000000,0.000000,0.000000,-1,1.303799,-8.645189,9.539871,-0.856941,-0.602467,-0.710820
"2019-04-16 11:02:35.918 +0000",1555412555.917881,-1.732206,-0.621928,1.103052,-0.802192,0.582604,0.130618,0.000000,0.000000,0.000000,-1,4.653811,3.390726,6.929770,-4.056283,-1.488335,1.331845
"2019-04-16 11:02:35.938 +0000",1555412555.937870,-1.620135,-0.726471,1.193074,-0.746614,0.664235,0.036867,0.000000,0.000000,0.000000,-1,3.307166,1.910951,2.974919,-1.337569,-1.253393,0.591475
"2019-04-16 11:02:35.958 +0000",1555412555.957827,-1.564601,-0.775081,1.276901,-0.714350,0.699774,-0.004426,0.000000,0.000000,0.000000,-1,2.890538,-1.941960,2.035877,-1.080709,-0.912283,0.139466
"2019-04-16 11:02:35.978 +0000",1555412555.977814,-1.557789,-0.804912,1.351120,-0.693116,0.720770,-0.009016,0.000000,0.000000,0.000000,-1,2.444141,-2.251773,0.964428,-0.360885,-0.836081,-0.193911
"2019-04-16 11:02:35.998 +0000",1555412555.997773,-1.541373,-0.819342,1.418348,-0.682407,0.730697,-0.020084,0.000000,0.000000,0.000000,-1,2.095851,-0.836360,0.674690,0.605075,-0.236037,0.183201
"2019-04-16 11:02:36.018 +0000",1555412556.017730,-1.517011,-0.823983,1.464818,-0.678321,0.733858,-0.036519,0.000000,0.000000,0.000000,-1,1.004881,-0.665555,-0.372433,0.197593,0.037337,0.133412
"2019-04-16 11:02:36.038 +0000",1555412556.037719,-1.515302,-0.808452,1.482144,-0.689556,0.723219,-0.038306,0.000000,0.000000,0.000000,-1,0.477454,-0.090832,-0.917391,0.613658,-0.298323,-0.352075
"2019-04-16 11:02:36.058 +0000",1555412556.057656,-1.502387,-0.791587,1.487801,-0.701074,0.711469,-0.048035,0.000000,0.000000,0.000000,-1,-0.190002,0.672375,-0.695736,0.948419,-0.571897,0.004044
"2019-04-16 11:02:36.078 +0000",1555412556.077614,-1.518460,-0.780429,1.460775,-0.709639,0.703584,-0.037174,0.000000,0.000000,0.000000,-1,-1.916469,-0.375231,-0.735424,0.700286,-0.838716,0.414050
"2019-04-16 11:02:36.098 +0000",1555412556.097602,-1.598477,-0.754702,1.363879,-0.728197,0.685072,0.020162,0.000000,0.000000,0.000000,-1,-5.058776,-0.857218,-2.020369,0.053804,-0.870939,0.930750
"2019-04-16 11:02:36.118 +0000",1555412556.117560,-1.726022,-0.697019,1.221273,-0.757540,0.641935,0.118543,0.000000,0.000000,0.000000,-1,-5.539925,-2.821528,-2.666298,0.302706,-0.884046,-0.136991
"2019-04-16 11:02:36.138 +0000",1555412556.137517,-1.860526,-0.625004,1.148594,-0.777160,0.585101,0.231686,0.000000,0.000000,0.000000,-1,-0.115235,-6.740918,-3.483701,-1.168457,-1.222689,-1.583218
"2019-04-16 11:02:36.158 +0000",1555412556.157505,-1.975238,-0.561534,1.273931,-0.778150,0.532485,0.333078,0.000000,0.000000,0.000000,-1,4.748520,-7.880025,-6.257272,-2.974581,-0.047744,-1.676966
"2019-04-16 11:02:36.177 +0000",1555412556.177464,-1.861468,-0.495914,1.357377,-0.842639,0.475836,0.252071,0.000000,0.000000,0.000000,-1,3.706291,8.010642,-2.357487,-4.705319,3.887339,-1.789043
"2019-04-16 11:02:36.197 +0000",1555412556.197452,-1.822364,-0.473029,1.416032,-0.862172,0.455585,0.221589,0.000000,0.000000,0.000000,-1,-0.904913,-2.871798,-1.663360,-0.857768,2.649259,0.227050
"2019-04-16 11:02:36.217 +0000",1555412556.217409,-1.888852,-0.405213,1.397459,-0.872925,0.394214,0.287396,0.000000,0.000000,0.000000,-1,-1.620642,-2.949007,-4.449843,-0.387130,0.926617,-1.089611
"2019-04-16 11:02:36.237 +0000",1555412556.237367,-1.920391,-0.318858,1.398139,-0.892155,0.313482,0.325252,0.000000,0.000000,0.000000,-1,-1.036600,-0.122204,-3.192363,0.603870,0.256296,-0.124568
"2019-04-16 11:02:36.257 +0000",1555412556.257355,-1.899887,-0.276486,1.404050,-0.910395,0.272977,0.310908,0.000000,0.000000,0.000000,-1,0.145660,1.494092,-0.929818,0.703700,0.401202,-0.519023
"2019-04-16 11:02:36.277 +0000",1555412556.277313,-1.876204,-0.278827,1.430408,-0.916891,0.275228,0.289070,0.000000,0.000000,0.000000,-1,2.393628,0.678584,-0.036595,0.868856,0.184260,-0.565010
"2019-04-16 11:02:36.297 +0000",1555412556.297270,-1.838597,-0.293640,1.482767,-0.923077,0.289438,0.253285,0.000000,0.000000,0.000000,-1,2.480867,1.273075,0.165547,1.135709,-0.353205,0.298610
"2019-04-16 11:02:36.317 +0000",1555412556.317259,-1.812273,-0.313206,1.517980,-0.923748,0.308110,0.227503,0.000000,0.000000,0.000000,-1,1.138726,-0.002245,0.897823,1.542980,-0.388692,-0.019053
"2019-04-16 11:02:36.337 +0000",1555412556.337216,-1.833603,-0.339912,1.513944,-0.910413,0.333404,0.244927,0.000000,0.000000,0.000000,-1,-0.878504,-1.721101,1.745116,1.992139,-0.603683,0.065528
"2019-04-16 11:02:36.357 +0000",1555412556.357174,-1.874676,-0.363567,1.466166,-0.891812,0.355610,0.279665,0.000000,0.000000,0.000000,-1,-2.766749,-0.199494,1.596798,1.879849,-0.751072,-0.045961
"2019-04-16 11:02:36.377 +0000",1555412556.377162,-1.892989,-0.369271,1.401760,-0.884603,0.360936,0.295302,0.000000,0.000000,0.000000,-1,-2.288260,-0.108399,0.752635,1.659963,-0.754048,-0.765456
"2019-04-16 11:02:36.397 +0000",1555412556.397119,-1.913301,-0.369458,1.373047,-0.878359,0.361110,0.313186,0.000000,0.000000,0.000000,-1,-0.320215,-0.562532,0.166400,1.291338,-0.642910,-0.412826
"2019-04-16 11:02:36.417 +0000",1555412556.417077,-1.917037,-0.368103,1.382797,-0.877642,0.359846,0.316631,0.000000,0.000000,0.000000,-1,1.187755,-0.707520,-0.814361,0.534380,-0.126844,0.522053
"2019-04-16 11:02:36.437 +0000",1555412556.437065,-1.901891,-0.355131,1.422016,-0.886677,0.347713,0.304794,0.000000,0.000000,0.000000,-1,0.874632,2.952789,-1.609373,-0.488766,0.885166,0.569748
"2019-04-16 11:02:36.457 +0000",1555412556.457022,-1.761964,-0.300019,1.465185,-0.937928,0.295539,0.181518,0.000000,0.000000,0.000000,-1,2.149350,8.390604,-4.003986,-4.832061,6.521005,-1.736221
"2019-04-16 11:02:36.477 +0000",1555412556.477010,-1.632337,-0.291179,1.492513,-0.956093,0.287081,0.058913,0.000000,0.000000,0.000000,-1,-0.069647,2.924727,2.574710,1.051247,-0.297976,-0.044524
"2019-04-16 11:02:36.497 +0000",1555412556.496969,-1.618318,-0.365957,1.460890,-0.932728,0.357843,0.044358,0.000000,0.000000,0.000000,-1,-2.295846,-0.447741,4.732331,1.347095,-0.302499,0.063796
"2019-04-16 11:02:36.517 +0000",1555412556.516927,-1.691082,-0.474805,1.398126,-0.882955,0.457165,0.106722,0.000000,0.000000,0.000000,-1,-2.104516,-3.060989,6.082658,-0.084849,0.700336,-0.951434
"2019-04-16 11:02:36.537 +0000",1555412556.536915,-1.783297,-0.567435,1.368137,-0.824314,0.537470,0.177852,0.000000,0.000000,0.000000,-1,1.687686,-3.954770,3.807713,-2.737453,1.554204,-2.151348
"2019-04-16 11:02:36.557 +0000",1555412556.556884,-1.806744,-0.691724,1.432995,-0.748809,0.637866,0.180033,0.000000,0.000000,0.000000,-1,6.292559,-0.386822,6.926226,-2.062333,-0.824908,-1.462122
"2019-04-16 11:02:36.577 +0000",1555412556.576829,-1.620760,-0.836359,1.561928,-0.669333,0.742208,0.033470,0.000000,0.000000,0.000000,-1,2.222782,5.718591,4.309805,-3.705285,-3.595052,4.597572
"2019-04-16 11:02:36.597 +0000",1555412556.596818,-1.509543,-0.857981,1.645651,-0.652740,0.756524,-0.040033,0.000000,0.000000,0.000000,-1,3.688356,-0.233611,-0.247934,0.285323,-1.194390,-0.252738
"2019-04-16 11:02:36.617 +0000",1555412556.616776,-1.450005,-0.866928,1.756648,-0.642456,0.762345,-0.077982,0.000000,0.000000,0.000000,-1,2.660131,-0.992543,1.551553,1.113876,0.481766,0.540888
"2019-04-16 11:02:36.637 +0000",1555412556.636733,-1.404228,-0.877082,1.811266,-0.630548,0.768876,-0.106012,0.000000,0.000000,0.000000,-1,1.007884,0.963693,0.049700,-0.227698,-0.095750,-0.394797
"2019-04-16 11:02:36.657 +0000",1555412556.656721,-1.368273,-0.868467,1.839205,-0.632795,0.763340,-0.129937,0.000000,0.000000,0.000000,-1,0.901578,0.379967,-0.495839,-0.085208,-0.136432,-0.487953
"2019-04-16 11:02:36.677 +0000",1555412556.676680,-1.362884,-0.854118,1.850588,-0.642737,0.753992,-0.135592,0.000000,0.000000,0.000000,-1,0.033864,-0.607402,-0.748742,-0.041498,-0.641657,0.265094
"2019-04-16 11:02:36.697 +0000",1555412556.696667,-1.394191,-0.837735,1.831622,-0.658740,0.743129,-0.117561,0.000000,0.000000,0.000000,-1,-1.050190,-0.947078,-1.105964,0.014865,-1.205394,0.648811
"2019-04-16 11:02:36.717 +0000",1555412556.716624,-1.441627,-0.816625,1.767117,-0.678981,0.728839,-0.088194,0.000000,0.000000,0.000000,-1,-2.848781,1.086951,-1.675024,0.211253,-1.357837,1.453551
"2019-04-16 11:02:36.737 +0000",1555412556.736583,-1.495081,-0.780997,1.687287,-0.708177,0.703988,-0.053723,0.000000,0.000000,0.000000,-1,-1.865773,-1.524279,-2.559898,0.283983,-1.055840,-0.081256
"2019-04-16 11:02:36.757 +0000",1555412556.756570,-1.586045,-0.717728,1.658780,-0.753214,0.657675,0.011486,0.000000,0.000000,0.000000,-1,-0.070930,-5.294087,-3.992621,0.106928,-0.770208,0.199009
"2019-04-16 11:02:36.777 +0000",1555412556.776528,-1.676542,-0.618384,1.689708,-0.810265,0.579719,0.086003,0.000000,0.000000,0.000000,-1,1.716669,-5.738585,-5.758596,-1.017280,-0.387733,-1.321949
"2019-04-16 11:02:36.796 +0000",1555412556.796486,-1.771012,-0.493189,1.721625,-0.863232,0.473437,0.175180,0.000000,0.000000,0.000000,-1,-1.859874,-3.109492,-7.129245,-1.610493,0.607312,-1.470727
"2019-04-16 11:02:36.817 +0000",1555412556.816516,-1.648725,-0.387042,1.757633,-0.923219,0.377451,0.072091,0.000000,0.000000,0.000000,-1,4.574985,10.145271,-2.366566,-4.500029,4.209342,-1.665307
"2019-04-16 11:02:36.836 +0000",1555412556.836432,-1.577556,-0.364070,1.818041,-0.934434,0.356080,0.006317,0.000000,0.000000,0.000000,-1,-1.289156,-3.959296,-1.211409,-1.092849,2.298598,0.639710
"2019-04-16 11:02:36.856 +0000",1555412556.856390,-1.679542,-0.300648,1.774864,-0.949503,0.296140,0.103664,0.000000,0.000000,0.000000,-1,-2.025195,-3.643820,-5.416488,-1.164129,0.684695,-0.689571
"2019-04-16 11:02:36.876 +0000",1555412556.876378,-1.722529,-0.185097,1.753879,-0.971625,0.184042,0.148569,0.000000,0.000000,0.000000,-1,-1.047235,-0.283695,-4.709830,0.321631,0.045541,0.209524
"2019-04-16 11:02:36.896 +0000",1555412556.896335,-1.706710,-0.125985,1.759377,-0.982926,0.125652,0.134422,0.000000,0.000000,0.000000,-1,1.006518,1.208220,-1.466393,0.620102,0.556950,-0.013603
"2019-04-16 11:02:36.916 +0000",1555412556.916293,-1.694994,-0.114172,1.814822,-0.985837,0.113924,0.123072,0.000000,0.000000,0.000000,-1,3.694050,-0.306392,-0.346970,0.768308,-0.267473,-0.208644
"2019-04-16 11:02:36.936 +0000",1555412556.936281,-1.692892,-0.132838,1.884434,-0.983811,0.132448,0.120719,0.000000,0.000000,0.000000,-1,3.151074,-0.036232,1.504184,1.060700,-0.462831,0.028787
"2019-04-16 11:02:36.956 +0000",1555412556.956238,-1.680201,-0.184935,1.932965,-0.977071,0.183882,0.107325,0.000000,0.000000,0.000000,-1,2.085608,0.420554,2.765210,1.443304,-0.081267,-0.330240
"2019-04-16 11:02:36.976 +0000",1555412556.976227,-1.680980,-0.239861,1.948041,-0.965481,0.237568,0.106813,0.000000,0.000000,0.000000,-1,-0.330778,-0.897748,2.401263,1.737285,-0.123966,0.114257
"2019-04-16 11:02:36.996 +0000",1555412556.996185,-1.698901,-0.270592,1.882759,-0.955717,0.267302,0.123106,0.000000,0.000000,0.000000,-1,-5.569932,0.610251,1.483607,2.089536,-0.195051,0.618105
"2019-04-16 11:02:37.016 +0000",1555412557.016142,-1.741928,-0.291948,1.752785,-0.943696,0.287819,0.163092,0.000000,0.000000,0.000000,-1,-5.379755,-1.606700,2.816021,2.588868,-0.158805,-0.960394
"2019-04-16 11:02:37.036 +0000",1555412557.036130,-1.807944,-0.345194,1.680644,-0.914673,0.338379,0.221073,0.000000,0.000000,0.000000,-1,-0.327146,-2.509431,3.234240,2.281250,-0.304795,-0.405399
"2019-04-16 11:02:37.056 +0000",1555412557.056088,-1.843290,-0.397855,1.681781,-0.887879,0.387442,0.248113,0.000000,0.000000,0.000000,-1,1.289462,-1.180350,1.805916,1.156174,-0.267218,0.316249
"2019-04-16 11:02:37.076 +0000",1555412557.076013,-1.843114,-0.433003,1.724885,-0.874261,0.419599,0.244141,0.000000,0.000000,0.000000,-1,3.606232,1.079056,0.449728,0.497872,0.261935,-0.432084
"2019-04-16 11:02:37.096 +0000",1555412557.096001,-1.765066,-0.439549,1.777511,-0.887921,0.425531,0.174699,0.000000,0.000000,0.000000,-1,1.068029,5.321718,-1.144201,-0.942463,1.795126,-0.601106
"2019-04-16 11:02:37.116 +0000",1555412557.116001,-1.582226,-0.374911,1.784894,-0.930480,0.366189,0.010635,0.000000,0.000000,0.000000,-1,-1.099048,10.009277,-4.271244,-3.187150,4.625433,-0.052139
"2019-04-16 11:02:37.136 +0000",1555412557.135916,-1.476807,-0.347576,1.728772,-0.936051,0.340620,-0.088239,0.000000,0.000000,0.000000,-1,-4.029274,2.732269,1.308177,1.215806,-0.594114,-0.145571
"2019-04-16 11:02:37.156 +0000",1555412557.155904,-1.526809,-0.428531,1.637144,-0.908697,0.415535,-0.039997,0.000000,0.000000,0.000000,-1,-4.042475,-5.229907,5.992998,0.818380,-0.726189,-0.877178
"2019-04-16 11:02:37.176 +0000",1555412557.175863,-1.648435,-0.558587,1.599843,-0.845450,0.529989,0.065772,0.000000,0.000000,0.000000,-1,1.200029,-3.703441,5.473401,-3.225641,1.188044,-1.608527
"2019-04-16 11:02:37.196 +0000",1555412557.195851,-1.657162,-0.671939,1.652047,-0.779699,0.622504,0.067507,0.000000,0.000000,0.000000,-1,3.467163,-1.246786,6.200627,-1.639139,-0.606406,-1.847033
"2019-04-16 11:02:37.216 +0000",1555412557.215807,-1.561065,-0.804146,1.764924,-0.693694,0.720238,-0.006751,0.000000,0.000000,0.000000,-1,5.955990,4.044747,6.301647,-2.975160,-2.203652,0.626868
"2019-04-16 11:02:37.236 +0000",1555412557.235766,-1.404190,-0.875978,1.877006,-0.631380,0.768170,-0.106176,0.000000,0.000000,0.000000,-1,1.895329,1.586323,1.010103,-2.243909,-2.067608,1.500631
"2019-04-16 11:02:37.256 +0000",1555412557.255754,-1.363290,-0.870215,1.939500,-0.630833,0.764468,-0.132814,0.000000,0.000000,0.000000,-1,2.170500,-1.526567,0.134400,0.922077,-0.242571,0.028505
"2019-04-16 11:02:37.276 +0000",1555412557.275710,-1.347759,-0.870927,2.000467,-0.628163,0.764926,-0.142474,0.000000,0.000000,0.000000,-1,1.751605,-1.499978,0.494209,0.341542,0.256802,-0.104551
"2019-04-16 11:02:37.296 +0000",1555412557.295670,-1.327687,-0.864359,2.062927,-0.630039,0.760680,-0.156259,0.000000,0.000000,0.000000,-1,2.208765,-0.992055,-0.283677,-0.259502,-0.516158,-0.221732
"2019-04-16 11:02:37.316 +0000",1555412557.315657,-1.296978,-0.836896,2.114802,-0.644819,0.742567,-0.181112,0.000000,0.000000,0.000000,-1,1.641878,-0.035919,-1.386704,0.166502,-0.701643,0.072165
"2019-04-16 11:02:37.336 +0000",1555412557.335614,-1.290181,-0.803372,2.130865,-0.667127,0.719701,-0.192280,0.000000,0.000000,0.000000,-1,0.177010,-0.689323,-1.464512,0.503187,-0.552755,0.599186
"2019-04-16 11:02:37.356 +0000",1555412557.355574,-1.350435,-0.776752,2.080425,-0.695948,0.700967,-0.155891,0.000000,0.000000,0.000000,-1,-3.099340,-1.600855,-2.100692,0.485056,-0.627724,1.374245
"2019-04-16 11:02:37.376 +0000",1555412557.375561,-1.468535,-0.743530,1.972368,-0.732238,0.676890,-0.075142,0.000000,0.000000,0.000000,-1,-3.591343,-3.077561,-2.381236,0.587280,-0.818446,-0.102043
"2019-04-16 11:02:37.396 +0000",1555412557.395517,-1.605873,-0.691100,1.888143,-0.770071,0.637385,0.027023,0.000000,0.000000,0.000000,-1,-2.198449,-4.358907,-3.331964,-0.011331,-0.714930,-0.231155
"2019-04-16 11:02:37.415 +0000",1555412557.415476,-1.726709,-0.605486,1.880740,-0.812252,0.569162,0.127677,0.000000,0.000000,0.000000,-1,0.462154,-8.032896,-5.275223,-0.845173,-0.379709,-2.215064
"2019-04-16 11:02:37.435 +0000",1555412557.435464,-1.793875,-0.492708,1.910803,-0.859223,0.473014,0.194919,0.000000,0.000000,0.000000,-1,0.046667,5.814583,-5.312985,-5.603103,2.993570,0.660703
"2019-04-16 11:02:37.455 +0000",1555412557.455422,-1.594932,-0.441308,1.953226,-0.903930,0.427123,0.021821,0.000000,0.000000,0.000000,-1,0.559585,1.803100,-1.316908,-1.857758,2.356615,0.782805
"2019-04-16 11:02:37.475 +0000",1555412557.475410,-1.653387,-0.387888,1.918358,-0.922555,0.378234,0.076368,0.000000,0.000000,0.000000,-1,-2.652066,-2.259316,-4.717383,-1.432456,1.163057,-0.432325
"2019-04-16 11:02:37.495 +0000",1555412557.495368,-1.686571,-0.282975,1.874407,-0.953801,0.279214,0.110922,0.000000,0.000000,0.000000,-1,-2.095317,-0.328820,-4.677908,0.454549,0.554908,-0.186224
"2019-04-16 11:02:37.515 +0000",1555412557.515325,-1.690506,-0.200876,1.854178,-0.972879,0.199528,0.117023,0.000000,0.000000,0.000000,-1,-0.671537,0.037328,-3.082027,0.613382,0.274288,-0.092624
"2019-04-16 11:02:37.535 +0000",1555412557.535312,-1.710106,-0.167294,1.872008,-0.976486,0.166515,0.136921,0.000000,0.000000,0.000000,-1,2.068151,-2.146741,-0.465458,0.852890,-0.481380,-0.478245
"2019-04-16 11:02:37.555 +0000",1555412557.555271,-1.712914,-0.188839,1.919783,-0.972320,0.187718,0.139122,0.000000,0.000000,0.000000,-1,2.443725,1.362676,1.808034,1.053451,-0.141545,0.044411
"2019-04-16 11:02:37.575 +0000",1555412557.575229,-1.674698,-0.244530,1.963142,-0.965019,0.242100,0.100629,0.000000,0.000000,0.000000,-1,2.524736,0.229079,2.939837,1.761146,0.262966,-0.720960
"2019-04-16 11:02:37.595 +0000",1555412557.595217,-1.716218,-0.306715,1.991197,-0.943268,0.301928,0.138146,0.000000,0.000000,0.000000,-1,0.099237,-4.708499,2.801339,1.740845,-0.224505,0.463630
"2019-04-16 11:02:37.615 +0000",1555412557.615175,-1.779411,-0.350036,1.926499,-0.918994,0.342931,0.194546,0.000000,0.000000,0.000000,-1,-5.258579,2.693246,2.604357,2.140384,-0.412695,1.305728
"2019-04-16 11:02:37.635 +0000",1555412557.635132,-1.739049,-0.381317,1.800176,-0.915069,0.372143,0.155432,0.000000,0.000000,0.000000,-1,-4.548565,3.218910,2.898719,2.240050,-0.551022,-1.405356
"2019-04-16 11:02:37.655 +0000",1555412557.655120,-1.744924,-0.430116,1.727618,-0.895172,0.416977,0.157469,0.000000,0.000000,0.000000,-1,-1.195157,-0.771956,2.637075,1.872025,-0.670395,-0.785765
"2019-04-16 11:02:37.675 +0000",1555412557.675078,-1.783267,-0.467710,1.726884,-0.872531,0.450843,0.188228,0.000000,0.000000,0.000000,-1,1.521777,-2.914423,1.071961,1.190540,-0.508598,-0.300304
"2019-04-16 11:02:37.695 +0000",1555412557.695035,-1.862268,-0.485469,1.773292,-0.847152,0.466623,0.254159,0.000000,0.000000,0.000000,-1,3.805438,-3.852729,-0.478992,0.560073,0.556280,0.356803
"2019-04-16 11:02:37.715 +0000",1555412557.715023,-1.793071,-0.464129,1.851162,-0.872213,0.447644,0.197128,0.000000,0.000000,0.000000,-1,1.304744,8.475366,-5.626997,-4.440363,5.732395,0.060395
"2019-04-16 11:02:37.735 +0000",1555412557.734981,-1.562118,-0.342134,1.840311,-0.942005,0.335499,-0.008175,0.000000,0.000000,0.000000,-1,-3.403945,9.281036,-3.326290,-0.108532,1.139141,-0.308612
"2019-04-16 11:02:37.755 +0000",1555412557.754969,-1.525307,-0.343102,1.746513,-0.940741,0.336410,-0.042823,0.000000,0.000000,0.000000,-1,-5.026577,-3.243353,3.070493,1.055594,-1.325027,-0.685448
"2019-04-16 11:02:37.775 +0000",1555412557.774928,-1.677284,-0.459337,1.654473,-0.891269,0.443354,0.095270,0.000000,0.000000,0.000000,-1,-1.594196,-6.670718,7.408320,-0.233212,-0.027171,-1.074075
"2019-04-16 11:02:37.795 +0000",1555412557.794885,-1.743642,-0.598998,1.698621,-0.813595,0.563815,0.142044,0.000000,0.000000,0.000000,-1,6.012890,-2.056141,6.230375,-1.879017,0.064191,-1.728805
"2019-04-16 11:02:37.815 +0000",1555412557.814873,-1.669365,-0.741856,1.821108,-0.733638,0.675657,0.072549,0.000000,0.000000,0.000000,-1,5.425755,2.020982,5.905754,-2.320302,-0.426268,-1.281350
