timestamp,timeIntervalSince1970,attitude.roll,attitude.pitch,attitude.yaw,gravity.x,gravity.y,gravity.z,magneticField.x,magneticField.y,magneticField.z,magneticField.accuracy,rotationRate.x,rotationRate.y,rotationRate.z,userAcceleration.x,userAcceleration.y,userAcceleration.z
"2019-04-05 12:11:00.287 +0000",1554466260.287036,0.058239,0.497383,-0.036972,0.051153,-0.477127,-0.877344,0.000000,0.000000,0.000000,-1,-0.240081,-2.018841,-0.949761,-0.339392,0.271866,0.400156
"2019-04-05 12:11:00.307 +0000",1554466260.307125,0.036436,0.476916,-0.060107,0.032363,-0.459042,-0.887825,0.000000,0.000000,0.000000,-1,-1.750807,-1.295407,-1.132769,-0.270659,0.350735,0.668541
"2019-04-05 12:11:00.327 +0000",1554466260.327217,0.028789,0.425073,-0.091234,0.026223,-0.412387,-0.910631,0.000000,0.000000,0.000000,-1,-3.231881,-0.865807,-1.709884,-0.244561,0.342502,0.376818
"2019-04-05 12:11:00.347 +0000",1554466260.347308,0.021192,0.359014,-0.123194,0.019839,-0.351351,-0.936033,0.000000,0.000000,0.000000,-1,-3.018159,-0.977035,-1.270908,0.300214,-0.028867,0.071242
"2019-04-05 12:11:00.367 +0000",1554466260.367392,0.008831,0.306184,-0.140832,0.008420,-0.301422,-0.953454,0.000000,0.000000,0.000000,-1,-2.150470,-0.556480,-0.450066,-0.313245,0.016815,0.045403
"2019-04-05 12:11:00.387 +0000",1554466260.387481,0.014127,0.273862,-0.144954,0.013600,-0.270452,-0.962637,0.000000,0.000000,0.000000,-1,-1.022296,0.964121,-0.114913,-0.414571,-0.089366,0.320853
"2019-04-05 12:11:00.408 +0000",1554466260.407570,0.039625,0.266225,-0.149731,0.038219,-0.263091,-0.964014,0.000000,0.000000,0.000000,-1,0.285707,1.223546,-0.379697,-0.360073,0.133178,0.066690
"2019-04-05 12:11:00.428 +0000",1554466260.427665,0.062806,0.283488,-0.161772,0.060259,-0.279706,-0.958193,0.000000,0.000000,0.000000,-1,1.374654,0.448263,-0.606634,-0.297183,0.160809,-0.140287
"2019-04-05 12:11:00.448 +0000",1554466260.447755,0.050893,0.307587,-0.173997,0.048483,-0.302760,-0.951833,0.000000,0.000000,0.000000,-1,0.809347,-1.910130,-0.501205,-0.332678,0.105098,-0.484050
"2019-04-05 12:11:00.468 +0000",1554466260.467839,0.013121,0.311961,-0.187570,0.012487,-0.306925,-0.951652,0.000000,0.000000,0.000000,-1,-0.250968,-1.794440,-0.812298,-0.298834,0.146250,0.073676
"2019-04-05 12:11:00.488 +0000",1554466260.487931,-0.004854,0.300743,-0.209399,-0.004636,-0.296230,-0.955105,0.000000,0.000000,0.000000,-1,-0.754764,-0.897937,-1.231494,-0.281833,0.287304,0.138989
"2019-04-05 12:11:00.508 +0000",1554466260.508020,-0.022374,0.287112,-0.235017,-0.021456,-0.283184,-0.958826,0.000000,0.000000,0.000000,-1,-0.496102,-1.729643,-1.115088,-0.252256,0.213314,-0.200629
"2019-04-05 12:11:00.528 +0000",1554466260.528106,-0.054599,0.286916,-0.255906,-0.052341,-0.282995,-0.957692,0.000000,0.000000,0.000000,-1,0.344888,-1.862105,-1.010184,-0.080914,0.266073,-0.142283
"2019-04-05 12:11:00.548 +0000",1554466260.548199,-0.081369,0.294991,-0.280148,-0.077769,-0.290731,-0.953639,0.000000,0.000000,0.000000,-1,0.138632,-1.489095,-1.213967,-0.021673,0.257055,-0.110768
"2019-04-05 12:11:00.568 +0000",1554466260.568286,-0.096755,0.293344,-0.303312,-0.092477,-0.289155,-0.952805,0.000000,0.000000,0.000000,-1,-0.517087,-0.735831,-1.042213,0.007898,0.130814,-0.045471
"2019-04-05 12:11:00.588 +0000",1554466260.588378,-0.103988,0.281157,-0.327600,-0.099725,-0.277468,-0.955545,0.000000,0.000000,0.000000,-1,-0.787100,-0.820308,-1.206889,0.249368,0.120928,-0.165045
"2019-04-05 12:11:00.608 +0000",1554466260.608465,-0.098364,0.287758,-0.362046,-0.094167,-0.283803,-0.954248,0.000000,0.000000,0.000000,-1,-0.311574,-1.587891,-1.246277,0.311361,0.135015,-0.377173
"2019-04-05 12:11:00.629 +0000",1554466260.628553,-0.128037,0.289114,-0.389298,-0.122388,-0.285103,-0.950651,0.000000,0.000000,0.000000,-1,0.131554,-1.932487,-1.312675,0.218717,0.166710,-0.420092
"2019-04-05 12:11:00.649 +0000",1554466260.648647,-0.138703,0.304101,-0.419569,-0.131915,-0.299435,-0.944953,0.000000,0.000000,0.000000,-1,0.218601,-1.473168,-1.173966,0.319323,0.077084,-0.175423
"2019-04-05 12:11:00.669 +0000",1554466260.668733,-0.158636,0.309544,-0.440757,-0.150463,-0.304624,-0.940513,0.000000,0.000000,0.000000,-1,0.009753,-1.113878,-0.980981,0.295941,0.121961,-0.070260
"2019-04-05 12:11:00.689 +0000",1554466260.688821,-0.160511,0.317548,-0.463424,-0.151832,-0.312238,-0.937792,0.000000,0.000000,0.000000,-1,0.081977,-1.001372,-0.834395,0.244575,0.064237,-0.112516
"2019-04-05 12:11:00.709 +0000",1554466260.708911,-0.176477,0.324596,-0.479021,-0.166395,-0.318926,-0.933059,0.000000,0.000000,0.000000,-1,0.349594,-1.065760,-0.670708,0.197935,0.117495,-0.122773
"2019-04-05 12:11:00.729 +0000",1554466260.729005,-0.182415,0.338218,-0.494098,-0.171128,-0.331806,-0.927696,0.000000,0.000000,0.000000,-1,0.427338,-1.060538,-0.631709,0.180680,0.163013,-0.045037
"2019-04-05 12:11:00.749 +0000",1554466260.749093,-0.201321,0.346435,-0.507167,-0.188084,-0.339547,-0.921592,0.000000,0.000000,0.000000,-1,0.141525,-1.245664,-0.804262,0.147694,0.069131,0.042091
"2019-04-05 12:11:00.769 +0000",1554466260.769182,-0.212033,0.351028,-0.529602,-0.197615,-0.343863,-0.917990,0.000000,0.000000,0.000000,-1,-0.341310,-1.422593,-0.853295,0.090956,0.014274,0.089011
"2019-04-05 12:11:00.789 +0000",1554466260.789268,-0.230301,0.341593,-0.545392,-0.215081,-0.334989,-0.917346,0.000000,0.000000,0.000000,-1,-0.840266,-0.851202,-0.371256,0.110085,0.093793,0.143832
"2019-04-05 12:11:00.809 +0000",1554466260.809357,-0.229870,0.330326,-0.558712,-0.215533,-0.324351,-0.921055,0.000000,0.000000,0.000000,-1,-0.584003,-0.645497,-0.292739,-0.000089,0.190059,0.001118
"2019-04-05 12:11:00.829 +0000",1554466260.829451,-0.246083,0.324472,-0.568367,-0.230895,-0.318809,-0.919265,0.000000,0.000000,0.000000,-1,-0.265952,-1.293456,-0.464335,-0.092255,0.112281,-0.100632
"2019-04-05 12:11:00.850 +0000",1554466260.849539,-0.264115,0.324438,-0.581808,-0.247436,-0.318777,-0.914963,0.000000,0.000000,0.000000,-1,-0.213671,-1.633851,-0.413316,-0.121339,0.086599,-0.016083
"2019-04-05 12:11:00.870 +0000",1554466260.869626,-0.297586,0.321539,-0.588226,-0.278186,-0.316027,-0.907050,0.000000,0.000000,0.000000,-1,-0.247964,-1.854644,0.025172,-0.135541,0.073610,0.024772
"2019-04-05 12:11:00.890 +0000",1554466260.889715,-0.324311,0.312697,-0.583313,-0.303203,-0.307626,-0.901906,0.000000,0.000000,0.000000,-1,-0.516734,-1.115636,0.800604,-0.073399,0.111825,0.146306
"2019-04-05 12:11:00.910 +0000",1554466260.909804,-0.345915,0.299901,-0.570067,-0.323924,-0.295425,-0.898775,0.000000,0.000000,0.000000,-1,-0.189667,-0.873468,0.644490,-0.236272,0.182037,-0.064985
"2019-04-05 12:11:00.930 +0000",1554466260.929897,-0.368930,0.300373,-0.564605,-0.344471,-0.295876,-0.890953,0.000000,0.000000,0.000000,-1,0.251502,-1.720350,0.103414,-0.316722,0.152871,-0.214882
"2019-04-05 12:11:00.950 +0000",1554466260.949986,-0.406392,0.303037,-0.559385,-0.377286,-0.298420,-0.876699,0.000000,0.000000,0.000000,-1,0.117875,-1.638640,0.329070,-0.091083,0.067494,-0.030970
"2019-04-05 12:11:00.970 +0000",1554466260.970077,-0.427554,0.299061,-0.552797,-0.396242,-0.294623,-0.869592,0.000000,0.000000,0.000000,-1,-0.283557,-0.668607,0.514362,-0.115965,0.081122,0.065743
"2019-04-05 12:11:00.990 +0000",1554466260.990162,-0.434652,0.287345,-0.547738,-0.403830,-0.283407,-0.869829,0.000000,0.000000,0.000000,-1,-0.540933,-0.052455,0.374124,-0.120157,0.096105,0.053895
"2019-04-05 12:11:01.010 +0000",1554466261.010254,-0.435474,0.275215,-0.548703,-0.405965,-0.271753,-0.872549,0.000000,0.000000,0.000000,-1,-0.650999,-0.469080,0.207208,-0.053675,0.056025,0.011099
"2019-04-05 12:11:01.030 +0000",1554466261.030343,-0.450305,0.262059,-0.549024,-0.420380,-0.259070,-0.869576,0.000000,0.000000,0.000000,-1,-0.505433,-0.960498,0.413453,0.009629,0.051779,-0.048850
"2019-04-05 12:11:01.050 +0000",1554466261.050433,-0.473061,0.251083,-0.538913,-0.441327,-0.248453,-0.862266,0.000000,0.000000,0.000000,-1,-0.050659,-1.356226,1.139876,0.112714,0.057550,-0.127786
"2019-04-05 12:11:01.071 +0000",1554466261.070519,-0.517453,0.245869,-0.505743,-0.479792,-0.243399,-0.842945,0.000000,0.000000,0.000000,-1,1.206641,-2.380683,1.911952,0.194056,0.135275,-0.358883
"2019-04-05 12:11:01.091 +0000",1554466261.090609,-0.593263,0.250956,-0.443743,-0.541557,-0.248330,-0.803149,0.000000,0.000000,0.000000,-1,2.238696,-3.564579,2.929819,0.295601,0.159081,-0.425931
"2019-04-05 12:11:01.111 +0000",1554466261.110694,-0.688033,0.248560,-0.358269,-0.615503,-0.246009,-0.748756,0.000000,0.000000,0.000000,-1,2.313118,-3.838702,3.934496,0.424158,0.177909,-0.204720
"2019-04-05 12:11:01.131 +0000",1554466261.130785,-0.785963,0.224602,-0.260984,-0.689735,-0.222718,-0.688957,0.000000,0.000000,0.000000,-1,2.312623,-3.593538,4.590888,0.498390,0.154618,-0.264519
"2019-04-05 12:11:01.151 +0000",1554466261.150873,-0.876242,0.186904,-0.155076,-0.754958,-0.185818,-0.628897,0.000000,0.000000,0.000000,-1,2.881722,-3.262246,4.993700,0.563612,0.117718,-0.324579
"2019-04-05 12:11:01.171 +0000",1554466261.170965,-0.961119,0.148989,-0.042561,-0.810751,-0.148439,-0.566259,0.000000,0.000000,0.000000,-1,3.616602,-3.388457,4.728491,-0.126643,0.424089,-0.411112
"2019-04-05 12:11:01.191 +0000",1554466261.191053,-1.040515,0.113688,0.073412,-0.857096,-0.113443,-0.502511,0.000000,0.000000,0.000000,-1,3.982524,-2.869335,4.368529,-0.242651,0.154123,-0.355201
"2019-04-05 12:11:01.211 +0000",1554466261.211143,-1.102466,0.078935,0.184689,-0.889545,-0.078853,-0.449991,0.000000,0.000000,0.000000,-1,4.092537,-2.279777,3.914076,-0.371106,0.140834,-0.339483
"2019-04-05 12:11:01.231 +0000",1554466261.231236,-1.156153,0.047305,0.291495,-0.914236,-0.047288,-0.402413,0.000000,0.000000,0.000000,-1,4.160081,-2.509193,3.463468,-0.334757,0.106812,-0.218177
"2019-04-05 12:11:01.251 +0000",1554466261.251322,-1.216749,0.017729,0.393753,-0.937830,-0.017728,-0.346643,0.000000,0.000000,0.000000,-1,4.088538,-3.278291,3.122069,-0.229727,0.028973,-0.006659
"2019-04-05 12:11:01.271 +0000",1554466261.271411,-1.286221,-0.016689,0.487414,-0.959647,0.016688,-0.280711,0.000000,0.000000,0.000000,-1,3.669930,-3.529896,3.141241,-0.023828,0.115652,0.265315
"2019-04-05 12:11:01.291 +0000",1554466261.291498,-1.355049,-0.060877,0.571646,-0.975007,0.060840,-0.213681,0.000000,0.000000,0.000000,-1,3.395101,-3.659423,3.157665,0.076585,-0.006976,0.296582
"2019-04-05 12:11:01.312 +0000",1554466261.311588,-1.423708,-0.111716,0.647739,-0.983036,0.111484,-0.145645,0.000000,0.000000,0.000000,-1,3.070695,-3.736043,3.179576,0.206409,-0.061816,0.314026
"2019-04-05 12:11:01.332 +0000",1554466261.331682,-1.489966,-0.170116,0.708855,-0.982347,0.169297,-0.079576,0.000000,0.000000,0.000000,-1,2.056767,-3.750859,3.293224,0.337496,-0.174989,0.455248
"2019-04-05 12:11:01.352 +0000",1554466261.351767,-1.549374,-0.235771,0.739481,-0.972112,0.233592,-0.020828,0.000000,0.000000,0.000000,-1,0.538599,-2.750948,3.499358,0.318166,-0.162792,0.847503
"2019-04-05 12:11:01.372 +0000",1554466261.371858,-1.596807,-0.312639,0.737034,-0.951203,0.307571,0.024747,0.000000,0.000000,0.000000,-1,-0.512460,-2.107587,4.114805,0.467133,-0.030883,0.523608
"2019-04-05 12:11:01.392 +0000",1554466261.391946,-1.649514,-0.397819,0.726534,-0.919053,0.387409,0.072495,0.000000,0.000000,0.000000,-1,0.117241,-2.873138,4.356596,0.543214,-0.087741,-0.073945
"2019-04-05 12:11:01.411 +0000",1554466261.411376,-1.707971,-0.483816,0.725763,-0.876911,0.465161,0.121050,0.000000,0.000000,0.000000,-1,0.665162,-2.493804,3.876124,0.278248,-0.018261,-0.115603
"2019-04-05 12:11:01.431 +0000",1554466261.431467,-1.735738,-0.550541,0.730101,-0.840675,0.523148,0.139933,0.000000,0.000000,0.000000,-1,0.635359,-0.225750,2.682983,-0.475868,0.126464,-0.105876
"2019-04-05 12:11:01.452 +0000",1554466261.451557,-1.723806,-0.595851,0.729847,-0.818001,0.561213,0.126148,0.000000,0.000000,0.000000,-1,0.074554,0.922242,1.828428,-0.344108,-0.073985,0.132428
"2019-04-05 12:11:01.472 +0000",1554466261.471645,-1.718631,-0.628560,0.725791,-0.800052,0.587980,0.119144,0.000000,0.000000,0.000000,-1,0.060992,-0.492427,1.642578,-0.228741,-0.029204,0.214214
"2019-04-05 12:11:01.492 +0000",1554466261.491735,-1.744641,-0.673054,0.713516,-0.770136,0.623377,0.135250,0.000000,0.000000,0.000000,-1,-0.348182,-0.522194,2.916107,-0.258658,-0.064600,0.198109
"2019-04-05 12:11:01.512 +0000",1554466261.511824,-1.765842,-0.743860,0.672348,-0.721908,0.677133,0.142618,0.000000,0.000000,0.000000,-1,-1.473544,0.741925,4.775608,-0.306885,-0.118356,0.190740
"2019-04-05 12:11:01.532 +0000",1554466261.531914,-1.824876,-0.847822,0.584614,-0.640377,0.749841,0.166301,0.000000,0.000000,0.000000,-1,-1.946324,-0.657194,6.335705,-0.388416,-0.191064,0.167058
"2019-04-05 12:11:01.552 +0000",1554466261.552002,-1.956163,-0.960869,0.468784,-0.530799,0.819690,0.215318,0.000000,0.000000,0.000000,-1,-1.295400,-3.272815,5.983804,-0.497995,-0.260913,0.118041
"2019-04-05 12:11:01.572 +0000",1554466261.572093,-2.117753,-1.020511,0.367920,-0.446640,0.852376,0.271971,0.000000,0.000000,0.000000,-1,-0.917071,-4.298864,2.331711,-0.582153,-0.293599,0.061388
"2019-04-05 12:11:01.592 +0000",1554466261.592181,-2.272481,-1.053987,0.304971,-0.377379,0.869400,0.318950,0.000000,0.000000,0.000000,-1,0.501943,-5.308202,2.174674,-0.651415,-0.310623,0.014409
"2019-04-05 12:11:01.612 +0000",1554466261.612271,-2.356119,-1.100964,0.301308,-0.320158,0.891644,0.320109,0.000000,0.000000,0.000000,-1,2.196995,-2.654624,1.439799,-0.708636,-0.332867,0.013250
"2019-04-05 12:11:01.632 +0000",1554466261.632361,-2.355420,-1.154566,0.329979,-0.286115,0.914620,0.285672,0.000000,0.000000,0.000000,-1,2.396906,0.182344,1.555748,-0.742678,-0.355843,0.047686
"2019-04-05 12:11:01.652 +0000",1554466261.652450,-2.319327,-1.215238,0.349177,-0.255060,0.937452,0.236914,0.000000,0.000000,0.000000,-1,2.270964,1.175173,2.328460,-0.773733,-0.378675,0.096445
"2019-04-05 12:11:01.673 +0000",1554466261.672540,-2.309806,-1.277292,0.322383,-0.213839,0.957236,0.194866,0.000000,0.000000,0.000000,-1,1.137578,2.221974,2.575182,-0.814955,-0.398459,0.138493
"2019-04-05 12:11:01.693 +0000",1554466261.692630,-2.372551,-1.310270,0.224369,-0.179140,0.966254,0.185099,0.000000,0.000000,0.000000,-1,-0.696446,0.530739,1.558127,-0.849653,-0.407478,0.148260
"2019-04-05 12:11:01.713 +0000",1554466261.712719,-2.501406,-1.309607,0.105761,-0.154253,0.966083,0.207097,0.000000,0.000000,0.000000,-1,-1.179764,-1.673183,0.787885,-0.874540,-0.407307,0.126262
"2019-04-05 12:11:01.733 +0000",1554466261.732808,-2.625744,-1.292639,0.009565,-0.135445,0.961563,0.238854,0.000000,0.000000,0.000000,-1,-1.800800,-1.128198,0.557469,-0.893348,-0.402786,0.094505
"2019-04-05 12:11:01.753 +0000",1554466261.752898,-2.746934,-1.271215,-0.086154,-0.113471,0.955460,0.272433,0.000000,0.000000,0.000000,-1,-1.262157,-1.591320,0.870465,-0.915322,-0.396683,0.060925
"2019-04-05 12:11:01.773 +0000",1554466261.772988,-2.839034,-1.257265,-0.158340,-0.091898,0.951250,0.294410,0.000000,0.000000,0.000000,-1,-0.750422,-0.593329,0.616661,-0.936896,-0.392474,0.038949
"2019-04-05 12:11:01.793 +0000",1554466261.793077,-2.866370,-1.247387,-0.193865,-0.086366,0.948157,0.305841,0.000000,0.000000,0.000000,-1,-0.574189,1.089164,0.154328,-0.942427,-0.389381,0.027518
"2019-04-05 12:11:01.813 +0000",1554466261.813167,-2.852125,-1.235020,-0.207395,-0.094054,0.944155,0.315794,0.000000,0.000000,0.000000,-1,-0.746898,1.291397,0.024520,-0.934739,-0.385378,0.017565
"2019-04-05 12:11:01.833 +0000",1554466261.833256,-2.854017,-1.219942,-0.227840,-0.097483,0.939079,0.329586,0.000000,0.000000,0.000000,-1,-0.814636,0.398055,0.160575,-0.931310,-0.380302,0.003773
"2019-04-05 12:11:01.853 +0000",1554466261.853346,-2.864935,-1.207574,-0.241958,-0.097044,0.934757,0.341777,0.000000,0.000000,0.000000,-1,-0.473863,0.022324,-0.074606,-0.931749,-0.375980,-0.008419
"2019-04-05 12:11:01.873 +0000",1554466261.873435,-2.852046,-1.201193,-0.234045,-0.103142,0.932471,0.346209,0.000000,0.000000,0.000000,-1,-0.097665,0.629350,-0.325613,-0.925651,-0.373694,-0.012850
"2019-04-05 12:11:01.894 +0000",1554466261.893525,-2.816621,-1.196940,-0.216386,-0.116605,0.930926,0.346094,0.000000,0.000000,0.000000,-1,-0.184787,1.122093,-0.376030,0.166013,0.048582,0.087225
"2019-04-05 12:11:01.914 +0000",1554466261.913615,-2.788423,-1.189251,-0.207970,-0.128788,0.928090,0.349374,0.000000,0.000000,0.000000,-1,-0.399799,0.795252,-0.152232,0.073872,-0.031530,-0.123178
"2019-04-05 12:11:01.934 +0000",1554466261.933705,-2.782902,-1.181139,-0.213722,-0.133353,0.925039,0.355695,0.000000,0.000000,0.000000,-1,-0.402889,0.351046,0.059648,0.001136,-0.062353,-0.223661
"2019-04-05 12:11:01.954 +0000",1554466261.953794,-2.787594,-1.175426,-0.225931,-0.133513,0.922854,0.361268,0.000000,0.000000,0.000000,-1,-0.280366,0.369620,0.172359,-0.061128,-0.054766,-0.162782
"2019-04-05 12:11:01.974 +0000",1554466261.973883,-2.792693,-1.173255,-0.241347,-0.132353,0.922016,0.363827,0.000000,0.000000,0.000000,-1,-0.117442,0.502803,0.312219,-0.053316,-0.066745,-0.094417
"2019-04-05 12:11:01.994 +0000",1554466261.993973,-2.800270,-1.175707,-0.258938,-0.128836,0.922962,0.362688,0.000000,0.000000,0.000000,-1,0.131943,0.296130,0.383250,-0.004740,-0.077580,-0.094713
"2019-04-05 12:11:02.014 +0000",1554466262.014063,-2.809860,-1.182969,-0.271678,-0.123166,0.925733,0.357559,0.000000,0.000000,0.000000,-1,0.379116,-0.053649,0.299040,0.051953,-0.046110,-0.072265
"2019-04-05 12:11:02.034 +0000",1554466262.034153,-2.816427,-1.193539,-0.275635,-0.117682,0.929678,0.349069,0.000000,0.000000,0.000000,-1,0.548154,-0.213655,0.181751,0.107764,-0.000830,-0.010247
"2019-04-05 12:11:02.054 +0000",1554466262.054242,-2.820234,-1.204926,-0.273434,-0.113001,0.933813,0.339447,0.000000,0.000000,0.000000,-1,0.518072,-0.369560,0.108230,0.137568,0.041071,0.016601
"2019-04-05 12:11:02.074 +0000",1554466262.074332,-2.812275,-1.217330,-0.257347,-0.111945,0.938178,0.327551,0.000000,0.000000,0.000000,-1,0.328701,-0.592393,0.074098,0.147727,0.058816,0.027933
"2019-04-05 12:11:02.094 +0000",1554466262.094421,-2.828522,-1.226381,-0.256121,-0.103989,0.941273,0.321235,0.000000,0.000000,0.000000,-1,0.094819,-0.788866,0.069108,0.109620,-0.047856,-0.191870
"2019-04-05 12:11:02.115 +0000",1554466262.114512,-2.877384,-1.223021,-0.289608,-0.089000,0.940133,0.328981,0.000000,0.000000,0.000000,-1,-0.139796,-0.716131,0.002455,0.035030,-0.062158,-0.018495
"2019-04-05 12:11:02.135 +0000",1554466262.134601,-2.938171,-1.217225,-0.333370,-0.069950,0.938142,0.339112,0.000000,0.000000,0.000000,-1,-0.186203,-0.656826,0.102576,0.081379,-0.024690,-0.008133
"2019-04-05 12:11:02.155 +0000",1554466262.154691,-3.000310,-1.211485,-0.381553,-0.049514,0.936139,0.348126,0.000000,0.000000,0.000000,-1,-0.459867,-0.664139,0.035105,0.187667,0.085666,0.073947
"2019-04-05 12:11:02.175 +0000",1554466262.174779,-3.010211,-1.231547,-0.381961,-0.043596,0.943005,0.329912,0.000000,0.000000,0.000000,-1,-0.168513,-0.243363,-0.071700,0.210267,0.075870,0.210463
"2019-04-05 12:11:02.195 +0000",1554466262.194869,-3.011349,-1.229897,-0.380699,-0.043422,0.942455,0.331503,0.000000,0.000000,0.000000,-1,0.044541,0.009440,-0.023747,0.111629,-0.028423,0.132105
"2019-04-05 12:11:02.215 +0000",1554466262.214959,-3.006101,-1.230705,-0.376863,-0.045058,0.942724,0.330516,0.000000,0.000000,0.000000,-1,0.082978,0.131276,-0.116849,0.055892,-0.006735,-0.006969
"2019-04-05 12:11:02.235 +0000",1554466262.235049,-2.989448,-1.234208,-0.361362,-0.050055,0.943887,0.326453,0.000000,0.000000,0.000000,-1,0.368592,0.018501,-0.338662,0.021353,0.031516,-0.124961
"2019-04-05 12:11:02.255 +0000",1554466262.255138,-2.963241,-1.244149,-0.331201,-0.056925,0.947123,0.315780,0.000000,0.000000,0.000000,-1,0.765548,-0.253284,-0.436916,0.017511,0.034627,-0.161162
"2019-04-05 12:11:02.275 +0000",1554466262.275227,-2.932583,-1.260961,-0.291979,-0.063264,0.952384,0.298266,0.000000,0.000000,0.000000,-1,1.108033,-0.295333,-0.427950,-0.004851,-0.000846,-0.074862
"2019-04-05 12:11:02.295 +0000",1554466262.295317,-2.889143,-1.284424,-0.245864,-0.070556,0.959275,0.273521,0.000000,0.000000,0.000000,-1,1.474098,0.281151,-0.354449,-0.013566,0.077255,-0.044639
"2019-04-05 12:11:02.315 +0000",1554466262.315408,-2.827667,-1.313093,-0.193341,-0.078699,0.966978,0.242404,0.000000,0.000000,0.000000,-1,1.567081,0.693761,-0.174905,0.010416,0.219088,-0.200839
"2019-04-05 12:11:02.335 +0000",1554466262.335497,-2.779175,-1.336310,-0.153608,-0.082374,0.972634,0.217252,0.000000,0.000000,0.000000,-1,0.772063,0.157233,-0.024225,0.111442,0.292900,-0.260556
"2019-04-05 12:11:02.356 +0000",1554466262.355587,-2.771798,-1.338196,-0.141632,-0.083311,0.973070,0.214927,0.000000,0.000000,0.000000,-1,-0.443374,-0.505848,-0.163781,0.164885,0.212675,-0.180076
"2019-04-05 12:11:02.376 +0000",1554466262.375676,-2.793956,-1.322965,-0.150745,-0.083569,0.969447,0.230629,0.000000,0.000000,0.000000,-1,-0.903712,-0.779567,-0.138460,0.164029,0.011938,-0.117470
"2019-04-05 12:11:02.396 +0000",1554466262.395766,-2.818442,-1.307600,-0.160088,-0.082618,0.965563,0.246703,0.000000,0.000000,0.000000,-1,-0.502696,-0.708821,-0.156392,0.096717,-0.077349,-0.019087
"2019-04-05 12:11:02.416 +0000",1554466262.415856,-2.820845,-1.304714,-0.151365,-0.082903,0.964808,0.249543,0.000000,0.000000,0.000000,-1,0.304472,-0.346230,-0.147137,0.130007,-0.131785,0.032729
"2019-04-05 12:11:02.436 +0000",1554466262.435946,-2.800889,-1.314755,-0.126716,-0.084625,0.967400,0.238696,0.000000,0.000000,0.000000,-1,0.758383,-0.071877,-0.120413,0.187576,-0.071358,-0.039889
"2019-04-05 12:11:02.456 +0000",1554466262.456035,-2.776435,-1.328206,-0.100921,-0.085781,0.970719,0.224380,0.000000,0.000000,0.000000,-1,0.635219,-0.020283,0.005610,0.176723,-0.007188,-0.153457
"2019-04-05 12:11:02.476 +0000",1554466262.476125,-2.773227,-1.335917,-0.094858,-0.083802,0.972542,0.217113,0.000000,0.000000,0.000000,-1,0.087296,-0.315946,0.117459,0.095979,0.069099,-0.221340
"2019-04-05 12:11:02.496 +0000",1554466262.496215,-2.799026,-1.332630,-0.110979,-0.079247,0.971772,0.222213,0.000000,0.000000,0.000000,-1,-0.475311,-0.597826,0.112074,-0.005576,0.111266,-0.137588
"2019-04-05 12:11:02.516 +0000",1554466262.516304,-2.893308,-1.321868,-0.194836,-0.060542,0.969177,0.238811,0.000000,0.000000,0.000000,-1,-0.444267,-0.228169,0.051000,-0.014394,0.100708,0.044271
"2019-04-05 12:11:02.536 +0000",1554466262.536393,-2.894477,-1.318334,-0.195582,-0.061100,0.968300,0.242200,0.000000,0.000000,0.000000,-1,0.130765,0.115816,-0.126900,0.000248,0.063484,0.001864
"2019-04-05 12:11:02.556 +0000",1554466262.556484,-2.870944,-1.323963,-0.173617,-0.065324,0.969691,0.235440,0.000000,0.000000,0.000000,-1,0.460628,0.080038,-0.235090,-0.001082,0.023809,-0.160046
"2019-04-05 12:11:02.577 +0000",1554466262.576572,-2.841929,-1.330393,-0.144233,-0.070285,0.971242,0.227484,0.000000,0.000000,0.000000,-1,0.301972,-0.039946,-0.246328,0.014697,0.014247,-0.207922
"2019-04-05 12:11:02.597 +0000",1554466262.596665,-2.820375,-1.332824,-0.119872,-0.074426,0.971818,0.223674,0.000000,0.000000,0.000000,-1,0.053734,-0.169246,-0.192425,0.055032,0.010650,-0.174968
"2019-04-05 12:11:02.617 +0000",1554466262.616753,-2.822464,-1.329974,-0.117651,-0.074827,0.971142,0.226459,0.000000,0.000000,0.000000,-1,-0.005971,-0.168830,-0.099419,0.092528,0.007892,-0.063175
"2019-04-05 12:11:02.637 +0000",1554466262.636841,-2.803912,-1.338469,-0.097246,-0.076279,0.973133,0.217240,0.000000,0.000000,0.000000,-1,0.099506,-0.035974,-0.026051,0.122437,0.020077,0.042800
"2019-04-05 12:11:02.657 +0000",1554466262.656932,-2.772871,-1.353418,-0.066768,-0.077733,0.976466,0.201175,0.000000,0.000000,0.000000,-1,0.158512,0.018874,0.032587,0.092824,0.011434,0.035153
"2019-04-05 12:11:02.677 +0000",1554466262.677021,-2.758669,-1.367051,-0.053022,-0.075600,0.979316,0.187684,0.000000,0.000000,0.000000,-1,0.109122,-0.021970,0.082411,0.029031,0.010217,-0.045106
"2019-04-05 12:11:02.697 +0000",1554466262.697111,-2.786489,-1.374038,-0.079451,-0.067970,0.980705,0.183295,0.000000,0.000000,0.000000,-1,0.040354,-0.092261,0.072720,-0.012154,0.041420,-0.120276
"2019-04-05 12:11:02.717 +0000",1554466262.717201,-2.843446,-1.371866,-0.132980,-0.058051,0.980279,0.188902,0.000000,0.000000,0.000000,-1,-0.001624,-0.147112,0.024883,-0.004510,0.059532,-0.130781
"2019-04-05 12:11:02.737 +0000",1554466262.737289,-2.887688,-1.368229,-0.173485,-0.050535,0.979553,0.194734,0.000000,0.000000,0.000000,-1,0.005903,-0.142196,-0.009114,0.020475,0.043045,-0.081865
"2019-04-05 12:11:02.757 +0000",1554466262.757379,-2.889163,-1.371348,-0.172331,-0.049484,0.980176,0.191849,0.000000,0.000000,0.000000,-1,0.073355,-0.104563,-0.047040,0.026061,0.016711,-0.043701
"2019-04-05 12:11:02.777 +0000",1554466262.777469,-2.851636,-1.381915,-0.133394,-0.053683,0.982215,0.179923,0.000000,0.000000,0.000000,-1,0.153496,-0.076636,-0.082639,0.015231,-0.001822,-0.034430
"2019-04-05 12:11:02.798 +0000",1554466262.797559,-2.806904,-1.393733,-0.087504,-0.057858,0.984365,0.166366,0.000000,0.000000,0.000000,-1,0.183465,-0.060981,-0.099486,0.012280,-0.002950,-0.031570
"2019-04-05 12:11:02.818 +0000",1554466262.817648,-2.785188,-1.401645,-0.064739,-0.058737,0.985728,0.157767,0.000000,0.000000,0.000000,-1,0.167807,-0.025479,-0.095661,0.021979,0.004216,-0.020209
"2019-04-05 12:11:02.838 +0000",1554466262.837737,-2.781432,-1.405301,-0.060487,-0.058059,0.986337,0.154171,0.000000,0.000000,0.000000,-1,0.120220,0.012504,-0.082593,0.034133,0.014335,-0.007015
"2019-04-05 12:12:03.872 +0000",1554466323.871833,-1.040289,-0.281744,0.796187,-0.828542,0.278031,-0.486021,0.000000,0.000000,0.000000,-1,-0.142999,-0.102224,0.209275,0.905233,-0.879243,-0.279634
"2019-04-05 12:12:03.892 +0000",1554466323.891923,-2.094780,-1.536737,-2.093774,-0.029487,0.999420,0.017040,0.000000,0.000000,0.000000,-1,-0.097869,-0.066815,0.151033,0.095009,-1.620193,-0.772411
"2019-04-05 12:12:03.912 +0000",1554466323.912013,-2.196446,-1.537495,-2.194065,-0.026990,0.999446,0.019500,0.000000,0.000000,0.000000,-1,-0.146962,-0.081728,0.126213,0.079770,-1.604777,-0.779326
"2019-04-05 12:12:03.932 +0000",1554466323.932103,-2.332934,-1.537444,-2.328635,-0.024123,0.999444,0.023026,0.000000,0.000000,0.000000,-1,-0.193127,-0.123039,0.136722,0.098280,-1.648232,-0.820831
"2019-04-05 12:12:03.952 +0000",1554466323.952193,-2.457028,-1.536181,-2.450171,-0.021883,0.999401,0.026809,0.000000,0.000000,0.000000,-1,-0.161242,-0.135781,0.072257,0.077394,-1.599651,-0.826751
"2019-04-05 12:12:03.972 +0000",1554466323.972283,-2.518916,-1.535120,-2.509458,-0.020804,0.999364,0.028977,0.000000,0.000000,0.000000,-1,-0.045141,-0.134877,0.038281,0.065467,-1.601079,-0.821885
"2019-04-05 12:12:03.992 +0000",1554466323.992371,-2.533486,-1.535513,-2.521264,-0.020153,0.999378,0.028951,0.000000,0.000000,0.000000,-1,0.040081,-0.132498,0.019946,0.054745,-1.603366,-0.826986
"2019-04-05 12:12:04.012 +0000",1554466324.012461,-2.531597,-1.536493,-2.517577,-0.019649,0.999412,0.028113,0.000000,0.000000,0.000000,-1,0.037743,-0.036002,0.027679,0.043605,-1.610816,-0.804221
"2019-04-05 12:12:04.033 +0000",1554466324.032551,0.059851,-0.845880,0.078942,0.039662,0.748555,-0.661886,0.000000,0.000000,0.000000,-1,0.054428,0.049139,0.085669,-0.020497,-1.364201,-0.100398
"2019-04-05 12:12:04.053 +0000",1554466324.052643,0.052068,-0.226138,0.074261,0.050719,0.224216,-0.973219,0.000000,0.000000,0.000000,-1,0.074650,0.052744,0.133695,-0.024840,-0.838199,0.200926
"2019-04-05 12:12:04.073 +0000",1554466324.072733,0.050958,0.036497,0.077020,0.050902,-0.036489,-0.998037,0.000000,0.000000,0.000000,-1,0.033852,0.016808,0.149532,-0.015730,-0.582804,0.216344
"2019-04-05 12:12:04.093 +0000",1554466324.092823,0.046949,0.182902,0.080118,0.046149,-0.181884,-0.982237,0.000000,0.000000,0.000000,-1,-0.033043,0.032783,0.097710,-0.001669,-0.408342,0.215223
"2019-04-05 12:12:04.113 +0000",1554466324.112911,0.042526,0.273964,0.083283,0.040928,-0.270549,-0.961836,0.000000,0.000000,0.000000,-1,-0.049867,0.057668,0.109052,-0.020313,-0.341694,0.197859
"2019-04-05 12:12:04.133 +0000",1554466324.133002,0.041636,0.334126,0.086294,0.039322,-0.327943,-0.943879,0.000000,0.000000,0.000000,-1,-0.053317,0.031159,0.130495,0.007172,-0.275786,0.168824
"2019-04-05 12:12:04.153 +0000",1554466324.153091,0.042288,0.375336,0.088359,0.039332,-0.366586,-0.929553,0.000000,0.000000,0.000000,-1,0.010922,0.064232,0.065987,0.002935,-0.189719,0.155291
"2019-04-05 12:12:04.173 +0000",1554466324.173181,0.045150,0.405038,0.088594,0.041483,-0.394054,-0.918151,0.000000,0.000000,0.000000,-1,0.052511,0.069045,0.045082,-0.030054,-0.188618,0.125457
"2019-04-05 12:12:04.193 +0000",1554466324.193270,0.047275,0.428168,0.089644,0.042991,-0.415205,-0.908712,0.000000,0.000000,0.000000,-1,0.014122,0.298215,0.017399,-0.037040,-0.149569,0.154165
"2019-04-05 12:12:04.213 +0000",1554466324.213358,0.055602,0.445630,0.089969,0.050146,-0.431026,-0.900945,0.000000,0.000000,0.000000,-1,0.040661,0.528427,0.029687,-0.049795,-0.131504,0.165609
"2019-04-05 12:12:04.233 +0000",1554466324.233449,0.067333,0.457954,0.091058,0.060349,-0.442114,-0.894926,0.000000,0.000000,0.000000,-1,0.186966,0.697991,0.060626,-0.056977,-0.126459,0.180571
"2019-04-05 12:12:04.254 +0000",1554466324.253539,0.077754,0.469870,0.094292,0.069258,-0.452770,-0.888933,0.000000,0.000000,0.000000,-1,0.152574,0.670259,0.143462,-0.033201,-0.171421,0.103701
"2019-04-05 12:12:04.274 +0000",1554466324.273629,0.082950,0.480345,0.099331,0.073479,-0.462085,-0.883786,0.000000,0.000000,0.000000,-1,-0.005913,0.448309,0.112814,0.059990,-0.159268,0.063916
"2019-04-05 12:12:04.294 +0000",1554466324.293725,0.084605,0.487487,0.104501,0.074660,-0.468407,-0.880353,0.000000,0.000000,0.000000,-1,-0.174492,0.412289,0.132729,0.039323,-0.160622,0.103299
"2019-04-05 12:12:04.314 +0000",1554466324.313809,0.085683,0.493519,0.112642,0.075367,-0.473728,-0.877441,0.000000,0.000000,0.000000,-1,-0.215927,0.560475,0.330047,0.004422,-0.205563,0.130584
"2019-04-05 12:12:04.334 +0000",1554466324.333897,0.093335,0.500316,0.123728,0.081777,-0.479703,-0.873612,0.000000,0.000000,0.000000,-1,-0.081123,0.999907,0.445977,-0.034963,-0.140476,0.197739
"2019-04-05 12:12:04.354 +0000",1554466324.353988,0.114893,0.508535,0.132566,0.100134,-0.486898,-0.867700,0.000000,0.000000,0.000000,-1,0.103232,1.369834,0.414039,-0.052298,-0.092326,0.141519
"2019-04-05 12:12:04.374 +0000",1554466324.374078,0.140957,0.512107,0.139879,0.122468,-0.490015,-0.863069,0.000000,0.000000,0.000000,-1,0.135734,1.534722,0.240782,-0.030412,-0.080969,0.084107
"2019-04-05 12:12:04.394 +0000",1554466324.394168,0.169567,0.514952,0.142247,0.146871,-0.492493,-0.857834,0.000000,0.000000,0.000000,-1,0.114727,1.426266,0.011707,0.010539,-0.056701,0.027649
"2019-04-05 12:12:04.414 +0000",1554466324.414262,0.197332,0.516329,0.141678,0.170496,-0.493691,-0.852760,0.000000,0.000000,0.000000,-1,0.019898,1.299393,0.001142,0.018392,-0.153388,0.037071
"2019-04-05 12:12:04.434 +0000",1554466324.434346,0.221369,0.515879,0.142658,0.190991,-0.493299,-0.848633,0.000000,0.000000,0.000000,-1,-0.083777,1.143486,0.069416,0.021289,-0.175127,0.037323
"2019-04-05 12:12:04.454 +0000",1554466324.454436,0.241196,0.513999,0.145363,0.207999,-0.491664,-0.845579,0.000000,0.000000,0.000000,-1,-0.126846,0.975035,0.109661,0.014108,-0.157491,0.025434
"2019-04-05 12:12:04.475 +0000",1554466324.474525,0.257686,0.512495,0.148312,0.222103,-0.490353,-0.842748,0.000000,0.000000,0.000000,-1,-0.074961,0.822443,0.098592,0.007222,-0.138691,0.029104
"2019-04-05 12:12:04.495 +0000",1554466324.494614,0.271743,0.512136,0.150438,0.233974,-0.490040,-0.839712,0.000000,0.000000,0.000000,-1,-0.009053,0.688895,0.075812,0.003041,-0.123882,0.034476
"2019-04-05 12:12:04.515 +0000",1554466324.514704,0.284397,0.513076,0.152009,0.244451,-0.490860,-0.836242,0.000000,0.000000,0.000000,-1,0.066316,0.663813,0.085246,-0.006231,-0.139786,0.051620
"2019-04-05 12:12:04.535 +0000",1554466324.534799,0.297333,0.515608,0.153064,0.254883,-0.493064,-0.831819,0.000000,0.000000,0.000000,-1,0.147160,0.653420,0.071222,-0.010331,-0.120782,0.073182
"2019-04-05 12:12:04.555 +0000",1554466324.554883,0.308443,0.522199,0.153997,0.263116,-0.498787,-0.825821,0.000000,0.000000,0.000000,-1,0.129565,0.586635,0.025842,-0.003519,-0.149345,0.053910
"2019-04-05 12:12:04.575 +0000",1554466324.574974,0.318508,0.528394,0.154004,0.270442,-0.504147,-0.820181,0.000000,0.000000,0.000000,-1,0.101943,0.475555,0.034948,-0.023387,-0.132022,0.073507
"2019-04-05 12:12:04.595 +0000",1554466324.595062,0.325691,0.533994,0.155304,0.275419,-0.508975,-0.815530,0.000000,0.000000,0.000000,-1,-0.008528,0.388804,0.057950,0.019640,-0.148114,0.066201
"2019-04-05 12:12:04.615 +0000",1554466324.615153,0.331044,0.538696,0.157250,0.279000,-0.513017,-0.811771,0.000000,0.000000,0.000000,-1,-0.011349,0.311730,0.059587,0.007591,-0.125639,0.043003
"2019-04-05 12:12:04.635 +0000",1554466324.635247,0.335520,0.545188,0.158255,0.281527,-0.518579,-0.807353,0.000000,0.000000,0.000000,-1,0.118014,0.248354,0.032621,0.013944,-0.110053,0.045329
"2019-04-05 12:12:04.655 +0000",1554466324.655333,0.341899,0.552774,0.157253,0.285344,-0.525050,-0.801811,0.000000,0.000000,0.000000,-1,0.141985,0.306794,0.006874,-0.006444,-0.094319,0.079506
"2019-04-05 12:12:04.675 +0000",1554466324.675422,0.350244,0.560888,0.156017,0.290554,-0.531938,-0.795374,0.000000,0.000000,0.000000,-1,0.076498,0.367385,0.018529,-0.005901,-0.106245,0.079401
"2019-04-05 12:12:04.696 +0000",1554466324.695512,0.358423,0.567144,0.155679,0.295876,-0.537226,-0.789839,0.000000,0.000000,0.000000,-1,0.075460,0.371855,0.034436,-0.019112,-0.094687,0.060500
"2019-04-05 12:12:04.716 +0000",1554466324.715601,0.366201,0.573737,0.155130,0.300736,-0.542774,-0.784190,0.000000,0.000000,0.000000,-1,0.181615,0.333339,0.012369,-0.015396,-0.072445,0.039439
"2019-04-05 12:12:04.736 +0000",1554466324.735690,0.374337,0.582820,0.152877,0.305291,-0.550381,-0.777096,0.000000,0.000000,0.000000,-1,0.318905,0.324751,0.005259,0.005164,-0.076252,0.039227
"2019-04-05 12:12:04.756 +0000",1554466324.755780,0.382610,0.594017,0.149457,0.309389,-0.559694,-0.768779,0.000000,0.000000,0.000000,-1,0.363967,0.245356,0.022268,0.013701,-0.075193,0.051997
"2019-04-05 12:12:04.776 +0000",1554466324.775870,0.388066,0.604375,0.147149,0.311368,-0.568248,-0.761672,0.000000,0.000000,0.000000,-1,0.295744,0.234902,0.000418,0.003329,-0.057027,0.055602
"2019-04-05 12:12:04.796 +0000",1554466324.795962,0.392261,0.611921,0.145817,0.312912,-0.574441,-0.756375,0.000000,0.000000,0.000000,-1,0.245473,0.213184,0.036259,-0.010712,-0.074958,0.050916
"2019-04-05 12:12:04.816 +0000",1554466324.816050,0.396542,0.618807,0.144939,0.314613,-0.580064,-0.751362,0.000000,0.000000,0.000000,-1,0.292153,0.197153,0.069805,-0.009590,-0.059890,0.052983
"2019-04-05 12:12:04.836 +0000",1554466324.836139,0.402353,0.628030,0.142812,0.316865,-0.587552,-0.744567,0.000000,0.000000,0.000000,-1,0.409425,0.212246,0.060189,-0.011048,-0.038104,0.055602
"2019-04-05 12:12:04.856 +0000",1554466324.856228,0.408639,0.637730,0.139382,0.319259,-0.595373,-0.737295,0.000000,0.000000,0.000000,-1,0.374121,0.188307,0.003668,0.013566,-0.019693,0.137838
