timestamp,timeIntervalSince1970,attitude.roll,attitude.pitch,attitude.yaw,gravity.x,gravity.y,gravity.z,magneticField.x,magneticField.y,magneticField.z,magneticField.accuracy,rotationRate.x,rotationRate.y,rotationRate.z,userAcceleration.x,userAcceleration.y,userAcceleration.z
"2019-04-16 11:01:34.937 +0000",1555412494.937103,0.083388,0.371551,-0.018790,0.077608,-0.363061,-0.928528,0.000000,0.000000,0.000000,-1,-0.565936,-2.621956,-0.150587,-0.179277,0.090463,-0.011643
"2019-04-16 11:01:34.957 +0000",1555412494.957103,0.021092,0.353898,-0.010595,0.019784,-0.346557,-0.937820,0.000000,0.000000,0.000000,-1,-1.090332,-3.134486,0.772595,-0.185876,0.317809,0.022644
"2019-04-16 11:01:34.977 +0000",1555412494.977098,-0.053264,0.333994,0.014699,-0.050297,-0.327819,-0.943401,0.000000,0.000000,0.000000,-1,-0.739160,-3.494793,1.219510,-0.216045,0.155227,0.091457
"2019-04-16 11:01:34.997 +0000",1555412494.997101,-0.135657,0.325417,0.031550,-0.128143,-0.319704,-0.938812,0.000000,0.000000,0.000000,-1,-0.197095,-4.191054,0.604043,-0.253113,0.136584,0.081985
"2019-04-16 11:01:35.017 +0000",1555412495.017103,-0.230705,0.324230,0.042327,-0.216750,-0.318579,-0.922782,0.000000,0.000000,0.000000,-1,0.187747,-4.479126,0.501008,-0.191697,0.139471,0.096549
"2019-04-16 11:01:35.037 +0000",1555412495.037135,-0.313189,0.323042,0.055005,-0.292158,-0.317453,-0.902146,0.000000,0.000000,0.000000,-1,-0.027172,-3.505429,0.639731,-0.211047,0.201211,0.103455
"2019-04-16 11:01:35.057 +0000",1555412495.057102,-0.372709,0.309961,0.065650,-0.346787,-0.305022,-0.886962,0.000000,0.000000,0.000000,-1,-0.647564,-2.408500,0.692309,-0.160858,0.195860,0.113387
"2019-04-16 11:01:35.077 +0000",1555412495.077102,-0.419767,0.291952,0.072608,-0.390302,-0.287822,-0.874542,0.000000,0.000000,0.000000,-1,-0.652324,-2.289196,0.605925,-0.134509,0.174739,0.091155
"2019-04-16 11:01:35.097 +0000",1555412495.097103,-0.471470,0.278587,0.079718,-0.436685,-0.274997,-0.856553,0.000000,0.000000,0.000000,-1,-0.305606,-2.524666,0.612313,-0.104834,0.260806,0.111329
"2019-04-16 11:01:35.117 +0000",1555412495.117091,-0.524374,0.268821,0.095141,-0.482689,-0.265595,-0.834548,0.000000,0.000000,0.000000,-1,0.152732,-2.368546,1.056671,-0.070640,0.385819,0.059203
"2019-04-16 11:01:35.137 +0000",1555412495.137103,-0.580904,0.263482,0.125947,-0.529841,-0.260444,-0.807117,0.000000,0.000000,0.000000,-1,0.917021,-2.452783,1.519696,-0.005804,0.406730,-0.051724
"2019-04-16 11:01:35.157 +0000",1555412495.157103,-0.641891,0.259572,0.167401,-0.578655,-0.256667,-0.774133,0.000000,0.000000,0.000000,-1,1.105241,-2.415595,1.634146,-0.071461,0.216643,0.027215
"2019-04-16 11:01:35.177 +0000",1555412495.177099,-0.694918,0.252346,0.203226,-0.620043,-0.249677,-0.743780,0.000000,0.000000,0.000000,-1,0.607938,-2.006826,1.519290,-0.161512,0.090543,0.014410
"2019-04-16 11:01:35.197 +0000",1555412495.197103,-0.736938,0.237378,0.232539,-0.653179,-0.235155,-0.719764,0.000000,0.000000,0.000000,-1,0.266798,-1.673888,1.664514,-0.174794,0.077272,-0.019738
"2019-04-16 11:01:35.217 +0000",1555412495.217097,-0.788843,0.209901,0.272873,-0.693965,-0.208363,-0.689200,0.000000,0.000000,0.000000,-1,0.536414,-2.629425,3.151115,-0.463902,0.080418,-0.245614
"2019-04-16 11:01:35.237 +0000",1555412495.237081,-0.864917,0.168834,0.341591,-0.750220,-0.168033,-0.639480,0.000000,0.000000,0.000000,-1,1.444171,-3.393982,3.772315,0.051932,0.011325,-0.071488
"2019-04-16 11:01:35.257 +0000",1555412495.257103,-0.940282,0.145441,0.406731,-0.799196,-0.144929,-0.583336,0.000000,0.000000,0.000000,-1,1.988603,-3.271016,2.391517,0.154497,0.057252,-0.036553
"2019-04-16 11:01:35.277 +0000",1555412495.277104,-1.018902,0.136956,0.469469,-0.843559,-0.136528,-0.519392,0.000000,0.000000,0.000000,-1,2.560899,-3.529127,2.046606,-0.115501,0.036888,-0.080019
"2019-04-16 11:01:35.297 +0000",1555412495.297075,-1.095467,0.126952,0.540064,-0.881987,-0.126611,-0.453948,0.000000,0.000000,0.000000,-1,2.888263,-3.266947,2.190683,-0.181017,-0.048468,-0.091233
"2019-04-16 11:01:35.317 +0000",1555412495.317102,-1.166092,0.114537,0.608030,-0.913196,-0.114287,-0.391167,0.000000,0.000000,0.000000,-1,2.685906,-3.055700,1.830899,-0.132016,-0.114763,-0.151314
"2019-04-16 11:01:35.337 +0000",1555412495.337103,-1.231307,0.105910,0.670136,-0.937642,-0.105712,-0.331139,0.000000,0.000000,0.000000,-1,2.830232,-2.772554,1.366766,-0.062358,-0.046647,-0.257896
"2019-04-16 11:01:35.357 +0000",1555412495.357101,-1.289547,0.100715,0.740333,-0.955841,-0.100545,-0.276149,0.000000,0.000000,0.000000,-1,3.493425,-2.486649,1.281518,-0.080505,-0.237910,-0.231740
"2019-04-16 11:01:35.377 +0000",1555412495.377103,-1.346909,0.096204,0.814760,-0.970533,-0.096056,-0.220995,0.000000,0.000000,0.000000,-1,3.433666,-2.464154,1.070630,-0.073717,-0.316893,-0.170195
"2019-04-16 11:01:35.397 +0000",1555412495.397104,-1.394509,0.090605,0.879624,-0.980463,-0.090481,-0.174656,0.000000,0.000000,0.000000,-1,2.883737,-1.833190,0.809110,-0.035330,-0.371464,-0.069103
"2019-04-16 11:01:35.417 +0000",1555412495.417096,-1.431744,0.083691,0.936780,-0.986882,-0.083593,-0.138120,0.000000,0.000000,0.000000,-1,2.803220,-1.631948,0.767684,-0.022335,-0.384882,-0.062060
"2019-04-16 11:01:35.437 +0000",1555412495.437103,-1.475910,0.075323,0.997332,-0.992679,-0.075252,-0.094475,0.000000,0.000000,0.000000,-1,2.952954,-2.125850,0.851379,0.007007,-0.408970,-0.009971
"2019-04-16 11:01:35.457 +0000",1555412495.457104,-1.516903,0.065411,1.053739,-0.996413,-0.065364,-0.053752,0.000000,0.000000,0.000000,-1,2.545677,-1.540254,0.619323,0.087584,-0.357090,0.221904
"2019-04-16 11:01:35.477 +0000",1555412495.477091,-1.547262,0.056993,1.096600,-0.998100,-0.056962,-0.023494,0.000000,0.000000,0.000000,-1,1.917855,-1.262967,0.650944,0.193000,-0.315566,0.271983
"2019-04-16 11:01:35.497 +0000",1555412495.497103,-1.584893,0.041364,1.124398,-0.999045,-0.041352,0.014084,0.000000,0.000000,0.000000,-1,0.804906,-1.928025,0.897680,0.039954,-0.099898,0.455597
"2019-04-16 11:01:35.517 +0000",1555412495.517105,-1.602520,0.022162,1.116570,-0.999251,-0.022160,0.031711,0.000000,0.000000,0.000000,-1,-0.828175,-0.162075,0.936757,0.125793,-0.204448,0.790967
"2019-04-16 11:01:35.537 +0000",1555412495.537077,-1.597333,0.009776,1.102412,-0.999600,-0.009776,0.026533,0.000000,0.000000,0.000000,-1,-0.498664,0.148530,0.572047,0.171277,-0.089406,0.159747
"2019-04-16 11:01:35.557 +0000",1555412495.557104,-1.611031,-0.005792,1.104683,-0.999174,0.005791,0.040223,0.000000,0.000000,0.000000,-1,0.572365,-1.162742,0.949613,0.219480,0.072868,-0.183366
"2019-04-16 11:01:35.577 +0000",1555412495.577104,-1.640596,-0.034111,1.120959,-0.996985,0.034105,0.069702,0.000000,0.000000,0.000000,-1,0.927928,-1.526074,1.600325,0.192053,0.050414,-0.026932
"2019-04-16 11:01:35.597 +0000",1555412495.597082,-1.661877,-0.073639,1.129881,-0.993156,0.073573,0.090708,0.000000,0.000000,0.000000,-1,0.400073,-0.760745,2.122148,0.165168,0.053228,0.055685
"2019-04-16 11:01:35.617 +0000",1555412495.617104,-1.669674,-0.123332,1.128970,-0.987557,0.123019,0.097967,0.000000,0.000000,0.000000,-1,0.250377,-0.162799,2.760674,0.366280,-0.128909,-0.070715
"2019-04-16 11:01:35.637 +0000",1555412495.637104,-1.667627,-0.182120,1.126192,-0.978855,0.181115,0.095081,0.000000,0.000000,0.000000,-1,0.110298,0.415231,3.059025,0.109028,0.443107,-0.176502
"2019-04-16 11:01:35.657 +0000",1555412495.656939,-1.652616,-0.246469,1.119272,-0.966536,0.243981,0.079259,0.000000,0.000000,0.000000,-1,-0.193497,1.008451,3.280634,0.034147,0.425452,-0.137380
"2019-04-16 11:01:35.677 +0000",1555412495.676937,-1.633105,-0.307550,1.103574,-0.951228,0.302725,0.059346,0.000000,0.000000,0.000000,-1,-0.763062,1.302310,2.936503,-0.201497,0.159677,-0.162663
"2019-04-16 11:01:35.697 +0000",1555412495.696934,-1.616007,-0.355043,1.073691,-0.936674,0.347630,0.042377,0.000000,0.000000,0.000000,-1,-1.620355,1.324470,2.105309,-0.287036,0.088680,-0.139972
"2019-04-16 11:01:35.717 +0000",1555412495.716932,-1.616288,-0.393915,1.025132,-0.922458,0.383806,0.041993,0.000000,0.000000,0.000000,-1,-2.481843,0.504888,2.210081,-0.154171,-0.217653,-0.108094
"2019-04-16 11:01:35.737 +0000",1555412495.736918,-1.644757,-0.449160,0.958487,-0.898350,0.434209,0.066564,0.000000,0.000000,0.000000,-1,-2.999081,-0.529711,3.458345,-0.004772,-0.011678,-0.041463
"2019-04-16 11:01:35.757 +0000",1555412495.756938,-1.706009,-0.530702,0.885808,-0.854580,0.506139,0.116260,0.000000,0.000000,0.000000,-1,-2.361632,-1.079996,4.875223,0.226025,0.144313,0.546262
"2019-04-16 11:01:35.777 +0000",1555412495.776938,-1.700604,-0.627376,0.853760,-0.802760,0.587022,0.104793,0.000000,0.000000,0.000000,-1,0.370575,1.689700,4.856339,0.469508,0.229613,0.509434
"2019-04-16 11:01:35.797 +0000",1555412495.796938,-1.678932,-0.715771,0.872013,-0.750180,0.656200,0.081439,0.000000,0.000000,0.000000,-1,1.412020,-0.366383,3.924168,0.512509,0.007481,-0.326922
"2019-04-16 11:01:35.817 +0000",1555412495.816940,-1.686448,-0.785515,0.895945,-0.702301,0.707189,0.081587,0.000000,0.000000,0.000000,-1,1.149956,-1.417765,3.115830,0.453186,-0.133123,0.064623
"2019-04-16 11:01:35.837 +0000",1555412495.836926,-1.700089,-0.849053,0.921512,-0.655180,0.750655,0.085185,0.000000,0.000000,0.000000,-1,1.360016,-1.651323,3.110878,0.371641,-0.041533,0.167882
"2019-04-16 11:01:35.857 +0000",1555412495.856937,-1.703558,-0.925360,0.952108,-0.596254,0.798837,0.079628,0.000000,0.000000,0.000000,-1,1.561794,-1.043431,4.094164,0.125169,-0.301584,0.047722
"2019-04-16 11:01:35.877 +0000",1555412495.876937,-1.687500,-1.022733,0.987778,-0.517491,0.853535,0.060668,0.000000,0.000000,0.000000,-1,1.514792,-0.578816,4.956852,0.050450,-0.364567,-0.040771
"2019-04-16 11:01:35.897 +0000",1555412495.896936,-1.678702,-1.124035,1.000681,-0.429534,0.901851,0.046530,0.000000,0.000000,0.000000,-1,0.414477,0.520429,4.912656,-0.154099,-0.128017,-0.027701
"2019-04-16 11:01:35.917 +0000",1555412495.916937,-1.670496,-1.211406,0.963835,-0.349957,0.936111,0.035007,0.000000,0.000000,0.000000,-1,-0.525681,2.898734,4.022237,-0.208423,-0.093979,-0.073688
"2019-04-16 11:01:35.937 +0000",1555412495.936939,-1.682227,-1.273054,0.890299,-0.291543,0.956001,0.032622,0.000000,0.000000,0.000000,-1,-1.127595,2.635363,2.670341,-0.110663,-0.033729,-0.138701
"2019-04-16 11:01:35.957 +0000",1555412495.956938,-1.778404,-1.305280,0.746949,-0.256772,0.964957,0.054087,0.000000,0.000000,0.000000,-1,-2.018170,1.574004,1.434783,0.042875,-0.038108,-0.043498
"2019-04-16 11:01:35.977 +0000",1555412495.976938,-1.925847,-1.315769,0.600664,-0.236538,0.967656,0.087699,0.000000,0.000000,0.000000,-1,-1.007111,-1.616272,0.975322,0.131237,0.419383,0.402062
"2019-04-16 11:01:35.997 +0000",1555412495.996937,-2.049624,-1.343707,0.520986,-0.199822,0.974326,0.103732,0.000000,0.000000,0.000000,-1,-0.169325,-2.041834,1.882804,-0.122261,1.894601,0.214597
"2019-04-16 11:01:36.017 +0000",1555412496.016938,-2.130714,-1.354647,0.442603,-0.181720,0.976731,0.113908,0.000000,0.000000,0.000000,-1,-0.641246,0.826865,0.333033,0.319812,-0.101822,-0.073076
"2019-04-16 11:01:36.037 +0000",1555412496.036938,-2.157908,-1.342930,0.392255,-0.188071,0.974151,0.125139,0.000000,0.000000,0.000000,-1,-0.882889,0.803892,-0.431694,0.413993,-0.247024,-0.205354
"2019-04-16 11:01:36.057 +0000",1555412496.056940,-2.208128,-1.319800,0.333647,-0.199611,0.968665,0.147793,0.000000,0.000000,0.000000,-1,-1.605734,0.602753,-0.416485,0.186122,-0.184074,-0.133053
"2019-04-16 11:01:36.077 +0000",1555412496.076938,-2.308523,-1.297586,0.228024,-0.199670,0.962910,0.181486,0.000000,0.000000,0.000000,-1,-1.548972,-0.665331,0.221292,0.213205,-0.108097,0.142931
"2019-04-16 11:01:36.097 +0000",1555412496.096938,-2.397156,-1.286591,0.159952,-0.189983,0.959885,0.206222,0.000000,0.000000,0.000000,-1,-0.824515,-1.211598,0.180006,0.305981,-0.052399,0.181291
"2019-04-16 11:01:36.117 +0000",1555412496.116939,-2.435568,-1.274380,0.136097,-0.189515,0.956390,0.222268,0.000000,0.000000,0.000000,-1,-0.663419,-0.452637,-0.358268,0.347520,-0.111983,0.046866
"2019-04-16 11:01:36.137 +0000",1555412496.136939,-2.446805,-1.257866,0.133932,-0.197091,0.951436,0.236486,0.000000,0.000000,0.000000,-1,-0.609135,-0.596693,-0.544349,0.165078,0.047267,0.073817
"2019-04-16 11:01:36.157 +0000",1555412496.156914,-2.449065,-1.242787,0.144671,-0.205694,0.946685,0.247945,0.000000,0.000000,0.000000,-1,-0.417537,-0.412147,-0.666596,0.134649,0.097382,0.118113
"2019-04-16 11:01:36.177 +0000",1555412496.176933,-2.429343,-1.225398,0.164542,-0.221269,0.940941,0.256263,0.000000,0.000000,0.000000,-1,-0.503958,0.242638,-0.882737,0.133531,0.111626,-0.046546
"2019-04-16 11:01:36.197 +0000",1555412496.196937,-2.410974,-1.207602,0.182332,-0.237077,0.934767,0.264585,0.000000,0.000000,0.000000,-1,-0.369862,-0.086449,-0.726577,-0.128036,-0.179732,0.089892
"2019-04-16 11:01:36.217 +0000",1555412496.216908,-2.399304,-1.200815,0.198373,-0.244431,0.932334,0.266470,0.000000,0.000000,0.000000,-1,0.128550,-0.125023,-0.251974,-0.167663,-0.270942,0.123514
"2019-04-16 11:01:36.237 +0000",1555412496.236908,-2.380668,-1.203298,0.214892,-0.247758,0.933229,0.260191,0.000000,0.000000,0.000000,-1,0.347461,0.296943,-0.162506,-0.010207,-0.287553,0.017564
"2019-04-16 11:01:36.257 +0000",1555412496.256938,-2.357101,-1.205485,0.237085,-0.252378,0.934013,0.252836,0.000000,0.000000,0.000000,-1,0.369433,-0.009271,-0.216832,0.131101,-0.273933,-0.010999
"2019-04-16 11:01:36.277 +0000",1555412496.276938,-2.334856,-1.209548,0.264135,-0.255197,0.935456,0.244532,0.000000,0.000000,0.000000,-1,0.573972,-0.196455,-0.171687,0.136041,-0.298097,0.039801
"2019-04-16 11:01:36.297 +0000",1555412496.296967,-2.306334,-1.217700,0.297933,-0.256404,0.938306,0.232030,0.000000,0.000000,0.000000,-1,0.781886,-0.096563,-0.054838,0.146998,-0.360899,0.056834
"2019-04-16 11:01:36.317 +0000",1555412496.316939,-2.273531,-1.229212,0.331698,-0.255616,0.942225,0.216500,0.000000,0.000000,0.000000,-1,0.794433,0.135370,0.133219,0.162629,-0.409617,-0.064156
"2019-04-16 11:01:36.337 +0000",1555412496.336923,-2.247905,-1.242763,0.353988,-0.251104,0.946678,0.201860,0.000000,0.000000,0.000000,-1,0.670027,0.265685,0.377069,0.174246,-0.393181,-0.105181
"2019-04-16 11:01:36.357 +0000",1555412496.356913,-2.229838,-1.257938,0.367081,-0.243324,0.951458,0.188472,0.000000,0.000000,0.000000,-1,0.614400,0.296367,0.512922,0.205528,-0.303280,-0.134151
"2019-04-16 11:01:36.377 +0000",1555412496.376937,-2.212494,-1.275179,0.375615,-0.233379,0.956622,0.174378,0.000000,0.000000,0.000000,-1,0.647024,0.609767,0.671420,0.228039,-0.263843,0.009201
"2019-04-16 11:01:36.397 +0000",1555412496.396915,-2.187276,-1.296614,0.384253,-0.220918,0.962647,0.156544,0.000000,0.000000,0.000000,-1,0.788383,0.943079,0.870782,0.225374,-0.262619,0.051647
"2019-04-16 11:01:36.417 +0000",1555412496.416923,-2.149914,-1.321388,0.401572,-0.206584,0.969059,0.135087,0.000000,0.000000,0.000000,-1,0.910329,1.102784,0.859639,0.217326,-0.273884,0.187942
"2019-04-16 11:01:36.437 +0000",1555412496.436940,-2.101691,-1.341745,0.428098,-0.195800,0.973882,0.114958,0.000000,0.000000,0.000000,-1,0.705493,1.078819,0.590338,0.186065,-0.256567,0.236452
"2019-04-16 11:01:36.457 +0000",1555412496.456918,-2.058399,-1.354388,0.454615,-0.189699,0.976675,0.100600,0.000000,0.000000,0.000000,-1,0.505066,0.732150,0.302744,0.119996,-0.175650,0.148332
"2019-04-16 11:01:36.477 +0000",1555412496.476914,-2.004042,-1.358910,0.496324,-0.190874,0.977636,0.088290,0.000000,0.000000,0.000000,-1,0.493974,0.729660,-0.201957,-0.062910,-0.109106,0.147108
"2019-04-16 11:01:36.497 +0000",1555412496.496941,-1.933476,-1.352706,0.548500,-0.202291,0.976312,0.076763,0.000000,0.000000,0.000000,-1,0.341523,1.120774,-0.622856,-0.105952,-0.114267,0.144749
"2019-04-16 11:01:36.517 +0000",1555412496.516916,-1.871201,-1.341610,0.591739,-0.217011,0.973852,0.067226,0.000000,0.000000,0.000000,-1,0.211929,0.857270,-0.666282,-0.077148,0.186366,0.116704
"2019-04-16 11:01:36.537 +0000",1555412496.536915,-1.833144,-1.331615,0.618400,-0.228801,0.971532,0.061442,0.000000,0.000000,0.000000,-1,0.224229,0.471279,-0.443437,-0.000416,0.955210,0.002355
"2019-04-16 11:01:36.557 +0000",1555412496.556940,-1.781707,-1.334088,0.667640,-0.229308,0.972115,0.049094,0.000000,0.000000,0.000000,-1,0.761351,-0.053949,0.215876,-0.032044,1.045982,0.019251
"2019-04-16 11:01:36.577 +0000",1555412496.576914,-1.735242,-1.342723,0.723135,-0.223051,0.974104,0.037014,0.000000,0.000000,0.000000,-1,0.595513,-0.486421,0.264682,-0.024401,1.028643,-0.005077
"2019-04-16 11:01:36.597 +0000",1555412496.596940,-1.708433,-1.342094,0.755555,-0.224570,0.973961,0.031106,0.000000,0.000000,0.000000,-1,0.202244,-0.060247,-0.311797,-0.006280,0.436851,0.076560
"2019-04-16 11:01:36.617 +0000",1555412496.616941,-1.705949,-1.335382,0.756480,-0.231119,0.972418,0.031428,0.000000,0.000000,0.000000,-1,-0.115828,0.109998,-0.233591,-0.075247,0.716516,0.163503
"2019-04-16 11:01:36.637 +0000",1555412496.636936,-1.698348,-1.333780,0.763404,-0.232895,0.972043,0.029868,0.000000,0.000000,0.000000,-1,0.246551,-0.090637,-0.056308,-0.190124,0.844317,0.049294
"2019-04-16 11:01:36.657 +0000",1555412496.656922,-1.673603,-1.333854,0.796299,-0.233492,0.972060,0.024090,0.000000,0.000000,0.000000,-1,0.372134,-0.425249,-0.016531,-0.016843,0.309678,-0.153789
"2019-04-16 11:01:36.677 +0000",1555412496.676941,-1.666660,-1.335543,0.809019,-0.232020,0.972455,0.022311,0.000000,0.000000,0.000000,-1,0.029458,-0.192583,0.107272,0.105295,0.153689,-0.220354
"2019-04-16 11:01:36.697 +0000",1555412496.696920,-1.672085,-1.339655,0.804283,-0.227914,0.973406,0.023164,0.000000,0.000000,0.000000,-1,-0.049562,0.064285,0.278180,0.288309,-0.130281,-0.195818
"2019-04-16 11:01:36.717 +0000",1555412496.716934,-1.675824,-1.346798,0.795586,-0.220906,0.975017,0.023287,0.000000,0.000000,0.000000,-1,-0.045961,0.300859,0.401056,0.242452,-0.195705,-0.027773
"2019-04-16 11:01:36.737 +0000",1555412496.736942,-1.671008,-1.355487,0.797518,-0.212578,0.976910,0.021374,0.000000,0.000000,0.000000,-1,0.133262,-0.009710,0.436197,0.176201,-0.123151,-0.000073
"2019-04-16 11:01:36.757 +0000",1555412496.756928,-1.663318,-1.363946,0.808485,-0.204500,0.978683,0.018975,0.000000,0.000000,0.000000,-1,0.140315,-0.151926,0.381789,0.082338,-0.055648,0.022437
"2019-04-16 11:01:36.777 +0000",1555412496.776924,-1.652292,-1.370733,0.819566,-0.198071,0.980054,0.016178,0.000000,0.000000,0.000000,-1,0.147982,0.075921,0.302034,0.080350,-0.164533,0.022442
"2019-04-16 11:01:36.797 +0000",1555412496.796942,-1.639339,-1.376199,0.830430,-0.192918,0.981126,0.013244,0.000000,0.000000,0.000000,-1,0.097629,0.135249,0.247030,0.101899,-0.216614,-0.003188
"2019-04-16 11:01:36.817 +0000",1555412496.816923,-1.638277,-1.380566,0.829645,-0.188654,0.981961,0.012750,0.000000,0.000000,0.000000,-1,-0.051106,0.035712,0.198137,0.094874,-0.296490,-0.025796
"2019-04-16 11:01:36.837 +0000",1555412496.836920,-1.656593,-1.383744,0.812182,-0.185279,0.982557,0.015936,0.000000,0.000000,0.000000,-1,-0.209710,-0.090277,0.156568,0.032661,-0.306089,0.039301
"2019-04-16 11:01:36.857 +0000",1555412496.856941,-1.689191,-1.385508,0.780333,-0.182941,0.982883,0.021761,0.000000,0.000000,0.000000,-1,-0.317893,-0.062570,0.092274,0.035617,-0.303684,-0.006411
"2019-04-16 11:01:36.877 +0000",1555412496.876917,-1.730960,-1.385708,0.740547,-0.181678,0.982920,0.029349,0.000000,0.000000,0.000000,-1,-0.394052,-0.174321,0.044296,0.052039,-0.346293,-0.012046
"2019-04-16 11:01:36.897 +0000",1555412496.896924,-1.779083,-1.384444,0.694628,-0.181271,0.982687,0.038312,0.000000,0.000000,0.000000,-1,-0.436028,-0.116997,0.005398,0.110501,-0.377538,0.007541
"2019-04-16 11:01:36.917 +0000",1555412496.916941,-1.825865,-1.383354,0.648913,-0.180317,0.982484,0.047017,0.000000,0.000000,0.000000,-1,-0.420516,-0.100410,0.069610,0.125340,-0.387483,0.006297
"2019-04-16 11:01:36.937 +0000",1555412496.936934,-1.867091,-1.383092,0.609949,-0.178473,0.982435,0.054484,0.000000,0.000000,0.000000,-1,-0.300485,-0.177655,0.090286,0.122977,-0.410154,-0.014247
"2019-04-16 11:01:36.957 +0000",1555412496.956941,-1.895247,-1.383085,0.586078,-0.176874,0.982434,0.059489,0.000000,0.000000,0.000000,-1,-0.158336,-0.269875,0.024828,0.060007,-0.345425,-0.012324
"2019-04-16 11:01:36.977 +0000",1555412496.976942,-1.905945,-1.380792,0.581100,-0.178355,0.982003,0.062119,0.000000,0.000000,0.000000,-1,-0.047540,-0.290962,-0.166779,0.008585,-0.306848,0.005233
"2019-04-16 11:01:36.997 +0000",1555412496.996932,-1.905536,-1.375513,0.587021,-0.183274,0.980993,0.063748,0.000000,0.000000,0.000000,-1,-0.033994,-0.253469,-0.323389,-0.115981,-0.158636,0.050494
"2019-04-16 11:01:37.017 +0000",1555412497.016943,-1.904532,-1.368057,0.591641,-0.190244,0.979519,0.065958,0.000000,0.000000,0.000000,-1,-0.114741,-0.124899,-0.391534,-0.243396,0.017277,0.113210
"2019-04-16 11:01:37.037 +0000",1555412497.036943,-1.906907,-1.358451,0.589840,-0.198960,0.977539,0.069510,0.000000,0.000000,0.000000,-1,-0.219528,0.050411,-0.482354,-0.269225,0.080963,0.122247
"2019-04-16 11:01:37.057 +0000",1555412497.056941,-1.918772,-1.344946,0.571710,-0.210514,0.974604,0.076361,0.000000,0.000000,0.000000,-1,-0.580824,0.426761,-0.648840,-0.256817,0.237264,0.107965
"2019-04-16 11:01:37.077 +0000",1555412497.076917,-1.962894,-1.321463,0.517123,-0.228031,0.969077,0.094293,0.000000,0.000000,0.000000,-1,-1.296935,0.371433,-1.001467,-0.179317,0.764184,0.091605
"2019-04-16 11:01:37.097 +0000",1555412497.096944,-2.041905,-1.285783,0.432907,-0.250541,0.959658,0.127616,0.000000,0.000000,0.000000,-1,-2.028617,-0.067621,-1.229741,-0.143456,0.944547,0.102044
"2019-04-16 11:01:37.117 +0000",1555412497.116942,-2.129022,-1.242331,0.350001,-0.273620,0.946539,0.170871,0.000000,0.000000,0.000000,-1,-2.105911,-0.586362,-1.224669,0.067718,0.852351,0.173658
"2019-04-16 11:01:37.137 +0000",1555412497.136943,-2.193552,-1.206995,0.295094,-0.289031,0.934551,0.207547,0.000000,0.000000,0.000000,-1,-1.509957,-0.608820,-0.769083,0.321838,0.220097,0.109821
"2019-04-16 11:01:37.157 +0000",1555412497.156942,-2.232348,-1.184003,0.264913,-0.297642,0.926123,0.231743,0.000000,0.000000,0.000000,-1,-0.951668,-0.521826,-0.537914,0.328953,0.194726,-0.033882
"2019-04-16 11:01:37.177 +0000",1555412497.176943,-2.258209,-1.165662,0.252434,-0.304629,0.919049,0.250099,0.000000,0.000000,0.000000,-1,-0.660732,-0.914322,-0.617680,0.271121,0.466479,-0.134559
"2019-04-16 11:01:37.197 +0000",1555412497.196933,-2.278393,-1.146356,0.253805,-0.312946,0.911269,0.267681,0.000000,0.000000,0.000000,-1,-0.615556,-1.006348,-0.819843,0.332233,0.529618,0.165516
"2019-04-16 11:01:37.217 +0000",1555412497.216944,-2.291558,-1.124542,0.254581,-0.324255,0.902070,0.284831,0.000000,0.000000,0.000000,-1,-0.731145,-0.572489,-0.829558,0.380453,0.483306,0.136556
"2019-04-16 11:01:37.237 +0000",1555412497.236942,-2.300743,-1.103214,0.255937,-0.335888,0.892661,0.300560,0.000000,0.000000,0.000000,-1,-0.638760,-0.451432,-0.795235,0.405575,0.330133,0.085655
"2019-04-16 11:01:37.257 +0000",1555412497.256943,-2.306929,-1.084734,0.257099,-0.346190,0.884179,0.313656,0.000000,0.000000,0.000000,-1,-0.583067,-0.356328,-0.633389,0.223677,-0.061578,0.007694
"2019-04-16 11:01:37.277 +0000",1555412497.276943,-2.313172,-1.071040,0.255571,-0.353114,0.877699,0.323966,0.000000,0.000000,0.000000,-1,-0.398926,-0.106854,-0.386602,0.192790,-0.149931,-0.043922
"2019-04-16 11:01:37.297 +0000",1555412497.296943,-2.312623,-1.064217,0.253952,-0.357698,0.874409,0.327811,0.000000,0.000000,0.000000,-1,-0.192200,0.151943,-0.148056,0.189241,-0.231984,-0.110404
"2019-04-16 11:01:37.317 +0000",1555412497.316946,-2.311960,-1.062313,0.251386,-0.359143,0.873484,0.328697,0.000000,0.000000,0.000000,-1,-0.056476,0.100906,0.033911,0.259809,-0.288035,-0.127144
"2019-04-16 11:01:37.337 +0000",1555412497.336933,-2.311519,-1.065374,0.250646,-0.357313,0.874970,0.326733,0.000000,0.000000,0.000000,-1,0.182006,0.031770,0.186239,0.261564,-0.277116,-0.083919
"2019-04-16 11:01:37.357 +0000",1555412497.356944,-2.311098,-1.074405,0.251732,-0.351603,0.879307,0.321239,0.000000,0.000000,0.000000,-1,0.401339,-0.085420,0.405494,0.241267,-0.281879,-0.075298
"2019-04-16 11:01:37.377 +0000",1555412497.376945,-2.314606,-1.089017,0.251379,-0.340982,0.886172,0.313737,0.000000,0.000000,0.000000,-1,0.517349,-0.176518,0.608519,0.255273,-0.375781,-0.006532
"2019-04-16 11:01:37.397 +0000",1555412497.396945,-2.320463,-1.106260,0.248123,-0.327904,0.894030,0.305270,0.000000,0.000000,0.000000,-1,0.545172,-0.137965,0.740105,0.212609,-0.431261,-0.024997
"2019-04-16 11:01:37.417 +0000",1555412497.416944,-2.327479,-1.126896,0.242602,-0.312272,0.903083,0.294834,0.000000,0.000000,0.000000,-1,0.678804,-0.083026,0.881581,0.183564,-0.442710,-0.017856
"2019-04-16 11:01:37.437 +0000",1555412497.436945,-2.330808,-1.151373,0.240813,-0.295175,0.913324,0.280556,0.000000,0.000000,0.000000,-1,0.896319,-0.103323,0.917402,0.164148,-0.441095,-0.122978
"2019-04-16 11:01:37.457 +0000",1555412497.456943,-2.326489,-1.178699,0.248386,-0.278111,0.924110,0.262060,0.000000,0.000000,0.000000,-1,1.142056,-0.165098,0.879951,0.143834,-0.396659,-0.137426
"2019-04-16 11:01:37.477 +0000",1555412497.476945,-2.318685,-1.208359,0.264565,-0.259933,0.935036,0.241130,0.000000,0.000000,0.000000,-1,1.249858,-0.509688,0.873625,0.119583,-0.354866,-0.133021
"2019-04-16 11:01:37.497 +0000",1555412497.496945,-2.315256,-1.236297,0.284063,-0.241447,0.944575,0.222445,0.000000,0.000000,0.000000,-1,1.145196,-0.858526,0.735522,0.037589,-0.173823,-0.059313
"2019-04-16 11:01:37.517 +0000",1555412497.516944,-2.309960,-1.260355,0.308111,-0.225759,0.952199,0.205792,0.000000,0.000000,0.000000,-1,1.076452,-0.824728,0.576796,-0.032619,-0.124471,0.121418
"2019-04-16 11:01:37.537 +0000",1555412497.536937,-2.294224,-1.283484,0.339037,-0.212402,0.959009,0.187583,0.000000,0.000000,0.000000,-1,1.144076,-0.651971,0.556436,-0.076417,-0.153497,0.155679
"2019-04-16 11:01:37.557 +0000",1555412497.556916,-2.274165,-1.307233,0.374040,-0.198692,0.965468,0.168503,0.000000,0.000000,0.000000,-1,1.104702,-0.704264,0.612437,-0.074669,-0.292067,0.123504
"2019-04-16 11:01:37.577 +0000",1555412497.576942,-2.257331,-1.329222,0.405918,-0.185033,0.970963,0.151639,0.000000,0.000000,0.000000,-1,0.947593,-0.653951,0.540069,0.069798,-0.356171,0.079028
"2019-04-16 11:01:37.597 +0000",1555412497.596924,-2.239002,-1.348823,0.436623,-0.172807,0.975465,0.136403,0.000000,0.000000,0.000000,-1,0.884591,-0.585977,0.581982,0.147920,-0.353486,0.073237
"2019-04-16 11:01:37.617 +0000",1555412497.616918,-2.228653,-1.369808,0.461243,-0.157974,0.979870,0.122063,0.000000,0.000000,0.000000,-1,0.784207,-0.715842,0.703292,0.404343,-0.050045,0.235374
"2019-04-16 11:01:37.637 +0000",1555412497.636937,-2.240583,-1.384996,0.451955,-0.144823,0.982789,0.114686,0.000000,0.000000,0.000000,-1,0.057956,0.515470,0.528467,0.479250,0.325790,0.517303
"2019-04-16 11:01:37.657 +0000",1555412497.656946,-2.202313,-1.387454,0.449507,-0.147154,0.983240,0.107634,0.000000,0.000000,0.000000,-1,0.546024,2.526790,-0.014417,0.511717,0.510260,-0.050139
"2019-04-16 11:01:37.677 +0000",1555412497.676944,-2.017990,-1.409366,0.616475,-0.144924,0.986998,0.069505,0.000000,0.000000,0.000000,-1,2.184294,-0.412693,0.351146,0.295666,0.602342,-0.749391
"2019-04-16 11:01:37.697 +0000",1555412497.696920,-1.936726,-1.425343,0.735436,-0.135345,0.989440,0.051862,0.000000,0.000000,0.000000,-1,0.251252,-1.862630,0.318133,0.122131,1.244706,-0.246259
"2019-04-16 11:01:37.717 +0000",1555412497.716941,-2.018023,-1.420506,0.657506,-0.134999,0.988728,0.064751,0.000000,0.000000,0.000000,-1,-0.874465,0.643491,-0.305746,0.006795,0.867260,-0.168358
"2019-04-16 11:01:37.737 +0000",1555412497.736945,-2.066281,-1.401054,0.593328,-0.148613,0.985628,0.080319,0.000000,0.000000,0.000000,-1,-0.777013,0.686883,-0.732233,-0.192543,0.973417,0.477802
"2019-04-16 11:01:37.757 +0000",1555412497.756921,-2.046595,-1.388637,0.596280,-0.161032,0.983455,0.082977,0.000000,0.000000,0.000000,-1,0.046894,1.034080,-0.382308,-0.160196,1.050832,0.354752
"2019-04-16 11:01:37.777 +0000",1555412497.776946,-1.998594,-1.386638,0.629107,-0.166616,0.983091,0.075970,0.000000,0.000000,0.000000,-1,0.236176,0.354640,-0.210744,-0.022822,0.358889,-0.370022
"2019-04-16 11:01:37.797 +0000",1555412497.796945,-1.993767,-1.383139,0.638789,-0.170117,0.982444,0.076577,0.000000,0.000000,0.000000,-1,-0.151014,-0.425410,-0.169251,0.041394,-0.355277,-0.218056
"2019-04-16 11:01:37.817 +0000",1555412497.816948,-2.013703,-1.378980,0.628390,-0.172247,0.981660,0.081703,0.000000,0.000000,0.000000,-1,-0.099521,-0.480538,-0.118497,0.031668,-0.464478,-0.151085
"2019-04-16 11:01:37.837 +0000",1555412497.836946,-1.997770,-1.383066,0.650271,-0.169874,0.982430,0.077287,0.000000,0.000000,0.000000,-1,0.535432,-0.100034,0.234381,0.068663,-0.374810,-0.021455
"2019-04-16 11:01:37.857 +0000",1555412497.856945,-1.917394,-1.394347,0.728068,-0.165096,0.984473,0.059629,0.000000,0.000000,0.000000,-1,0.979866,0.362993,0.239274,0.155880,0.075326,-0.063734
"2019-04-16 11:01:37.877 +0000",1555412497.876942,-1.827972,-1.404574,0.808162,-0.160016,0.986217,0.042084,0.000000,0.000000,0.000000,-1,0.602179,0.536615,0.296456,0.201093,0.114293,-0.057572
"2019-04-16 11:01:37.897 +0000",1555412497.896945,-1.789822,-1.410425,0.840636,-0.155870,0.987168,0.034696,0.000000,0.000000,0.000000,-1,0.229444,0.097448,0.189019,0.143983,0.126968,0.001513
"2019-04-16 11:01:37.917 +0000",1555412497.916945,-1.771664,-1.414200,0.861030,-0.152821,0.987764,0.031116,0.000000,0.000000,0.000000,-1,0.174118,-0.137177,0.111356,-0.002636,0.033202,0.020413
"2019-04-16 11:01:37.937 +0000",1555412497.936934,-1.769167,-1.416069,0.864798,-0.151088,0.988054,0.030371,0.000000,0.000000,0.000000,-1,-0.063900,0.020624,0.081766,0.065334,-0.152772,0.020914
"2019-04-16 11:01:37.957 +0000",1555412497.956945,-1.802940,-1.416729,0.829586,-0.149342,0.988155,0.035305,0.000000,0.000000,0.000000,-1,-0.341033,0.008012,0.109168,0.079396,-0.239956,0.014423
"2019-04-16 11:01:37.977 +0000",1555412497.976947,-1.858689,-1.418032,0.776737,-0.145908,0.988354,0.043206,0.000000,0.000000,0.000000,-1,-0.367280,-0.291043,0.187636,0.083866,-0.392956,0.054908
"2019-04-16 11:01:37.997 +0000",1555412497.996932,-1.914605,-1.419796,0.727557,-0.141624,0.988621,0.050705,0.000000,0.000000,0.000000,-1,-0.298552,-0.379709,0.201252,0.076545,-0.380894,0.110794
"2019-04-16 11:01:38.017 +0000",1555412498.016945,-1.957959,-1.422428,0.690776,-0.136883,0.989014,0.055813,0.000000,0.000000,0.000000,-1,-0.129732,-0.312239,0.250379,0.101681,-0.311066,0.082859
"2019-04-16 11:01:38.037 +0000",1555412498.036943,-1.969723,-1.428811,0.682627,-0.130398,0.989937,0.054966,0.000000,0.000000,0.000000,-1,0.190257,-0.105909,0.345256,0.098064,-0.203240,0.010555
"2019-04-16 11:01:38.057 +0000",1555412498.056928,-1.949048,-1.436985,0.704303,-0.123981,0.991061,0.049269,0.000000,0.000000,0.000000,-1,0.302400,-0.057476,0.276311,0.025089,-0.197100,-0.034651
"2019-04-16 11:01:38.077 +0000",1555412498.076946,-1.929917,-1.440936,0.727481,-0.121235,0.991580,0.045512,0.000000,0.000000,0.000000,-1,0.113064,-0.275977,0.035880,-0.029232,-0.206668,-0.079417
"2019-04-16 11:01:38.097 +0000",1555412498.096946,-1.964500,-1.437216,0.699654,-0.122995,0.991091,0.051091,0.000000,0.000000,0.000000,-1,-0.492116,-0.347768,-0.198009,-0.067969,-0.133975,-0.104329
"2019-04-16 11:01:38.117 +0000",1555412498.116923,-2.056681,-1.423899,0.610353,-0.129429,0.989230,0.068353,0.000000,0.000000,0.000000,-1,-1.015246,-0.099501,-0.405039,-0.060771,0.031339,-0.062357
"2019-04-16 11:01:38.137 +0000",1555412498.136915,-2.154698,-1.404149,0.518988,-0.138395,0.986146,0.091446,0.000000,0.000000,0.000000,-1,-1.128217,-0.687408,-0.514605,-0.130724,-0.111894,0.019989
"2019-04-16 11:01:38.157 +0000",1555412498.156935,-2.236277,-1.386923,0.453015,-0.143824,0.983143,0.112891,0.000000,0.000000,0.000000,-1,-0.830724,-0.692703,-0.233479,-0.224340,-0.378239,0.237298
"2019-04-16 11:01:38.177 +0000",1555412498.176919,-2.278512,-1.378108,0.412488,-0.145509,0.981493,0.124493,0.000000,0.000000,0.000000,-1,-0.448048,0.200471,-0.063744,-0.227537,-0.247393,0.150562
"2019-04-16 11:01:38.197 +0000",1555412498.196946,-2.291331,-1.371544,0.388943,-0.148740,0.980215,0.130596,0.000000,0.000000,0.000000,-1,-0.415750,0.607037,-0.134533,-0.137362,0.122645,-0.060543
"2019-04-16 11:01:38.217 +0000",1555412498.216947,-2.326122,-1.358546,0.343836,-0.153371,0.977559,0.144413,0.000000,0.000000,0.000000,-1,-1.110140,0.331966,-0.238484,-0.060603,0.558039,-0.237552
"2019-04-16 11:01:38.237 +0000",1555412498.236943,-2.390999,-1.329042,0.269538,-0.163292,0.970920,0.175074,0.000000,0.000000,0.000000,-1,-1.855029,0.524365,-0.536910,0.071572,0.967954,-0.184977
"2019-04-16 11:01:38.257 +0000",1555412498.256946,-2.443963,-1.290715,0.199878,-0.177582,0.961033,0.211850,0.000000,0.000000,0.000000,-1,-2.113618,0.772552,-0.585902,0.289307,0.724209,-0.100201
"2019-04-16 11:01:38.277 +0000",1555412498.276947,-2.489663,-1.253908,0.140873,-0.189061,0.950210,0.247704,0.000000,0.000000,0.000000,-1,-1.781968,0.236443,-0.448701,0.586278,0.209199,0.116737
"2019-04-16 11:01:38.297 +0000",1555412498.296924,-2.506709,-1.226212,0.121608,-0.200347,0.941216,0.271981,0.000000,0.000000,0.000000,-1,-1.022551,0.128107,-0.701529,0.615203,-0.017220,0.246604
"2019-04-16 11:01:38.317 +0000",1555412498.316946,-2.511518,-1.206401,0.119556,-0.209984,0.934339,0.287953,0.000000,0.000000,0.000000,-1,-0.780735,-0.427479,-0.462012,0.200813,0.422365,-0.031895
"2019-04-16 11:01:38.337 +0000",1555412498.336948,-2.519928,-1.187870,0.118071,-0.217602,0.927575,0.303733,0.000000,0.000000,0.000000,-1,-0.695003,-0.091022,-0.581237,0.079464,0.821677,0.065438
"2019-04-16 11:01:38.357 +0000",1555412498.356946,-2.498490,-1.173491,0.133501,-0.232037,0.922107,0.309640,0.000000,0.000000,0.000000,-1,-0.241287,0.489967,-0.678553,0.226407,0.809475,0.132956
"2019-04-16 11:01:38.377 +0000",1555412498.376918,-2.476321,-1.161921,0.156936,-0.245414,0.917569,0.312794,0.000000,0.000000,0.000000,-1,-0.180746,-0.323476,-0.765795,0.346503,0.565616,0.065609
"2019-04-16 11:01:38.397 +0000",1555412498.396946,-2.463568,-1.149110,0.183197,-0.256735,0.912400,0.318768,0.000000,0.000000,0.000000,-1,-0.169558,-0.627352,-0.808523,0.253455,0.122420,0.030933
"2019-04-16 11:01:38.417 +0000",1555412498.416943,-2.462621,-1.138048,0.199593,-0.263360,0.907817,0.326360,0.000000,0.000000,0.000000,-1,-0.248714,-0.736461,-0.440517,0.145654,-0.196604,-0.040059
"2019-04-16 11:01:38.437 +0000",1555412498.436946,-2.480911,-1.132269,0.195130,-0.260562,0.905378,0.335258,0.000000,0.000000,0.000000,-1,-0.283104,-0.651597,0.073261,0.105243,-0.429472,-0.108131
"2019-04-16 11:01:38.457 +0000",1555412498.456948,-2.504999,-1.132005,0.180376,-0.252554,0.905266,0.341629,0.000000,0.000000,0.000000,-1,-0.121839,-0.474393,0.314374,0.141042,-0.491982,-0.143768
"2019-04-16 11:01:38.477 +0000",1555412498.476917,-2.524645,-1.137523,0.166695,-0.242900,0.907596,0.342445,0.000000,0.000000,0.000000,-1,0.160415,-0.279201,0.435433,0.201289,-0.449695,-0.112205
"2019-04-16 11:01:38.497 +0000",1555412498.496948,-2.537611,-1.148467,0.154199,-0.232784,0.912137,0.337370,0.000000,0.000000,0.000000,-1,0.371613,0.044586,0.589808,0.235470,-0.400647,-0.052778
"2019-04-16 11:01:38.517 +0000",1555412498.516946,-2.548237,-1.164012,0.138516,-0.221231,0.918398,0.328028,0.000000,0.000000,0.000000,-1,0.509149,0.247782,0.762367,0.275537,-0.368334,-0.009318
"2019-04-16 11:01:38.537 +0000",1555412498.536946,-2.563176,-1.182923,0.116627,-0.206773,0.925716,0.316695,0.000000,0.000000,0.000000,-1,0.582220,0.248217,0.939305,0.235795,-0.352489,-0.046492
"2019-04-16 11:01:38.557 +0000",1555412498.556946,-2.584582,-1.204926,0.087984,-0.189131,0.933813,0.303682,0.000000,0.000000,0.000000,-1,0.686831,0.291762,1.090006,0.200880,-0.386266,-0.064852
"2019-04-16 11:01:38.577 +0000",1555412498.576947,-2.609400,-1.229507,0.055077,-0.169836,0.942324,0.288412,0.000000,0.000000,0.000000,-1,0.798092,0.327292,1.102111,0.169042,-0.435808,-0.146993
"2019-04-16 11:01:38.597 +0000",1555412498.596947,-2.624914,-1.254618,0.029772,-0.153601,0.950431,0.270349,0.000000,0.000000,0.000000,-1,0.932358,0.445304,0.895887,0.074194,-0.370871,-0.223016
"2019-04-16 11:01:38.617 +0000",1555412498.616915,-2.627815,-1.279423,0.019147,-0.141184,0.957850,0.250180,0.000000,0.000000,0.000000,-1,1.036008,0.280270,0.674150,0.039728,-0.332789,-0.212079
"2019-04-16 11:01:38.637 +0000",1555412498.636925,-2.624189,-1.303340,0.020236,-0.130719,0.964446,0.229686,0.000000,0.000000,0.000000,-1,1.040323,0.071018,0.525792,0.028622,-0.251968,-0.170528
"2019-04-16 11:01:38.657 +0000",1555412498.656946,-2.614765,-1.325154,0.029340,-0.122269,0.969981,0.210205,0.000000,0.000000,0.000000,-1,0.979109,-0.005602,0.394823,0.103806,-0.144695,-0.083146
"2019-04-16 11:01:38.677 +0000",1555412498.676947,-2.603120,-1.343414,0.042411,-0.115605,0.974260,0.193528,0.000000,0.000000,0.000000,-1,0.785176,-0.045627,0.310193,0.095311,-0.152788,-0.074143
"2019-04-16 11:01:38.697 +0000",1555412498.696943,-2.582467,-1.360319,0.061501,-0.110824,0.977931,0.177111,0.000000,0.000000,0.000000,-1,0.938583,0.235406,0.225926,0.060363,-0.170100,0.069791
"2019-04-16 11:01:38.717 +0000",1555412498.716947,-2.515701,-1.383161,0.119835,-0.109277,0.982448,0.151177,0.000000,0.000000,0.000000,-1,1.446451,0.603131,0.125957,0.101754,-0.002086,0.197456
"2019-04-16 11:01:38.737 +0000",1555412498.736946,-2.399673,-1.407846,0.221214,-0.109619,0.986753,0.119591,0.000000,0.000000,0.000000,-1,1.479963,0.930321,0.094599,0.113541,0.058444,0.239753
"2019-04-16 11:01:38.757 +0000",1555412498.756948,-2.280052,-1.427245,0.323239,-0.108560,0.989714,0.093170,0.000000,0.000000,0.000000,-1,1.042465,0.833305,0.179642,0.130883,0.203828,0.260285
"2019-04-16 11:01:38.777 +0000",1555412498.776947,-2.200203,-1.437934,0.391059,-0.107088,0.991187,0.077982,0.000000,0.000000,0.000000,-1,0.491327,0.579669,0.084994,0.140138,0.050226,0.310537
"2019-04-16 11:01:38.797 +0000",1555412498.796945,-2.167791,-1.439620,0.412393,-0.108175,0.991409,0.073531,0.000000,0.000000,0.000000,-1,-0.024061,0.587654,-0.096497,0.146277,0.124100,0.305421
"2019-04-16 11:01:38.817 +0000",1555412498.816946,-2.176857,-1.432167,0.387249,-0.113574,0.990406,0.078715,0.000000,0.000000,0.000000,-1,-0.534088,0.911660,-0.279843,0.164477,0.364345,0.246648
"2019-04-16 11:01:38.837 +0000",1555412498.836946,-2.183402,-1.419457,0.353022,-0.123346,0.988570,0.086688,0.000000,0.000000,0.000000,-1,-0.423224,1.589293,-0.329185,0.220514,0.602784,-0.091144
"2019-04-16 11:01:38.857 +0000",1555412498.856930,-2.158555,-1.424112,0.363877,-0.121631,0.989261,0.081044,0.000000,0.000000,0.000000,-1,0.521097,-0.048769,0.429505,0.243213,0.542401,-0.339193
"2019-04-16 11:01:38.877 +0000",1555412498.876936,-2.170725,-1.438227,0.368408,-0.109099,0.991226,0.074627,0.000000,0.000000,0.000000,-1,0.150745,-0.967902,0.510589,0.247572,0.522843,-0.229229
"2019-04-16 11:01:38.897 +0000",1555412498.896947,-2.253313,-1.438791,0.291158,-0.102137,0.991300,0.083020,0.000000,0.000000,0.000000,-1,-0.543497,0.017776,0.280538,0.298396,0.132022,-0.082746
"2019-04-16 11:01:38.917 +0000",1555412498.916923,-2.319168,-1.440518,0.230750,-0.095198,0.991526,0.088397,0.000000,0.000000,0.000000,-1,0.000155,-0.545009,0.357481,0.153562,-0.054178,0.013395
"2019-04-16 11:01:38.937 +0000",1555412498.936932,-2.320316,-1.445302,0.227087,-0.091623,0.992136,0.085274,0.000000,0.000000,0.000000,-1,0.197288,0.759675,0.007771,-0.219854,1.523092,0.233162
"2019-04-16 11:01:38.957 +0000",1555412498.956945,-2.242146,-1.451848,0.294534,-0.092916,0.992934,0.073817,0.000000,0.000000,0.000000,-1,0.627285,-0.036586,0.071379,-0.345622,0.591279,-0.418681
"2019-04-16 11:01:38.977 +0000",1555412498.976924,-2.208799,-1.456636,0.344372,-0.091504,0.993491,0.067845,0.000000,0.000000,0.000000,-1,0.209233,-0.931480,-0.082748,-0.231830,0.156595,-0.318242
"2019-04-16 11:01:38.997 +0000",1555412498.996923,-2.184412,-1.454512,0.382796,-0.094856,0.993247,0.066809,0.000000,0.000000,0.000000,-1,0.146151,-0.571290,-0.266787,-0.045219,-0.455649,-0.191534
"2019-04-16 11:01:39.017 +0000",1555412499.016948,-2.116728,-1.454340,0.462417,-0.099304,0.993227,0.060329,0.000000,0.000000,0.000000,-1,0.504424,-0.627640,-0.224933,0.012130,-0.474153,-0.164058
"2019-04-16 11:01:39.037 +0000",1555412499.036936,-2.038641,-1.457221,0.553750,-0.101153,0.993557,0.051108,0.000000,0.000000,0.000000,-1,0.490568,-0.523354,-0.047964,0.123202,-0.324322,-0.067450
"2019-04-16 11:01:39.057 +0000",1555412499.056934,-1.985242,-1.463563,0.608830,-0.097967,0.994256,0.043098,0.000000,0.000000,0.000000,-1,0.370290,0.169720,0.272050,0.304662,-0.026528,-0.052818
"2019-04-16 11:01:39.077 +0000",1555412499.076945,-1.966125,-1.472482,0.624492,-0.090585,0.995171,0.037801,0.000000,0.000000,0.000000,-1,0.156874,0.069341,0.388742,0.387598,0.001853,-0.060949
"2019-04-16 11:01:39.097 +0000",1555412499.096945,-1.997290,-1.478505,0.596788,-0.083906,0.995744,0.038125,0.000000,0.000000,0.000000,-1,-0.056260,-0.289886,0.298321,0.301038,-0.017091,-0.060617
"2019-04-16 11:01:39.117 +0000",1555412499.116924,-2.021370,-1.482692,0.576563,-0.079208,0.996121,0.038318,0.000000,0.000000,0.000000,-1,0.033685,-0.106601,0.188648,0.085800,-0.136075,0.070599
"2019-04-16 11:01:39.137 +0000",1555412499.136948,-2.043199,-1.485243,0.553991,-0.076090,0.996343,0.038881,0.000000,0.000000,0.000000,-1,-0.094974,0.087540,0.147673,0.103601,-0.179738,0.111967
"2019-04-16 11:01:39.157 +0000",1555412499.156944,-2.104137,-1.485599,0.491757,-0.073276,0.996373,0.043263,0.000000,0.000000,0.000000,-1,-0.298529,0.001644,0.140760,0.097751,-0.312886,0.068767
"2019-04-16 11:01:39.177 +0000",1555412499.176943,-2.186142,-1.483613,0.412008,-0.071101,0.996202,0.050262,0.000000,0.000000,0.000000,-1,-0.322519,-0.187487,0.059259,0.033809,-0.300661,0.024445
"2019-04-16 11:01:39.197 +0000",1555412499.196946,-2.219397,-1.480455,0.387045,-0.071897,0.995922,0.054498,0.000000,0.000000,0.000000,-1,-0.076282,-0.590783,-0.155489,-0.011492,-0.246380,-0.007226
"2019-04-16 11:01:39.217 +0000",1555412499.216939,-2.184749,-1.476333,0.435963,-0.077097,0.995542,0.054340,0.000000,0.000000,0.000000,-1,0.109938,-0.696674,-0.365469,-0.009741,-0.179013,0.025632
"2019-04-16 11:01:39.237 +0000",1555412499.236937,-2.139212,-1.470634,0.490493,-0.084271,0.994988,0.053827,0.000000,0.000000,0.000000,-1,-0.020409,-0.222185,-0.367878,0.006817,-0.236214,-0.091303
"2019-04-16 11:01:39.257 +0000",1555412499.257000,-2.157874,-1.464276,0.469858,-0.088518,0.994332,0.058894,0.000000,0.000000,0.000000,-1,-0.408049,0.239380,-0.078085,0.041246,-0.291604,-0.141260
"2019-04-16 11:01:39.277 +0000",1555412499.276934,-2.258767,-1.457773,0.358654,-0.087129,0.993620,0.071614,0.000000,0.000000,0.000000,-1,-0.876942,0.627555,0.164756,0.120973,-0.333067,-0.085408
"2019-04-16 11:01:39.297 +0000",1555412499.296931,-2.393302,-1.444756,0.207895,-0.085529,0.992067,0.092125,0.000000,0.000000,0.000000,-1,-1.151334,0.738467,0.106937,-0.077450,-0.056536,0.086144
"2019-04-16 11:01:39.317 +0000",1555412499.316916,-2.480747,-1.429010,0.110110,-0.086735,0.989965,0.111562,0.000000,0.000000,0.000000,-1,-0.923275,0.322441,-0.115517,-0.213466,0.016260,0.129283
"2019-04-16 11:01:39.337 +0000",1555412499.336929,-2.505993,-1.411837,0.078158,-0.093971,0.987393,0.127379,0.000000,0.000000,0.000000,-1,-0.806460,0.367871,-0.444685,-0.341988,0.082355,0.097612
"2019-04-16 11:01:39.357 +0000",1555412499.356927,-2.505377,-1.389019,0.069863,-0.107410,0.983524,0.145408,0.000000,0.000000,0.000000,-1,-1.134688,0.421357,-0.718703,-0.147625,0.039044,-0.120887
"2019-04-16 11:01:39.377 +0000",1555412499.376946,-2.530455,-1.352354,0.037870,-0.124348,0.976236,0.177484,0.000000,0.000000,0.000000,-1,-2.030358,0.356983,-0.857075,0.023762,0.127890,-0.104440
"2019-04-16 11:01:39.397 +0000",1555412499.396925,-2.568312,-1.299260,-0.014945,-0.145476,0.963360,0.225332,0.000000,0.000000,0.000000,-1,-2.791275,0.766177,-1.006220,0.303038,0.276829,0.063883
"2019-04-16 11:01:39.417 +0000",1555412499.416922,-2.584968,-1.245236,-0.042874,-0.168979,0.947472,0.271558,0.000000,0.000000,0.000000,-1,-2.147368,0.362192,-1.126307,0.378040,0.606224,0.323047
"2019-04-16 11:01:39.437 +0000",1555412499.436937,-2.576897,-1.208725,-0.042222,-0.189560,0.935165,0.299221,0.000000,0.000000,0.000000,-1,-1.220864,0.453526,-0.844584,0.335937,0.703812,0.176288
"2019-04-16 11:01:39.457 +0000",1555412499.456926,-2.576325,-1.185788,-0.045072,-0.201169,0.926795,0.317146,0.000000,0.000000,0.000000,-1,-0.969884,-0.237465,-0.434365,0.201002,0.617516,-0.128166
"2019-04-16 11:01:39.477 +0000",1555412499.476917,-2.606099,-1.163155,-0.057862,-0.202292,0.918058,0.340950,0.000000,0.000000,0.000000,-1,-1.149495,-1.139271,-0.394579,0.159705,0.830538,0.186943
"2019-04-16 11:01:39.497 +0000",1555412499.496948,-2.625337,-1.141892,-0.057108,-0.205287,0.909422,0.361675,0.000000,0.000000,0.000000,-1,-0.675365,-0.826728,-0.688091,0.200496,0.866823,0.191639
"2019-04-16 11:01:39.517 +0000",1555412499.516945,-2.611816,-1.128196,-0.027803,-0.216432,0.903641,0.369580,0.000000,0.000000,0.000000,-1,-0.116775,-0.607977,-0.941122,0.249987,0.582428,0.020892
"2019-04-16 11:01:39.537 +0000",1555412499.536934,-2.593780,-1.117399,0.009858,-0.228132,0.898964,0.373925,0.000000,0.000000,0.000000,-1,-0.037651,-0.919314,-0.942456,0.256437,-0.209007,0.020408
"2019-04-16 11:01:39.557 +0000",1555412499.556947,-2.586609,-1.110792,0.036763,-0.233931,0.896050,0.377319,0.000000,0.000000,0.000000,-1,0.101650,-0.679936,-0.489303,0.272109,-0.477578,0.037537
"2019-04-16 11:01:39.577 +0000",1555412499.576940,-2.578730,-1.113482,0.049098,-0.235610,0.897242,0.373424,0.000000,0.000000,0.000000,-1,0.337035,0.122551,0.034783,0.314391,-0.758127,-0.058772
"2019-04-16 11:01:39.597 +0000",1555412499.596938,-2.572583,-1.123031,0.048259,-0.233274,0.901417,0.364734,0.000000,0.000000,0.000000,-1,0.439553,0.426721,0.360572,0.136487,-0.535771,-0.172565
"2019-04-16 11:01:39.617 +0000",1555412499.616947,-2.563358,-1.137297,0.047788,-0.229576,0.907501,0.351761,0.000000,0.000000,0.000000,-1,0.710241,0.534888,0.402488,0.114525,-0.545548,-0.149124
"2019-04-16 11:01:39.637 +0000",1555412499.636946,-2.544604,-1.158031,0.054582,-0.225505,0.916015,0.331759,0.000000,0.000000,0.000000,-1,1.077617,0.667686,0.518187,0.173823,-0.596023,-0.073809
"2019-04-16 11:01:39.657 +0000",1555412499.656947,-2.524578,-1.186980,0.062424,-0.216665,0.927242,0.305415,0.000000,0.000000,0.000000,-1,1.370162,0.593492,0.820539,0.172384,-0.575604,-0.099467
"2019-04-16 11:01:39.677 +0000",1555412499.676948,-2.514671,-1.221952,0.062861,-0.200525,0.939768,0.276812,0.000000,0.000000,0.000000,-1,1.422496,0.397571,1.124023,0.163309,-0.581217,-0.118792
"2019-04-16 11:01:39.697 +0000",1555412499.696946,-2.524450,-1.258762,0.046872,-0.177660,0.951711,0.250365,0.000000,0.000000,0.000000,-1,1.306880,0.221114,1.349647,0.110018,-0.549718,-0.117233
"2019-04-16 11:01:39.717 +0000",1555412499.716947,-2.539500,-1.294688,0.026297,-0.154400,0.962124,0.224675,0.000000,0.000000,0.000000,-1,1.299252,0.252088,1.168228,-0.083561,-0.313747,-0.056310
"2019-04-16 11:01:39.737 +0000",1555412499.736948,-2.540781,-1.325010,0.022105,-0.137551,0.969946,0.200708,0.000000,0.000000,0.000000,-1,1.145634,-0.021014,0.735138,-0.117133,-0.207465,-0.079797
"2019-04-16 11:01:39.757 +0000",1555412499.756937,-2.531342,-1.346239,0.039463,-0.127609,0.974893,0.182483,0.000000,0.000000,0.000000,-1,0.895577,-0.537511,0.269725,-0.187912,0.083564,-0.039874
"2019-04-16 11:01:39.777 +0000",1555412499.776946,-2.504676,-1.360325,0.083899,-0.124250,0.977932,0.167959,0.000000,0.000000,0.000000,-1,0.861840,-0.996914,-0.093694,-0.155383,0.159534,0.242609
"2019-04-16 11:01:39.797 +0000",1555412499.796922,-2.455955,-1.372944,0.150312,-0.124458,0.980491,0.152143,0.000000,0.000000,0.000000,-1,0.935292,-0.543012,-0.187396,-0.024834,0.068230,0.284777
"2019-04-16 11:01:39.817 +0000",1555412499.816946,-2.376127,-1.383476,0.233343,-0.129031,0.982507,0.134280,0.000000,0.000000,0.000000,-1,0.901628,0.099494,-0.234333,0.095035,-0.030114,0.158261
"2019-04-16 11:01:39.837 +0000",1555412499.836947,-2.302047,-1.395035,0.305823,-0.130154,0.984594,0.116770,0.000000,0.000000,0.000000,-1,0.849153,0.108051,0.109556,0.214184,0.046519,0.146795
"2019-04-16 11:01:39.857 +0000",1555412499.856946,-2.261191,-1.411850,0.348124,-0.122031,0.987395,0.100798,0.000000,0.000000,0.000000,-1,0.787174,-0.121053,0.604640,0.284843,0.109483,0.214296
"2019-04-16 11:01:39.877 +0000",1555412499.876947,-2.294750,-1.433125,0.311495,-0.102817,0.990538,0.090899,0.000000,0.000000,0.000000,-1,0.206946,0.415470,1.187515,0.443668,0.372285,0.343992
"2019-04-16 11:01:39.897 +0000",1555412499.896947,-2.431131,-1.447984,0.155890,-0.079895,0.992468,0.092865,0.000000,0.000000,0.000000,-1,-0.233469,1.133366,1.151457,0.684173,0.580194,-0.202805
"2019-04-16 11:01:39.917 +0000",1555412499.916947,-2.506472,-1.462146,0.067728,-0.064333,0.994103,0.087291,0.000000,0.000000,0.000000,-1,0.542760,-0.064949,0.612237,0.642732,0.507667,-0.490734
"2019-04-16 11:01:39.937 +0000",1555412499.936948,-2.505839,-1.475824,0.097218,-0.056308,0.995494,0.076302,0.000000,0.000000,0.000000,-1,0.531051,-1.980358,0.158525,0.568531,0.607015,-0.538872
"2019-04-16 11:01:39.957 +0000",1555412499.956948,-2.519931,-1.475665,0.107534,-0.055320,0.995478,0.077217,0.000000,0.000000,0.000000,-1,-0.290533,-0.388399,-0.180481,0.020179,0.410314,-0.107475
"2019-04-16 11:01:39.977 +0000",1555412499.976946,-2.500091,-1.466331,0.112432,-0.062398,0.994548,0.083545,0.000000,0.000000,0.000000,-1,-0.167047,0.958945,-0.286765,-0.039531,0.349842,0.097791
"2019-04-16 11:01:39.997 +0000",1555412499.996917,-2.394043,-1.474485,0.213380,-0.065375,0.995366,0.070521,0.000000,0.000000,0.000000,-1,0.939181,0.137885,-0.108968,-0.053491,0.503871,0.339315
"2019-04-16 11:01:40.017 +0000",1555412500.016933,-2.249744,-1.481890,0.350341,-0.069098,0.996050,0.055757,0.000000,0.000000,0.000000,-1,0.509819,0.392414,-0.175062,-0.169717,0.565763,-0.242738
"2019-04-16 11:01:40.037 +0000",1555412500.036944,-2.171052,-1.483480,0.429388,-0.071961,0.996190,0.049258,0.000000,0.000000,0.000000,-1,0.259028,-0.217784,-0.085852,-0.126617,0.298030,-0.198489
"2019-04-16 11:01:40.057 +0000",1555412500.056947,-2.151839,-1.485868,0.454460,-0.070906,0.996396,0.046561,0.000000,0.000000,0.000000,-1,0.092201,-0.336227,0.062355,0.052092,-0.166272,-0.218833
"2019-04-16 11:01:40.077 +0000",1555412500.076940,-2.153713,-1.487488,0.462457,-0.069471,0.996532,0.045805,0.000000,0.000000,0.000000,-1,0.091668,-0.581061,0.056852,0.140302,-0.333659,-0.201262
"2019-04-16 11:01:40.097 +0000",1555412500.096929,-2.149683,-1.491454,0.478435,-0.066345,0.996854,0.043362,0.000000,0.000000,0.000000,-1,0.217941,-0.528357,0.184366,0.176758,-0.373319,-0.007138
"2019-04-16 11:01:40.117 +0000",1555412500.116947,-2.119964,-1.499355,0.513481,-0.060885,0.997449,0.037259,0.000000,0.000000,0.000000,-1,0.373547,-0.103492,0.301833,0.207598,-0.234998,0.101947
"2019-04-16 11:01:40.137 +0000",1555412500.136948,-2.084928,-1.507636,0.548371,-0.054958,0.998006,0.031040,0.000000,0.000000,0.000000,-1,0.230304,0.017548,0.280891,0.166606,-0.045079,0.003994
"2019-04-16 11:01:40.157 +0000",1555412500.156937,-2.086564,-1.513247,0.548919,-0.050035,0.998344,0.028368,0.000000,0.000000,0.000000,-1,0.124912,-0.166489,0.221825,0.112901,-0.064659,0.027662
"2019-04-16 11:01:40.177 +0000",1555412500.176947,-2.064849,-1.517214,0.574634,-0.047152,0.998565,0.025397,0.000000,0.000000,0.000000,-1,0.172000,-0.203557,0.080526,0.024371,-0.048369,0.050760
"2019-04-16 11:01:40.197 +0000",1555412500.196946,-2.025102,-1.518004,0.616885,-0.047415,0.998607,0.023156,0.000000,0.000000,0.000000,-1,0.046373,-0.042668,-0.074573,-0.040049,-0.053600,0.140174
"2019-04-16 11:01:40.217 +0000",1555412500.216931,-2.041701,-1.513446,0.598133,-0.051080,0.998356,0.026005,0.000000,0.000000,0.000000,-1,-0.274404,0.177064,-0.231047,-0.028097,-0.060642,0.180873
"2019-04-16 11:01:40.237 +0000",1555412500.236946,-2.118946,-1.505575,0.520191,-0.055626,0.997874,0.033963,0.000000,0.000000,0.000000,-1,-0.433051,-0.155540,-0.192750,0.024299,-0.130137,0.062244
"2019-04-16 11:01:40.257 +0000",1555412500.256946,-2.223225,-1.498462,0.425912,-0.057427,0.997385,0.043877,0.000000,0.000000,0.000000,-1,-0.510078,-0.659400,-0.095926,0.098168,-0.300791,-0.075112
"2019-04-16 11:01:40.277 +0000",1555412500.276942,-2.335731,-1.487007,0.326261,-0.060377,0.996492,0.057955,0.000000,0.000000,0.000000,-1,-0.784086,-0.618666,-0.241257,0.030073,-0.446061,-0.032183
"2019-04-16 11:01:40.297 +0000",1555412500.296947,-2.453799,-1.471783,0.218192,-0.062755,0.995102,0.076378,0.000000,0.000000,0.000000,-1,-0.924005,-0.469537,-0.037060,0.081828,-0.444565,-0.019752
"2019-04-16 11:01:40.317 +0000",1555412500.316947,-2.564527,-1.458858,0.114396,-0.060943,0.993741,0.093616,0.000000,0.000000,0.000000,-1,-0.753632,-0.265343,0.056980,0.115096,-0.337064,0.032482
"2019-04-16 11:01:40.337 +0000",1555412500.336923,-2.621020,-1.451021,0.060011,-0.059432,0.992835,0.103662,0.000000,0.000000,0.000000,-1,-0.337384,-0.096270,0.117855,0.071562,-0.016319,-0.006814
"2019-04-16 11:01:40.357 +0000",1555412500.356947,-2.653402,-1.450874,0.026813,-0.056112,0.992818,0.105660,0.000000,0.000000,0.000000,-1,0.016659,0.151637,0.147056,0.068243,-0.016301,-0.008812
"2019-04-16 11:01:40.377 +0000",1555412500.376947,-2.641418,-1.451302,0.032960,-0.057171,0.992869,0.104607,0.000000,0.000000,0.000000,-1,-0.002905,0.323071,-0.136826,-0.111713,0.108358,-0.072197
"2019-04-16 11:01:40.397 +0000",1555412500.396917,-2.604477,-1.443986,0.064707,-0.064710,0.991970,0.108662,0.000000,0.000000,0.000000,-1,-0.394328,0.237733,-0.491744,-0.326175,0.067051,0.057461
"2019-04-16 11:01:40.417 +0000",1555412500.416947,-2.577679,-1.424441,0.086299,-0.077948,0.989309,0.123254,0.000000,0.000000,0.000000,-1,-0.975624,0.320871,-0.656956,-0.322977,0.032267,0.090842
"2019-04-16 11:01:40.437 +0000",1555412500.436946,-2.600278,-1.395318,0.058375,-0.089954,0.984643,0.149620,0.000000,0.000000,0.000000,-1,-1.598278,0.143098,-0.490050,-0.262264,-0.134423,0.034920
"2019-04-16 11:01:40.457 +0000",1555412500.456943,-2.665878,-1.355484,-0.011774,-0.097847,0.976910,0.189929,0.000000,0.000000,0.000000,-1,-2.378718,0.301410,-0.347328,0.196449,-0.061672,0.101208
"2019-04-16 11:01:40.477 +0000",1555412500.476915,-2.719666,-1.302782,-0.082819,-0.108448,0.964299,0.241593,0.000000,0.000000,0.000000,-1,-2.847991,0.994847,-0.399770,0.314014,0.090343,0.145141
"2019-04-16 11:01:40.497 +0000",1555412500.496919,-2.734491,-1.253393,-0.117042,-0.123576,0.950049,0.286594,0.000000,0.000000,0.000000,-1,-2.097225,0.830915,-0.680480,0.419047,0.565408,0.286832
"2019-04-16 11:01:40.517 +0000",1555412500.516938,-2.713674,-1.221474,-0.116093,-0.142031,0.939605,0.311400,0.000000,0.000000,0.000000,-1,-1.165998,0.993378,-0.504255,0.229235,0.672456,-0.182692
"2019-04-16 11:01:40.537 +0000",1555412500.536921,-2.721697,-1.195173,-0.131274,-0.149553,0.930279,0.334985,0.000000,0.000000,0.000000,-1,-1.508849,-0.136397,-0.212818,0.256715,0.589084,-0.216805
"2019-04-16 11:01:40.557 +0000",1555412500.556946,-2.757784,-1.162234,-0.157819,-0.148767,0.917693,0.368385,0.000000,0.000000,0.000000,-1,-1.726941,-0.769034,-0.204278,0.310526,0.351472,-0.077782
"2019-04-16 11:01:40.577 +0000",1555412500.576915,-2.792669,-1.132092,-0.171155,-0.145222,0.905303,0.399171,0.000000,0.000000,0.000000,-1,-1.326168,-1.246786,-0.318972,0.309544,0.429322,0.040374
"2019-04-16 11:01:40.597 +0000",1555412500.596947,-2.809805,-1.109851,-0.168165,-0.144885,0.895632,0.420537,0.000000,0.000000,0.000000,-1,-0.857213,-0.763846,-0.512164,0.359500,0.563734,0.153651
"2019-04-16 11:01:40.617 +0000",1555412500.616946,-2.798181,-1.095967,-0.148181,-0.153935,0.889371,0.430492,0.000000,0.000000,0.000000,-1,-0.281783,-0.071329,-0.739065,0.361775,0.503894,0.188450
"2019-04-16 11:01:40.637 +0000",1555412500.636929,-2.769735,-1.091836,-0.118367,-0.167451,0.887474,0.429359,0.000000,0.000000,0.000000,-1,0.231547,0.140147,-0.632124,0.306169,0.169838,0.120567
"2019-04-16 11:01:40.657 +0000",1555412500.656778,-2.745046,-1.097206,-0.092994,-0.176156,0.889937,0.420693,0.000000,0.000000,0.000000,-1,0.580721,0.071993,-0.324781,0.245431,-0.119474,-0.061516
"2019-04-16 11:01:40.677 +0000",1555412500.676780,-2.728152,-1.108891,-0.073133,-0.179047,0.895205,0.408106,0.000000,0.000000,0.000000,-1,0.770409,-0.159905,-0.103845,0.170869,-0.371828,-0.283792
"2019-04-16 11:01:40.697 +0000",1555412500.696753,-2.725433,-1.123177,-0.061225,-0.174968,0.901480,0.395878,0.000000,0.000000,0.000000,-1,0.722942,-0.498360,0.143872,0.158229,-0.637106,-0.393834
"2019-04-16 11:01:40.717 +0000",1555412500.716780,-2.736297,-1.138145,-0.062563,-0.165318,0.907857,0.385312,0.000000,0.000000,0.000000,-1,0.680730,-0.453089,0.447380,0.192677,-0.852346,-0.272061
"2019-04-16 11:01:40.737 +0000",1555412500.736782,-2.757134,-1.160637,-0.078940,-0.149556,0.917057,0.369647,0.000000,0.000000,0.000000,-1,1.095758,-0.164222,0.932874,0.233068,-0.787022,-0.091297
"2019-04-16 11:01:40.757 +0000",1555412500.756763,-2.787426,-1.194169,-0.112684,-0.127552,0.929910,0.344960,0.000000,0.000000,0.000000,-1,1.434573,0.135064,1.351269,0.228794,-0.549600,-0.086339
"2019-04-16 11:01:40.777 +0000",1555412500.776780,-2.833761,-1.233176,-0.165156,-0.100364,0.943546,0.315671,0.000000,0.000000,0.000000,-1,1.602345,0.103118,1.547524,0.218620,-0.380176,-0.109754
"2019-04-16 11:01:40.797 +0000",1555412500.796781,-2.889272,-1.271877,-0.222959,-0.073519,0.955655,0.285163,0.000000,0.000000,0.000000,-1,1.571516,-0.166273,1.236537,0.175479,-0.126615,-0.148032
"2019-04-16 11:01:40.817 +0000",1555412500.816781,-2.930647,-1.303201,-0.252049,-0.055364,0.964410,0.258552,0.000000,0.000000,0.000000,-1,1.348283,-0.976110,0.449121,0.025838,0.128257,-0.156058
"2019-04-16 11:01:40.837 +0000",1555412500.836780,-2.933912,-1.329000,-0.233669,-0.049372,0.970909,0.234302,0.000000,0.000000,0.000000,-1,1.304059,-0.927049,-0.128504,-0.039129,0.166755,0.044140
"2019-04-16 11:01:40.857 +0000",1555412500.856780,-2.907385,-1.351543,-0.196276,-0.050476,0.976060,0.211563,0.000000,0.000000,0.000000,-1,1.172730,-0.282287,-0.131883,-0.096436,-0.171037,0.241028
"2019-04-16 11:01:40.877 +0000",1555412500.876782,-2.879393,-1.371738,-0.163460,-0.051257,0.980253,0.190987,0.000000,0.000000,0.000000,-1,0.996197,-0.173510,-0.035917,0.004458,-0.305098,0.117088
"2019-04-16 11:01:40.897 +0000",1555412500.896781,-2.862144,-1.389811,-0.142744,-0.049648,0.983667,0.173016,0.000000,0.000000,0.000000,-1,0.880251,-0.174018,0.126883,0.199200,-0.224298,-0.009960
"2019-04-16 11:01:40.917 +0000",1555412500.916781,-2.858237,-1.406765,-0.136373,-0.045654,0.986577,0.156785,0.000000,0.000000,0.000000,-1,0.806121,-0.002648,0.176190,0.282318,-0.186803,0.144134
"2019-04-16 11:01:40.937 +0000",1555412500.936781,-2.847500,-1.421550,-0.127964,-0.043102,0.988883,0.142308,0.000000,0.000000,0.000000,-1,0.665083,0.126879,0.154215,0.167705,-0.065345,0.280375
"2019-04-16 11:01:40.957 +0000",1555412500.956781,-2.859005,-1.432074,-0.139057,-0.038558,0.990393,0.132794,0.000000,0.000000,0.000000,-1,0.344378,-0.160843,0.293953,0.207244,-0.076300,0.231235
"2019-04-16 11:01:40.977 +0000",1555412500.976750,-2.913391,-1.435621,-0.189993,-0.030487,0.990878,0.131270,0.000000,0.000000,0.000000,-1,-0.069005,-0.110709,0.418869,0.331177,0.074323,0.232743
"2019-04-16 11:01:40.997 +0000",1555412500.996781,-2.952433,-1.435063,-0.237456,-0.025444,0.990802,0.132903,0.000000,0.000000,0.000000,-1,0.021661,0.805651,0.202008,0.378121,0.518628,0.253739
"2019-04-16 11:01:41.017 +0000",1555412501.016772,-2.953805,-1.450232,-0.251150,-0.022453,0.992741,0.118158,0.000000,0.000000,0.000000,-1,1.178198,-0.002103,0.271648,0.276436,0.770092,-0.629815
"2019-04-16 11:01:41.037 +0000",1555412501.036780,-2.953309,-1.473028,-0.229208,-0.018270,0.995225,0.095887,0.000000,0.000000,0.000000,-1,0.801090,-1.252602,-0.058262,0.266775,0.887069,-0.542344
"2019-04-16 11:01:41.057 +0000",1555412501.056780,-2.920784,-1.468177,-0.195674,-0.022436,0.994739,0.099952,0.000000,0.000000,0.000000,-1,-0.677656,0.728925,-0.243224,0.172232,0.253369,0.138070
"2019-04-16 11:01:41.077 +0000",1555412501.076781,-2.875919,-1.460806,-0.159312,-0.028821,0.993957,0.105918,0.000000,0.000000,0.000000,-1,0.156936,-0.095673,-0.265161,0.105008,0.235337,0.210885
"2019-04-16 11:01:41.097 +0000",1555412501.096780,-2.821854,-1.470695,-0.101553,-0.031411,0.994994,0.094869,0.000000,0.000000,0.000000,-1,0.620909,0.079029,-0.054334,0.037469,0.771302,0.081355
"2019-04-16 11:01:41.117 +0000",1555412501.116754,-2.784731,-1.477950,-0.073327,-0.032388,0.995693,0.086871,0.000000,0.000000,0.000000,-1,0.234273,0.449124,-0.038737,-0.236350,0.422413,-0.166919
"2019-04-16 11:01:41.137 +0000",1555412501.136780,-2.780071,-1.481913,-0.073091,-0.031396,0.996053,0.083028,0.000000,0.000000,0.000000,-1,0.209371,0.064238,0.164434,-0.131537,0.054363,-0.141317
"2019-04-16 11:01:41.157 +0000",1555412501.156782,-2.782390,-1.488043,-0.068008,-0.029057,0.996578,0.077383,0.000000,0.000000,0.000000,-1,0.348442,-0.591802,0.023892,0.033528,-0.324886,-0.284140
"2019-04-16 11:01:41.177 +0000",1555412501.176780,-2.743447,-1.495619,-0.015376,-0.029119,0.997176,0.069232,0.000000,0.000000,0.000000,-1,0.479373,-0.648100,-0.071552,0.099249,-0.355070,-0.132739
"2019-04-16 11:01:41.197 +0000",1555412501.196781,-2.671248,-1.506652,0.062201,-0.029050,0.997943,0.057140,0.000000,0.000000,0.000000,-1,0.688346,0.082884,0.045731,0.131070,-0.230457,0.010594
"2019-04-16 11:01:41.217 +0000",1555412501.216780,-2.605997,-1.519933,0.115112,-0.025947,0.998707,0.043722,0.000000,0.000000,0.000000,-1,0.575629,0.834626,0.289076,0.246009,-0.058033,0.070704
"2019-04-16 11:01:41.237 +0000",1555412501.236754,-2.656228,-1.528604,0.050122,-0.019678,0.999110,0.037309,0.000000,0.000000,0.000000,-1,0.127010,0.612697,0.332293,0.205088,-0.007853,0.012298
"2019-04-16 11:01:41.257 +0000",1555412501.256780,-2.784908,-1.530075,-0.089931,-0.014215,0.999171,0.038148,0.000000,0.000000,0.000000,-1,-0.101011,0.594243,0.251510,0.092706,0.006933,0.050659
"2019-04-16 11:01:41.277 +0000",1555412501.276779,-2.845709,-1.528493,-0.167362,-0.012331,0.999105,0.040452,0.000000,0.000000,0.000000,-1,-0.158531,0.960573,0.049412,0.006258,-0.014929,0.134474
"2019-04-16 11:01:41.297 +0000",1555412501.296782,-2.836189,-1.522614,-0.177630,-0.014481,0.998839,0.045934,0.000000,0.000000,0.000000,-1,-0.384436,0.951602,-0.131609,0.026917,-0.139465,0.171901
"2019-04-16 11:01:41.317 +0000",1555412501.316762,-2.824617,-1.511631,-0.179909,-0.018431,0.998250,0.056185,0.000000,0.000000,0.000000,-1,-0.607920,0.418640,-0.158273,0.055693,-0.194921,0.090162
"2019-04-16 11:01:41.337 +0000",1555412501.336752,-2.839251,-1.497950,-0.195736,-0.021671,0.997348,0.069480,0.000000,0.000000,0.000000,-1,-0.682017,-0.129077,-0.172380,-0.010983,-0.261340,-0.049125
"2019-04-16 11:01:41.357 +0000",1555412501.356780,-2.844782,-1.484156,-0.195672,-0.025308,0.996249,0.082749,0.000000,0.000000,0.000000,-1,-0.629213,-0.293912,-0.221954,-0.134375,-0.377627,-0.026016
"2019-04-16 11:01:41.377 +0000",1555412501.376746,-2.829122,-1.471544,-0.175883,-0.030461,0.995079,0.094292,0.000000,0.000000,0.000000,-1,-0.552623,-0.167833,-0.316901,-0.150538,-0.391731,-0.023705
"2019-04-16 11:01:41.397 +0000",1555412501.396775,-2.808703,-1.460911,-0.149533,-0.035836,0.993969,0.103644,0.000000,0.000000,0.000000,-1,-0.387981,-0.396147,-0.263756,-0.136131,-0.370632,-0.088050
"2019-04-16 11:01:41.417 +0000",1555412501.416780,-2.804126,-1.453081,-0.136447,-0.038886,0.993079,0.110820,0.000000,0.000000,0.000000,-1,-0.321623,-0.395490,-0.164774,-0.115060,-0.294593,-0.112331
"2019-04-16 11:01:41.437 +0000",1555412501.436759,-2.809573,-1.448350,-0.137030,-0.039812,0.992513,0.115470,0.000000,0.000000,0.000000,-1,-0.166541,-0.131802,0.003782,-0.042921,-0.117024,-0.132697
"2019-04-16 11:01:41.457 +0000",1555412501.456783,-2.829702,-1.444238,-0.156588,-0.038732,0.992002,0.120131,0.000000,0.000000,0.000000,-1,-0.308067,-0.004917,0.029801,-0.142375,0.128268,-0.004500
"2019-04-16 11:01:41.477 +0000",1555412501.476780,-2.837835,-1.436351,-0.166932,-0.040093,0.990976,0.127905,0.000000,0.000000,0.000000,-1,-0.435995,0.179780,-0.092242,-0.191200,0.168479,0.020289
"2019-04-16 11:01:41.497 +0000",1555412501.496781,-2.836813,-1.424749,-0.171407,-0.043671,0.989354,0.138822,0.000000,0.000000,0.000000,-1,-0.677852,0.333879,-0.168819,-0.232269,0.126613,0.033007
"2019-04-16 11:01:41.517 +0000",1555412501.516757,-2.841437,-1.404666,-0.185295,-0.048894,0.986232,0.157974,0.000000,0.000000,0.000000,-1,-1.214601,0.513633,-0.233128,-0.081737,0.088872,-0.039825
"2019-04-16 11:01:41.537 +0000",1555412501.536780,-2.859534,-1.367838,-0.214310,-0.056103,0.979475,0.193602,0.000000,0.000000,0.000000,-1,-2.260392,0.505642,-0.280567,0.020382,0.104998,-0.073684
"2019-04-16 11:01:41.557 +0000",1555412501.556765,-2.893740,-1.308702,-0.260090,-0.063564,0.965849,0.251186,0.000000,0.000000,0.000000,-1,-3.385645,0.575904,-0.235093,0.239361,0.301515,-0.062053
"2019-04-16 11:01:41.577 +0000",1555412501.576758,-2.910435,-1.244864,-0.283003,-0.073357,0.947353,0.311675,0.000000,0.000000,0.000000,-1,-2.767995,0.042668,-0.599879,0.329385,0.436711,0.239686
"2019-04-16 11:01:41.597 +0000",1555412501.596771,-2.905918,-1.203588,-0.283104,-0.083829,0.933333,0.349087,0.000000,0.000000,0.000000,-1,-1.674988,0.354732,-0.362828,0.321774,0.385408,0.147220
"2019-04-16 11:01:41.617 +0000",1555412501.616755,-2.904038,-1.170028,-0.283200,-0.091807,0.920762,0.379170,0.000000,0.000000,0.000000,-1,-1.687223,-0.136618,-0.434780,0.244899,0.430725,-0.097920
"2019-04-16 11:01:41.637 +0000",1555412501.636758,-2.907887,-1.136533,-0.279940,-0.097437,0.907180,0.409304,0.000000,0.000000,0.000000,-1,-1.438949,-0.258769,-0.445571,0.436533,0.645981,0.212965
"2019-04-16 11:01:41.657 +0000",1555412501.656780,-2.893666,-1.116565,-0.269228,-0.107672,0.898599,0.425355,0.000000,0.000000,0.000000,-1,-0.626467,0.439953,-0.540380,0.443244,0.582099,0.202803
"2019-04-16 11:01:41.677 +0000",1555412501.676757,-2.861085,-1.106058,-0.238866,-0.124078,0.893939,0.430672,0.000000,0.000000,0.000000,-1,-0.187139,0.082498,-0.907316,0.386224,0.458524,0.039406
"2019-04-16 11:01:41.697 +0000",1555412501.696754,-2.825135,-1.099594,-0.194449,-0.141273,0.891023,0.431416,0.000000,0.000000,0.000000,-1,0.038789,-0.366772,-1.153288,0.265983,0.207762,-0.029622
"2019-04-16 11:01:41.717 +0000",1555412501.716765,-2.794887,-1.093051,-0.146608,-0.156233,0.888034,0.432420,0.000000,0.000000,0.000000,-1,0.061368,-0.687286,-1.061476,0.236189,0.087888,-0.034532
"2019-04-16 11:01:41.737 +0000",1555412501.736752,-2.777027,-1.090506,-0.112524,-0.164736,0.886861,0.431671,0.000000,0.000000,0.000000,-1,0.220549,-0.640456,-0.588997,0.144183,-0.203023,-0.076950
"2019-04-16 11:01:41.757 +0000",1555412501.756778,-2.774523,-1.093803,-0.096528,-0.164766,0.888379,0.428525,0.000000,0.000000,0.000000,-1,0.322452,-0.542228,-0.124679,0.150774,-0.453931,-0.196210
"2019-04-16 11:01:41.777 +0000",1555412501.776780,-2.780530,-1.102482,-0.092611,-0.159459,0.892331,0.422278,0.000000,0.000000,0.000000,-1,0.530790,-0.451058,0.160711,0.187917,-0.445828,-0.181906
"2019-04-16 11:01:41.797 +0000",1555412501.796777,-2.791564,-1.117300,-0.093548,-0.150239,0.898921,0.411545,0.000000,0.000000,0.000000,-1,0.781731,-0.530582,0.343058,0.173585,-0.412990,-0.191605
"2019-04-16 11:01:41.817 +0000",1555412501.816774,-2.804841,-1.138092,-0.097529,-0.138556,0.907835,0.395775,0.000000,0.000000,0.000000,-1,1.042706,-0.455307,0.480834,0.214895,-0.431410,-0.182106
"2019-04-16 11:01:41.837 +0000",1555412501.836781,-2.821160,-1.163534,-0.105575,-0.124762,0.918209,0.375936,0.000000,0.000000,0.000000,-1,1.204900,-0.450647,0.617306,0.240698,-0.466030,-0.163167
"2019-04-16 11:01:41.857 +0000",1555412501.856749,-2.843507,-1.192219,-0.120481,-0.108548,0.929191,0.353300,0.000000,0.000000,0.000000,-1,1.323507,-0.400888,0.761788,0.248776,-0.521324,-0.102949
"2019-04-16 11:01:41.877 +0000",1555412501.876765,-2.870412,-1.223747,-0.143245,-0.091109,0.940380,0.327695,0.000000,0.000000,0.000000,-1,1.439481,-0.185696,0.853010,0.216002,-0.561413,-0.048001
"2019-04-16 11:01:41.897 +0000",1555412501.896780,-2.891584,-1.256369,-0.165490,-0.076518,0.950974,0.299657,0.000000,0.000000,0.000000,-1,1.505087,0.088481,0.672684,0.137034,-0.485993,-0.108815
"2019-04-16 11:01:41.917 +0000",1555412501.916777,-2.894615,-1.287374,-0.169976,-0.068366,0.960104,0.271157,0.000000,0.000000,0.000000,-1,1.447946,-0.026910,0.317730,0.078070,-0.414602,-0.115396
"2019-04-16 11:01:41.937 +0000",1555412501.936774,-2.886250,-1.312975,-0.156875,-0.064401,0.966948,0.246708,0.000000,0.000000,0.000000,-1,1.148278,-0.296874,0.068394,-0.064856,-0.161574,-0.087558
"2019-04-16 11:01:41.957 +0000",1555412501.956779,-2.876254,-1.329895,-0.139281,-0.062564,0.971123,0.230229,0.000000,0.000000,0.000000,-1,0.726373,-0.385268,-0.013833,-0.084027,-0.161172,-0.057392
"2019-04-16 11:01:41.977 +0000",1555412501.976760,-2.868178,-1.342949,-0.120870,-0.060992,0.974155,0.217491,0.000000,0.000000,0.000000,-1,0.747926,-0.547428,-0.035002,-0.111188,-0.188892,0.082177
"2019-04-16 11:01:41.997 +0000",1555412501.996775,-2.849676,-1.363841,-0.090111,-0.059135,0.978661,0.196788,0.000000,0.000000,0.000000,-1,1.330435,-0.542033,-0.036072,-0.045082,-0.071541,0.076253
"2019-04-16 11:01:42.017 +0000",1555412502.016780,-2.793894,-1.392173,-0.027963,-0.060540,0.984089,0.167042,0.000000,0.000000,0.000000,-1,1.546773,-0.041772,-0.174862,-0.012473,0.013317,0.092876
"2019-04-16 11:01:42.037 +0000",1555412502.036779,-2.704952,-1.413038,0.054731,-0.066439,0.987582,0.142365,0.000000,0.000000,0.000000,-1,0.976020,0.595493,-0.270234,0.147997,0.270917,0.284515
"2019-04-16 11:01:42.057 +0000",1555412502.056752,-2.628644,-1.421868,0.117152,-0.072816,0.988931,0.129282,0.000000,0.000000,0.000000,-1,0.468485,0.768538,-0.158167,0.650972,1.146934,0.424902
"2019-04-16 11:01:42.077 +0000",1555412502.076779,-2.586411,-1.437461,0.135389,-0.070073,0.991124,0.112974,0.000000,0.000000,0.000000,-1,1.062809,1.414669,0.597591,0.752797,1.189967,-0.265119
"2019-04-16 11:01:42.097 +0000",1555412502.096751,-2.536339,-1.462475,0.182055,-0.061512,0.994139,0.088905,0.000000,0.000000,0.000000,-1,1.007605,-0.705503,0.079187,0.728107,1.027635,-0.661415
"2019-04-16 11:01:42.117 +0000",1555412502.116749,-2.486481,-1.460107,0.248044,-0.067300,0.993880,0.087596,0.000000,0.000000,0.000000,-1,-0.462233,-0.261243,-0.330695,0.136651,0.008821,-0.218730
"2019-04-16 11:01:42.137 +0000",1555412502.136780,-2.591735,-1.444431,0.127384,-0.065858,0.992027,0.107452,0.000000,0.000000,0.000000,-1,-1.127315,0.820775,0.345334,0.150484,-0.089011,-0.047165
"2019-04-16 11:01:42.157 +0000",1555412502.156767,-2.645555,-1.445851,0.079507,-0.059312,0.992204,0.109601,0.000000,0.000000,0.000000,-1,0.590927,-0.756966,0.251996,0.186281,0.086714,0.238971
"2019-04-16 11:01:42.177 +0000",1555412502.176766,-2.560045,-1.458077,0.161901,-0.061788,0.993654,0.093991,0.000000,0.000000,0.000000,-1,0.719954,0.845175,-0.466401,-0.202128,1.431044,0.052448
"2019-04-16 11:01:42.197 +0000",1555412502.196779,-2.338385,-1.459597,0.371322,-0.079853,0.993824,0.077058,0.000000,0.000000,0.000000,-1,0.794283,0.224298,-0.736815,-0.209149,0.517193,-0.259065
"2019-04-16 11:01:42.217 +0000",1555412502.216773,-2.268337,-1.463171,0.446650,-0.082328,0.994214,0.068998,0.000000,0.000000,0.000000,-1,0.212330,-0.319292,0.039462,-0.042550,0.019824,-0.170225
"2019-04-16 11:01:42.237 +0000",1555412502.236770,-2.268957,-1.466427,0.455418,-0.079805,0.994559,0.066968,0.000000,0.000000,0.000000,-1,0.169259,-0.608757,0.199797,0.224656,-0.493536,-0.370923
"2019-04-16 11:01:42.257 +0000",1555412502.256753,-2.299160,-1.477448,0.437770,-0.069561,0.995646,0.062047,0.000000,0.000000,0.000000,-1,0.368150,-0.514321,0.578941,0.252072,-0.452555,-0.147099
"2019-04-16 11:01:42.277 +0000",1555412502.276768,-2.312550,-1.492797,0.424118,-0.057449,0.996960,0.052642,0.000000,0.000000,0.000000,-1,0.536828,0.315092,0.623239,0.243622,-0.120678,0.136537
"2019-04-16 11:01:42.297 +0000",1555412502.296765,-2.291423,-1.509238,0.436000,-0.046226,0.998106,0.040595,0.000000,0.000000,0.000000,-1,0.557111,0.469076,0.513728,0.273139,0.222124,-0.086615
"2019-04-16 11:01:42.317 +0000",1555412502.316779,-2.228974,-1.520827,0.490066,-0.039514,0.998752,0.030552,0.000000,0.000000,0.000000,-1,0.481505,0.434620,0.244996,0.199167,0.103345,-0.076038
"2019-04-16 11:01:42.337 +0000",1555412502.336763,-2.072802,-1.526704,0.636530,-0.038640,0.999028,0.021210,0.000000,0.000000,0.000000,-1,0.408025,0.559810,-0.021468,0.134588,-0.042241,-0.022889
"2019-04-16 11:01:42.357 +0000",1555412502.356760,-1.942864,-1.528055,0.752730,-0.039805,0.999087,0.015534,0.000000,0.000000,0.000000,-1,0.135932,0.752039,-0.039734,0.128291,-0.230883,0.089508
"2019-04-16 11:01:42.377 +0000",1555412502.376778,-1.954911,-1.527320,0.726067,-0.040296,0.999055,0.016287,0.000000,0.000000,0.000000,-1,-0.166174,0.699306,0.000124,0.073728,-0.275819,0.108270
"2019-04-16 11:01:42.397 +0000",1555412502.396756,-2.054314,-1.525495,0.612727,-0.040094,0.998974,0.021053,0.000000,0.000000,0.000000,-1,-0.316110,0.693256,0.029149,-0.038137,-0.288815,0.118519
"2019-04-16 11:01:42.417 +0000",1555412502.416755,-2.170323,-1.522501,0.483831,-0.039857,0.998834,0.027240,0.000000,0.000000,0.000000,-1,-0.309383,0.577169,0.025957,-0.053985,-0.223169,0.012006
"2019-04-16 11:01:42.437 +0000",1555412502.436779,-2.239362,-1.519757,0.406271,-0.040032,0.998698,0.031622,0.000000,0.000000,0.000000,-1,-0.226043,0.347214,-0.022205,-0.047172,-0.180934,0.031137
"2019-04-16 11:01:42.457 +0000",1555412502.456753,-2.308044,-1.513356,0.328874,-0.042501,0.998351,0.038593,0.000000,0.000000,0.000000,-1,-0.454223,0.544195,-0.156183,-0.041072,-0.075118,0.109616
"2019-04-16 11:01:42.477 +0000",1555412502.476750,-2.381287,-1.503426,0.242648,-0.046392,0.997732,0.048781,0.000000,0.000000,0.000000,-1,-0.582214,0.595242,-0.146042,-0.063898,-0.295766,-0.067381
"2019-04-16 11:01:42.497 +0000",1555412502.496779,-2.469917,-1.491755,0.146725,-0.049136,0.996878,0.061808,0.000000,0.000000,0.000000,-1,-0.721750,0.222956,-0.122463,-0.088544,-0.339468,-0.101511
"2019-04-16 11:01:42.517 +0000",1555412502.516775,-2.543329,-1.477177,0.072249,-0.052650,0.995621,0.077246,0.000000,0.000000,0.000000,-1,-0.803104,-0.070033,-0.201563,-0.109093,-0.353943,-0.124441
"2019-04-16 11:01:42.537 +0000",1555412502.536774,-2.597386,-1.460801,0.021356,-0.056834,0.993957,0.093916,0.000000,0.000000,0.000000,-1,-0.834574,-0.195821,-0.239382,-0.157201,-0.173491,0.046953
"2019-04-16 11:01:42.557 +0000",1555412502.556779,-2.622294,-1.445311,-0.001722,-0.062112,0.992137,0.108657,0.000000,0.000000,0.000000,-1,-0.636372,-0.037112,-0.290092,-0.202216,-0.110637,0.086045
"2019-04-16 11:01:42.577 +0000",1555412502.576779,-2.617108,-1.436833,0.005645,-0.066884,0.991040,0.115610,0.000000,0.000000,0.000000,-1,-0.167969,-0.200340,-0.219174,-0.271922,-0.141614,0.072485
"2019-04-16 11:01:42.597 +0000",1555412502.596778,-2.605727,-1.434067,0.022860,-0.069595,0.990667,0.117197,0.000000,0.000000,0.000000,-1,-0.086795,-0.270416,-0.154185,-0.191911,0.113795,-0.004557
"2019-04-16 11:01:42.617 +0000",1555412502.616779,-2.606123,-1.423414,0.019169,-0.074929,0.989159,0.126294,0.000000,0.000000,0.000000,-1,-0.781581,0.515492,-0.357708,-0.055930,0.256950,-0.028257
"2019-04-16 11:01:42.637 +0000",1555412502.636750,-2.626965,-1.390993,-0.018888,-0.088025,0.983879,0.155673,0.000000,0.000000,0.000000,-1,-2.079995,0.899367,-0.636377,0.092404,0.323937,-0.089983
"2019-04-16 11:01:42.657 +0000",1555412502.656779,-2.667189,-1.334142,-0.077785,-0.107099,0.972128,0.208560,0.000000,0.000000,0.000000,-1,-3.133528,0.821654,-0.922906,0.499769,0.355875,-0.009997
"2019-04-16 11:01:42.677 +0000",1555412502.676762,-2.689151,-1.269602,-0.111435,-0.129689,0.954983,0.266812,0.000000,0.000000,0.000000,-1,-2.784683,0.360928,-1.070251,0.665913,0.233890,0.293430
"2019-04-16 11:01:42.697 +0000",1555412502.696778,-2.679916,-1.225732,-0.115388,-0.150677,0.941054,0.302844,0.000000,0.000000,0.000000,-1,-1.601497,0.848852,-0.754065,0.558575,0.240404,0.348096
"2019-04-16 11:01:42.717 +0000",1555412502.716779,-2.671787,-1.194650,-0.123769,-0.166299,0.930087,0.327540,0.000000,0.000000,0.000000,-1,-1.484529,0.638990,-0.512705,0.109658,0.395886,-0.084040
"2019-04-16 11:01:42.737 +0000",1555412502.736779,-2.681917,-1.161574,-0.137321,-0.176529,0.917431,0.356593,0.000000,0.000000,0.000000,-1,-1.623382,-0.246122,-0.476658,0.039673,0.592030,-0.200602
"2019-04-16 11:01:42.757 +0000",1555412502.756778,-2.701708,-1.129625,-0.146668,-0.181831,0.904252,0.386349,0.000000,0.000000,0.000000,-1,-1.405967,-0.570943,-0.640517,0.108909,0.769667,-0.099926
"2019-04-16 11:01:42.777 +0000",1555412502.776780,-2.700793,-1.102045,-0.131818,-0.192755,0.892133,0.408588,0.000000,0.000000,0.000000,-1,-0.898000,-0.664406,-0.959469,0.374533,0.681826,0.184506
"2019-04-16 11:01:42.797 +0000",1555412502.796779,-2.687123,-1.084566,-0.103402,-0.205136,0.884101,0.419863,0.000000,0.000000,0.000000,-1,-0.308146,-0.516457,-0.962537,0.484845,0.369516,0.223966
"2019-04-16 11:01:42.817 +0000",1555412502.816779,-2.670195,-1.072343,-0.072733,-0.217106,0.878323,0.425927,0.000000,0.000000,0.000000,-1,-0.215931,-0.501215,-0.874950,0.504688,0.173862,0.183982
"2019-04-16 11:01:42.837 +0000",1555412502.836778,-2.656052,-1.063647,-0.053113,-0.226664,0.874132,0.429553,0.000000,0.000000,0.000000,-1,-0.119451,0.047131,-0.418936,0.327357,-0.383593,0.029385
"2019-04-16 11:01:42.857 +0000",1555412502.856777,-2.650645,-1.062803,-0.052205,-0.229331,0.873722,0.428971,0.000000,0.000000,0.000000,-1,0.019809,0.297464,0.154763,0.132407,-0.381962,-0.135270
"2019-04-16 11:01:42.877 +0000",1555412502.876778,-2.652993,-1.067117,-0.062823,-0.226552,0.875812,0.426177,0.000000,0.000000,0.000000,-1,0.112875,0.373207,0.415210,0.101338,-0.345890,-0.201766
"2019-04-16 11:01:42.897 +0000",1555412502.896779,-2.657686,-1.077691,-0.077224,-0.220228,0.880867,0.419014,0.000000,0.000000,0.000000,-1,0.443327,0.411674,0.634915,0.129866,-0.443260,-0.179787
"2019-04-16 11:01:42.917 +0000",1555412502.916776,-2.661467,-1.097309,-0.093113,-0.210619,0.889983,0.404437,0.000000,0.000000,0.000000,-1,0.837413,0.573430,0.880046,0.220873,-0.493438,-0.086200
"2019-04-16 11:01:42.937 +0000",1555412502.936777,-2.669916,-1.124558,-0.115334,-0.196100,0.902077,0.384451,0.000000,0.000000,0.000000,-1,1.040585,0.543397,1.172757,0.240777,-0.508034,-0.077658
"2019-04-16 11:01:42.957 +0000",1555412502.956780,-2.693190,-1.155371,-0.150583,-0.174962,0.914945,0.363682,0.000000,0.000000,0.000000,-1,1.051660,0.355863,1.439453,0.235845,-0.489026,-0.157413
"2019-04-16 11:01:42.977 +0000",1555412502.976778,-2.731523,-1.188064,-0.197242,-0.148887,0.927648,0.342495,0.000000,0.000000,0.000000,-1,1.167419,0.195158,1.511222,0.154411,-0.506810,-0.132808
"2019-04-16 11:01:42.997 +0000",1555412502.996769,-2.771812,-1.222620,-0.243411,-0.123308,0.939996,0.318122,0.000000,0.000000,0.000000,-1,1.345896,0.097176,1.338535,0.082124,-0.497766,-0.096778
"2019-04-16 11:01:43.017 +0000",1555412503.016778,-2.804914,-1.256573,-0.278358,-0.102105,0.951037,0.291726,0.000000,0.000000,0.000000,-1,1.400713,-0.070213,0.973236,-0.074393,-0.341753,-0.039559
"2019-04-16 11:01:43.037 +0000",1555412503.036776,-2.823300,-1.286004,-0.293075,-0.087925,0.959720,0.266846,0.000000,0.000000,0.000000,-1,1.260303,-0.344935,0.499778,-0.114804,-0.216403,-0.044983
"2019-04-16 11:01:43.057 +0000",1555412503.056776,-2.828192,-1.309996,-0.286759,-0.079495,0.966184,0.245294,0.000000,0.000000,0.000000,-1,1.120130,-0.631375,0.211924,-0.109210,-0.114179,-0.017328
"2019-04-16 11:01:43.077 +0000",1555412503.076778,-2.828117,-1.330494,-0.271580,-0.073390,0.971266,0.226398,0.000000,0.000000,0.000000,-1,0.985422,-0.794459,0.105564,-0.079701,0.155733,0.071133
"2019-04-16 11:01:43.097 +0000",1555412503.096761,-2.829888,-1.349530,-0.255409,-0.067306,0.975620,0.208890,0.000000,0.000000,0.000000,-1,0.972969,-0.851476,0.137369,0.133224,0.033611,0.140262
"2019-04-16 11:01:43.117 +0000",1555412503.116777,-2.830477,-1.371158,-0.240994,-0.060709,0.980138,0.188795,0.000000,0.000000,0.000000,-1,1.145513,-0.690244,0.198340,0.204294,-0.060140,0.193667
"2019-04-16 11:01:43.137 +0000",1555412503.136777,-2.829599,-1.394702,-0.225345,-0.053774,0.984535,0.166728,0.000000,0.000000,0.000000,-1,1.118916,-0.766173,0.242754,0.157458,-0.144249,0.147649
"2019-04-16 11:01:43.157 +0000",1555412503.156768,-2.846770,-1.408574,-0.229722,-0.046930,0.986871,0.154543,0.000000,0.000000,0.000000,-1,0.210279,-0.436792,0.281554,0.220804,-0.106530,0.241209
"2019-04-16 11:01:43.177 +0000",1555412503.176777,-2.909303,-1.405047,-0.290026,-0.037982,0.986295,0.160560,0.000000,0.000000,0.000000,-1,-0.304855,-0.101579,0.517371,0.372546,0.408282,0.305367
"2019-04-16 11:01:43.197 +0000",1555412503.196777,-3.001023,-1.414945,-0.373779,-0.021748,0.987880,0.153691,0.000000,0.000000,0.000000,-1,0.720083,-0.846702,0.863793,0.663197,0.826375,-0.550862
"2019-04-16 11:01:43.217 +0000",1555412503.216755,-3.109103,-1.427161,-0.459762,-0.004650,0.989702,0.143066,0.000000,0.000000,0.000000,-1,0.162531,-0.768660,0.453535,0.723720,0.881208,-0.273849
"2019-04-16 11:01:43.237 +0000",1555412503.236777,-3.089368,-1.414105,-0.453486,-0.008146,0.987749,0.155838,0.000000,0.000000,0.000000,-1,-0.937106,1.115154,-0.316568,0.680036,0.175734,-0.029694
"2019-04-16 11:01:43.257 +0000",1555412503.256776,-3.012481,-1.408503,-0.391609,-0.020804,0.986859,0.160237,0.000000,0.000000,0.000000,-1,0.344413,0.698081,-0.625898,0.015067,0.490939,0.162776
"2019-04-16 11:01:43.277 +0000",1555412503.276762,-2.860771,-1.414762,-0.258110,-0.043069,0.987851,0.149315,0.000000,0.000000,0.000000,-1,0.400221,1.169012,-1.196637,-0.138739,0.872668,0.083961
"2019-04-16 11:01:43.297 +0000",1555412503.296777,-2.683458,-1.409943,-0.097700,-0.070835,0.987091,0.143645,0.000000,0.000000,0.000000,-1,0.188285,0.659810,-1.185804,-0.261577,0.931824,-0.208357
"2019-04-16 11:01:43.317 +0000",1555412503.316776,-2.601741,-1.401574,-0.019212,-0.086567,0.985716,0.144465,0.000000,0.000000,0.000000,-1,-0.226043,0.006854,-0.469337,-0.169292,-0.264891,-0.307795
"2019-04-16 11:01:43.337 +0000",1555412503.336756,-2.620267,-1.398484,-0.034911,-0.085392,0.985191,0.148684,0.000000,0.000000,0.000000,-1,-0.065573,-0.177561,0.256884,0.093480,-0.279945,-0.201998
"2019-04-16 11:01:43.357 +0000",1555412503.356765,-2.647835,-1.408646,-0.060707,-0.076513,0.986882,0.142158,0.000000,0.000000,0.000000,-1,0.559959,-0.050194,0.524136,0.148565,-0.105245,-0.143638
"2019-04-16 11:01:43.377 +0000",1555412503.376776,-2.672813,-1.426326,-0.086786,-0.065045,0.989582,0.128437,0.000000,0.000000,0.000000,-1,0.710913,0.056741,0.569862,0.105175,0.329082,0.005855
"2019-04-16 11:01:43.397 +0000",1555412503.396752,-2.685019,-1.443493,-0.099492,-0.055974,0.991908,0.113955,0.000000,0.000000,0.000000,-1,0.747448,-0.007225,0.396409,0.153813,0.130559,-0.024844
"2019-04-16 11:01:43.417 +0000",1555412503.416777,-2.681632,-1.458951,-0.094381,-0.049546,0.993752,0.100012,0.000000,0.000000,0.000000,-1,0.669879,-0.136980,0.261996,0.134995,0.038475,-0.055762
"2019-04-16 11:01:43.437 +0000",1555412503.436776,-2.663116,-1.472281,-0.073341,-0.045286,0.995151,0.087310,0.000000,0.000000,0.000000,-1,0.628374,-0.064122,0.185780,0.091627,-0.036701,0.002808
"2019-04-16 11:01:43.457 +0000",1555412503.456760,-2.629866,-1.483856,-0.042160,-0.042520,0.996223,0.075708,0.000000,0.000000,0.000000,-1,0.541159,0.204902,0.111246,0.081827,-0.190818,0.074026
"2019-04-16 11:01:43.477 +0000",1555412503.476776,-2.597337,-1.493514,-0.013985,-0.039976,0.997015,0.066051,0.000000,0.000000,0.000000,-1,0.411792,0.154594,0.191705,0.088483,-0.252463,0.054829
"2019-04-16 11:01:43.497 +0000",1555412503.496777,-2.632851,-1.500943,-0.051620,-0.033996,0.997561,0.060957,0.000000,0.000000,0.000000,-1,0.145888,0.116954,0.364307,0.112426,-0.295031,0.095049
"2019-04-16 11:01:43.517 +0000",1555412503.516772,-2.738176,-1.504070,-0.160290,-0.026175,0.997775,0.061325,0.000000,0.000000,0.000000,-1,-0.104098,0.184093,0.402775,0.011389,-0.122469,0.048904
"2019-04-16 11:01:43.537 +0000",1555412503.536776,-2.839775,-1.503603,-0.267330,-0.019959,0.997743,0.064108,0.000000,0.000000,0.000000,-1,-0.143605,0.303045,0.263678,-0.042343,-0.059725,0.021998
"2019-04-16 11:01:43.557 +0000",1555412503.556776,-2.877170,-1.502239,-0.310901,-0.017904,0.997651,0.066124,0.000000,0.000000,0.000000,-1,-0.102969,0.289489,0.033774,-0.072321,-0.039414,-0.002235
"2019-04-16 11:01:43.577 +0000",1555412503.576751,-2.876021,-1.498061,-0.314986,-0.019073,0.997356,0.070123,0.000000,0.000000,0.000000,-1,-0.299033,0.247325,-0.053018,0.067611,-0.298107,0.002967
"2019-04-16 11:01:43.597 +0000",1555412503.596776,-2.896236,-1.488495,-0.338280,-0.019969,0.996615,0.079746,0.000000,0.000000,0.000000,-1,-0.579667,0.042181,-0.019388,0.101023,-0.328143,-0.060673
"2019-04-16 11:01:43.617 +0000",1555412503.616777,-2.929253,-1.475799,-0.368122,-0.019990,0.995491,0.092724,0.000000,0.000000,0.000000,-1,-0.677695,-0.252078,-0.033631,0.097001,-0.300301,-0.129513
"2019-04-16 11:01:43.637 +0000",1555412503.636760,-2.947101,-1.458996,-0.381966,-0.021562,0.993757,0.109463,0.000000,0.000000,0.000000,-1,-0.988736,-0.113897,-0.149500,0.056795,-0.249342,-0.088010
"2019-04-16 11:01:43.657 +0000",1555412503.656746,-2.944592,-1.435557,-0.383324,-0.026390,0.990869,0.132219,0.000000,0.000000,0.000000,-1,-1.158715,0.375821,-0.240940,0.034233,-0.170038,-0.053331
"2019-04-16 11:01:43.677 +0000",1555412503.676777,-2.927209,-1.415358,-0.374646,-0.032936,0.987944,0.151269,0.000000,0.000000,0.000000,-1,-0.853626,0.412703,-0.269038,0.002830,-0.146544,-0.023965
"2019-04-16 11:01:43.697 +0000",1555412503.696757,-2.917839,-1.399919,-0.372898,-0.037732,0.985436,0.165808,0.000000,0.000000,0.000000,-1,-0.710048,0.364390,-0.123237,-0.071872,-0.284157,0.021677
"2019-04-16 11:01:43.717 +0000",1555412503.716806,-2.930478,-1.386777,-0.391938,-0.038344,0.983116,0.178920,0.000000,0.000000,0.000000,-1,-0.668272,0.240083,0.107623,-0.172426,-0.379463,0.019551
"2019-04-16 11:01:43.737 +0000",1555412503.736774,-2.957353,-1.373048,-0.421966,-0.035992,0.980511,0.193137,0.000000,0.000000,0.000000,-1,-0.787667,0.118491,0.102824,-0.233967,-0.157910,-0.070807
"2019-04-16 11:01:43.757 +0000",1555412503.756752,-2.953874,-1.352491,-0.423554,-0.040417,0.976266,0.212771,0.000000,0.000000,0.000000,-1,-1.213279,0.316036,-0.384614,-0.109104,0.222083,-0.116121
"2019-04-16 11:01:43.777 +0000",1555412503.776774,-2.909622,-1.316966,-0.384332,-0.057730,0.967958,0.244387,0.000000,0.000000,0.000000,-1,-1.897021,0.305698,-1.064283,0.094610,0.609053,0.103437
"2019-04-16 11:01:43.797 +0000",1555412503.796774,-2.846613,-1.270844,-0.324976,-0.085900,0.955351,0.282712,0.000000,0.000000,0.000000,-1,-1.942281,0.340963,-1.545926,0.308480,0.549776,0.263339
"2019-04-16 11:01:43.817 +0000",1555412503.816749,-2.778670,-1.231693,-0.266405,-0.118090,0.943053,0.310974,0.000000,0.000000,0.000000,-1,-1.336389,0.690451,-1.411049,0.481814,0.295579,0.058349
"2019-04-16 11:01:43.837 +0000",1555412503.836763,-2.738232,-1.201157,-0.230836,-0.141806,0.932458,0.332285,0.000000,0.000000,0.000000,-1,-1.142955,0.018994,-1.003682,0.490485,0.305473,-0.089396
"2019-04-16 11:01:43.857 +0000",1555412503.856775,-2.728594,-1.171562,-0.208431,-0.156013,0.921359,0.356030,0.000000,0.000000,0.000000,-1,-1.268647,-0.823701,-0.972772,0.283073,0.677350,0.147159
"2019-04-16 11:01:43.877 +0000",1555412503.876774,-2.724398,-1.140764,-0.187292,-0.168927,0.908952,0.381142,0.000000,0.000000,0.000000,-1,-1.060062,-0.484860,-1.086167,0.239071,0.756682,0.255180
"2019-04-16 11:01:43.897 +0000",1555412503.896775,-2.687981,-1.122386,-0.146111,-0.189981,0.901137,0.389690,0.000000,0.000000,0.000000,-1,-0.188349,-0.049543,-1.191065,0.295465,0.591386,0.021320
"2019-04-16 11:01:43.917 +0000",1555412503.916774,-2.664488,-1.109240,-0.104078,-0.204506,0.895360,0.395610,0.000000,0.000000,0.000000,-1,-0.236217,-1.107825,-1.071838,0.229942,0.290202,-0.040996
"2019-04-16 11:01:43.937 +0000",1555412503.936769,-2.665357,-1.092611,-0.073975,-0.210958,0.887832,0.408964,0.000000,0.000000,0.000000,-1,-0.558799,-1.482547,-0.909781,0.181905,0.063935,-0.098967
"2019-04-16 11:01:43.957 +0000",1555412503.956775,-2.686573,-1.073390,-0.065089,-0.209697,0.878823,0.428599,0.000000,0.000000,0.000000,-1,-0.803173,-1.335665,-0.408232,0.176539,-0.094338,0.072957
"2019-04-16 11:01:43.977 +0000",1555412503.976748,-2.707698,-1.063075,-0.069147,-0.204397,0.873855,0.441135,0.000000,0.000000,0.000000,-1,-0.282969,-0.624910,-0.004325,0.228078,-0.187179,0.101224
"2019-04-16 11:01:43.997 +0000",1555412503.996763,-2.716394,-1.064363,-0.071948,-0.200089,0.874480,0.441870,0.000000,0.000000,0.000000,-1,0.166718,-0.160527,0.124424,0.210892,-0.264418,-0.067786
"2019-04-16 11:01:44.017 +0000",1555412504.016774,-2.714917,-1.070910,-0.072818,-0.198367,0.877637,0.436353,0.000000,0.000000,0.000000,-1,0.376599,0.294067,0.176465,0.198169,-0.281034,-0.015836
"2019-04-16 11:01:44.037 +0000",1555412504.036774,-2.702872,-1.083932,-0.071694,-0.198737,0.883804,0.423549,0.000000,0.000000,0.000000,-1,0.740389,0.679057,0.286952,0.190574,-0.304764,-0.023433
"2019-04-16 11:01:44.057 +0000",1555412504.056758,-2.684888,-1.103094,-0.068531,-0.198815,0.892607,0.404630,0.000000,0.000000,0.000000,-1,0.966318,0.748962,0.398677,0.252984,-0.423170,-0.226072
"2019-04-16 11:01:44.077 +0000",1555412504.076773,-2.674935,-1.126868,-0.068708,-0.193229,0.903072,0.383568,0.000000,0.000000,0.000000,-1,1.105452,0.328127,0.631645,0.295127,-0.474422,-0.229881
"2019-04-16 11:01:44.097 +0000",1555412504.096773,-2.682655,-1.154437,-0.080299,-0.179162,0.914568,0.362584,0.000000,0.000000,0.000000,-1,1.134790,0.072951,0.950797,0.299035,-0.507509,-0.135304
"2019-04-16 11:01:44.117 +0000",1555412504.116752,-2.705293,-1.185670,-0.105726,-0.158756,0.926751,0.340483,0.000000,0.000000,0.000000,-1,1.244161,0.037947,1.215645,0.190815,-0.504312,-0.058119
"2019-04-16 11:01:44.137 +0000",1555412504.136775,-2.740403,-1.221552,-0.143480,-0.133629,0.939632,0.315017,0.000000,0.000000,0.000000,-1,1.435301,-0.006872,1.417522,0.123451,-0.480479,-0.050552
"2019-04-16 11:01:44.157 +0000",1555412504.156774,-2.784941,-1.259483,-0.190714,-0.106944,0.951932,0.287033,0.000000,0.000000,0.000000,-1,1.467777,-0.009739,1.373131,0.025325,-0.313962,-0.147995
"2019-04-16 11:01:44.177 +0000",1555412504.176773,-2.836187,-1.293551,-0.241418,-0.082298,0.961813,0.261041,0.000000,0.000000,0.000000,-1,1.299378,-0.236462,1.171362,-0.046578,-0.106955,-0.168039
"2019-04-16 11:01:44.197 +0000",1555412504.196771,-2.898185,-1.321195,-0.295521,-0.059534,0.969011,0.239736,0.000000,0.000000,0.000000,-1,1.026874,-0.664471,0.985203,-0.053137,-0.050676,-0.149023
"2019-04-16 11:01:44.217 +0000",1555412504.216774,-2.972744,-1.341488,-0.349857,-0.038198,0.973824,0.224072,0.000000,0.000000,0.000000,-1,0.796831,-1.371166,0.744996,-0.106013,0.107475,-0.001401
"2019-04-16 11:01:44.237 +0000",1555412504.236742,-3.043749,-1.359381,-0.391301,-0.020499,0.977735,0.208841,0.000000,0.000000,0.000000,-1,0.866216,-1.504947,0.442841,-0.022119,0.032031,0.318015
"2019-04-16 11:01:44.257 +0000",1555412504.256771,-3.068903,-1.379750,-0.396323,-0.013791,0.981806,0.189385,0.000000,0.000000,0.000000,-1,1.119018,-0.564238,-0.058944,0.103085,-0.076304,0.349189
"2019-04-16 11:01:44.277 +0000",1555412504.276749,-3.035755,-1.402734,-0.367356,-0.017671,0.985911,0.166337,0.000000,0.000000,0.000000,-1,1.111248,0.538506,-0.140447,0.185868,-0.089594,0.215682
"2019-04-16 11:01:44.297 +0000",1555412504.296769,-2.998364,-1.418630,-0.337367,-0.021636,0.988445,0.150027,0.000000,0.000000,0.000000,-1,0.638079,0.179415,-0.194705,0.218749,0.018940,0.087156
"2019-04-16 11:01:44.317 +0000",1555412504.316753,-2.946928,-1.425626,-0.284371,-0.027983,0.989481,0.141929,0.000000,0.000000,0.000000,-1,0.300141,-0.126800,-0.380549,0.140440,-0.091120,0.061288
"2019-04-16 11:01:44.337 +0000",1555412504.336773,-2.891188,-1.428697,-0.225047,-0.035093,0.989921,0.137204,0.000000,0.000000,0.000000,-1,0.241730,-0.078538,-0.384459,0.065367,-0.197318,0.246463
"2019-04-16 11:01:44.357 +0000",1555412504.356765,-2.818298,-1.431725,-0.158682,-0.044040,0.990345,0.131442,0.000000,0.000000,0.000000,-1,0.239765,0.692703,-0.414907,0.164050,-0.162159,0.416455
"2019-04-16 11:01:44.377 +0000",1555412504.376773,-2.763142,-1.430543,-0.120412,-0.051651,0.990181,0.129901,0.000000,0.000000,0.000000,-1,0.107568,0.598536,-0.076367,0.408630,0.090386,-0.262454
"2019-04-16 11:01:44.397 +0000",1555412504.396774,-2.773854,-1.448845,-0.121204,-0.043734,0.992573,0.113516,0.000000,0.000000,0.000000,-1,1.226141,-1.028339,0.465869,0.470903,0.490902,-0.637976
"2019-04-16 11:01:44.417 +0000",1555412504.416771,-2.749612,-1.463391,-0.082657,-0.040952,0.994238,0.099068,0.000000,0.000000,0.000000,-1,0.119112,0.056104,-0.319793,0.501889,1.171244,0.003944
"2019-04-16 11:01:44.437 +0000",1555412504.436773,-2.692610,-1.451667,-0.043285,-0.051586,0.992912,0.107069,0.000000,0.000000,0.000000,-1,-0.362536,0.548874,-0.338390,0.480510,0.627495,0.092409
"2019-04-16 11:01:44.457 +0000",1555412504.456773,-2.617153,-1.443664,0.034177,-0.063488,0.991930,0.109750,0.000000,0.000000,0.000000,-1,-0.083858,0.193700,-0.885510,0.203258,1.413054,0.254080
"2019-04-16 11:01:44.477 +0000",1555412504.476755,-2.415925,-1.425920,0.208627,-0.095809,0.989524,0.107997,0.000000,0.000000,0.000000,-1,-0.206420,1.718806,-1.610358,-0.201066,0.240899,-0.461726
"2019-04-16 11:01:44.497 +0000",1555412504.496771,-2.410221,-1.397319,0.200295,-0.115284,0.984991,0.128465,0.000000,0.000000,0.000000,-1,-1.512726,-0.017077,-0.477133,-0.059368,-0.349935,-0.369936
"2019-04-16 11:01:44.517 +0000",1555412504.516771,-2.491931,-1.378640,0.126168,-0.115525,0.981595,0.152072,0.000000,0.000000,0.000000,-1,-0.716213,-0.487157,0.140714,0.207032,-0.985531,-0.122821
"2019-04-16 11:01:44.537 +0000",1555412504.536760,-2.538665,-1.385211,0.089379,-0.104635,0.982828,0.151987,0.000000,0.000000,0.000000,-1,0.441417,-0.519579,0.633304,0.288457,-0.197886,0.040777
"2019-04-16 11:01:44.557 +0000",1555412504.556773,-2.569023,-1.403919,0.063664,-0.089994,0.986108,0.139612,0.000000,0.000000,0.000000,-1,0.686790,0.020309,0.721054,0.288160,0.468360,0.087561
"2019-04-16 11:01:44.577 +0000",1555412504.576772,-2.559457,-1.425172,0.059139,-0.079783,0.989416,0.121209,0.000000,0.000000,0.000000,-1,1.183446,1.060401,0.593655,0.207621,0.926661,0.015357
"2019-04-16 11:01:44.597 +0000",1555412504.596772,-2.464371,-1.453852,0.129001,-0.073114,0.993170,0.090929,0.000000,0.000000,0.000000,-1,1.265571,1.117385,0.322723,0.050210,-0.063040,-0.231722
"2019-04-16 11:01:44.617 +0000",1555412504.616771,-2.429799,-1.466534,0.156503,-0.067980,0.994570,0.078804,0.000000,0.000000,0.000000,-1,0.272001,0.016314,0.298689,-0.084592,-0.007341,-0.084022
"2019-04-16 11:01:44.637 +0000",1555412504.636762,-2.439798,-1.473651,0.151861,-0.062617,0.995285,0.074072,0.000000,0.000000,0.000000,-1,0.303712,-0.400419,0.264680,-0.140950,-0.056198,0.070048
"2019-04-16 11:01:44.657 +0000",1555412504.656771,-2.480340,-1.481460,0.118876,-0.054789,0.996012,0.070412,0.000000,0.000000,0.000000,-1,0.075180,-0.305459,0.422912,-0.105017,-0.307673,0.010368
"2019-04-16 11:01:44.677 +0000",1555412504.676770,-2.591980,-1.485372,0.010122,-0.044568,0.996354,0.072755,0.000000,0.000000,0.000000,-1,-0.135448,-0.134340,0.551554,-0.053302,-0.275895,0.042326
"2019-04-16 11:01:44.697 +0000",1555412504.696772,-2.662281,-1.491611,-0.054607,-0.036480,0.996866,0.070189,0.000000,0.000000,0.000000,-1,0.317878,-0.322535,0.290514,0.161938,-0.170969,0.059892
"2019-04-16 11:01:44.717 +0000",1555412504.716771,-2.680962,-1.503036,-0.064291,-0.030098,0.997705,0.060652,0.000000,0.000000,0.000000,-1,0.609352,-0.637178,0.318545,0.062843,-0.037485,0.042955
"2019-04-16 11:01:44.737 +0000",1555412504.736770,-2.678814,-1.517359,-0.050200,-0.023845,0.998573,0.047794,0.000000,0.000000,0.000000,-1,0.612473,-0.446524,0.240841,0.005245,-0.008460,0.074032
"2019-04-16 11:01:44.757 +0000",1555412504.756764,-2.665511,-1.526614,-0.033639,-0.020243,0.999024,0.039257,0.000000,0.000000,0.000000,-1,0.319158,-0.047654,0.131771,-0.071920,-0.048676,0.078876
"2019-04-16 11:01:44.777 +0000",1555412504.776770,-2.680248,-1.530830,-0.046378,-0.017786,0.999201,0.035778,0.000000,0.000000,0.000000,-1,0.103769,-0.179498,0.101210,0.057489,-0.176326,0.098316
"2019-04-16 11:01:44.797 +0000",1555412504.796770,-2.732278,-1.529818,-0.093459,-0.016303,0.999161,0.037581,0.000000,0.000000,0.000000,-1,-0.211781,-0.319547,0.035234,0.084266,-0.175369,0.060075
"2019-04-16 11:01:44.817 +0000",1555412504.816768,-2.796415,-1.523020,-0.149071,-0.016160,0.998859,0.044941,0.000000,0.000000,0.000000,-1,-0.418475,-0.473079,-0.025099,0.036561,-0.184574,0.010997
"2019-04-16 11:01:44.837 +0000",1555412504.836770,-2.845414,-1.513446,-0.189253,-0.016729,0.998356,0.054823,0.000000,0.000000,0.000000,-1,-0.543589,-0.392886,-0.070372,-0.051081,-0.387302,0.016665
"2019-04-16 11:01:44.857 +0000",1555412504.856754,-2.870166,-1.502504,-0.207900,-0.018295,0.997669,0.065741,0.000000,0.000000,0.000000,-1,-0.500568,-0.269266,-0.122012,-0.043777,-0.396915,-0.008429
"2019-04-16 11:01:44.877 +0000",1555412504.876769,-2.881541,-1.494235,-0.215695,-0.019667,0.997071,0.073915,0.000000,0.000000,0.000000,-1,-0.361339,-0.102212,-0.037993,0.092101,-0.332245,-0.014512
"2019-04-16 11:01:44.897 +0000",1555412504.896768,-2.903835,-1.486607,-0.242145,-0.019805,0.996458,0.081725,0.000000,0.000000,0.000000,-1,-0.448575,0.389953,0.043362,0.168136,-0.110655,0.016527
"2019-04-16 11:01:44.917 +0000",1555412504.916746,-2.929491,-1.475331,-0.278202,-0.020066,0.995447,0.093185,0.000000,0.000000,0.000000,-1,-0.661722,0.541870,-0.020050,0.126344,-0.042459,0.046479
"2019-04-16 11:01:44.937 +0000",1555412504.936761,-2.929414,-1.461497,-0.289305,-0.022972,0.994033,0.106636,0.000000,0.000000,0.000000,-1,-0.602281,0.601801,-0.046992,-0.133065,-0.119140,0.048363
"2019-04-16 11:01:44.957 +0000",1555412504.956768,-2.929734,-1.451514,-0.304782,-0.025023,0.992894,0.116338,0.000000,0.000000,0.000000,-1,-0.469394,0.814763,-0.047294,-0.186876,-0.128423,0.026392
"2019-04-16 11:01:44.977 +0000",1555412504.976747,-2.917872,-1.439121,-0.311621,-0.029129,0.991343,0.128024,0.000000,0.000000,0.000000,-1,-0.758602,0.957791,-0.097813,-0.207779,-0.017421,-0.048067
"2019-04-16 11:01:44.997 +0000",1555412504.996739,-2.910795,-1.416349,-0.323155,-0.035190,0.988097,0.149756,0.000000,0.000000,0.000000,-1,-1.394881,0.926074,-0.288286,0.073917,0.368867,0.027277
"2019-04-16 11:01:45.017 +0000",1555412505.016770,-2.881114,-1.377244,-0.309173,-0.049537,0.981327,0.185858,0.000000,0.000000,0.000000,-1,-2.080209,0.653014,-0.769740,0.152534,0.530498,0.082361
"2019-04-16 11:01:45.037 +0000",1555412505.036754,-2.844357,-1.329473,-0.277807,-0.069994,0.971023,0.228508,0.000000,0.000000,0.000000,-1,-2.214000,0.157571,-1.089653,0.321810,0.558305,0.146232
"2019-04-16 11:01:45.057 +0000",1555412505.056752,-2.798751,-1.286794,-0.239831,-0.094193,0.959942,0.263893,0.000000,0.000000,0.000000,-1,-1.581617,0.742582,-1.096156,0.515733,0.445500,-0.020607
"2019-04-16 11:01:45.077 +0000",1555412505.076750,-2.758683,-1.258198,-0.218369,-0.114901,0.951538,0.285262,0.000000,0.000000,0.000000,-1,-1.109564,0.902045,-0.630291,0.517412,0.464097,-0.041426
"2019-04-16 11:01:45.097 +0000",1555412505.096750,-2.739684,-1.230472,-0.205222,-0.130572,0.942646,0.307195,0.000000,0.000000,0.000000,-1,-1.284185,-0.002069,-0.882726,0.404757,0.476818,0.041178
"2019-04-16 11:01:45.117 +0000",1555412505.116747,-2.723016,-1.198962,-0.179816,-0.147677,0.931662,0.331959,0.000000,0.000000,0.000000,-1,-1.201966,-0.565378,-1.046329,0.137683,0.645852,0.133831
"2019-04-16 11:01:45.137 +0000",1555412505.136770,-2.711821,-1.170512,-0.151061,-0.162365,0.920950,0.354243,0.000000,0.000000,0.000000,-1,-0.994241,-0.764542,-1.116357,0.196927,0.613657,0.126134
"2019-04-16 11:01:45.157 +0000",1555412505.156744,-2.691969,-1.145477,-0.116657,-0.179332,0.910907,0.371602,0.000000,0.000000,0.000000,-1,-0.785130,-0.566483,-1.162635,0.312129,0.284207,-0.011800
"2019-04-16 11:01:45.177 +0000",1555412505.176741,-2.681364,-1.121959,-0.087195,-0.192726,0.900952,0.388770,0.000000,0.000000,0.000000,-1,-0.775770,-0.986018,-0.989987,0.389519,-0.325833,0.039483
"2019-04-16 11:01:45.197 +0000",1555412505.196734,-2.683491,-1.103691,-0.068370,-0.199145,0.892875,0.403874,0.000000,0.000000,0.000000,-1,-0.510811,-0.815855,-0.648354,0.395938,-0.317757,0.024379
"2019-04-16 11:01:45.217 +0000",1555412505.216741,-2.684759,-1.094447,-0.057835,-0.202265,0.888675,0.411517,0.000000,0.000000,0.000000,-1,-0.205787,-0.362516,-0.274022,0.220942,-0.500674,-0.129259
"2019-04-16 11:01:45.237 +0000",1555412505.236762,-2.684310,-1.092830,-0.055999,-0.203084,0.887932,0.412714,0.000000,0.000000,0.000000,-1,0.023876,0.080036,0.040675,0.158971,-0.470437,-0.159495
"2019-04-16 11:01:45.257 +0000",1555412505.256767,-2.687165,-1.097384,-0.062100,-0.200128,0.890018,0.409655,0.000000,0.000000,0.000000,-1,0.221239,0.129789,0.326965,0.170526,-0.432010,-0.103243
"2019-04-16 11:01:45.277 +0000",1555412505.276763,-2.693821,-1.108401,-0.074128,-0.193139,0.894987,0.402115,0.000000,0.000000,0.000000,-1,0.476212,0.280967,0.584188,0.213022,-0.434354,-0.078033
"2019-04-16 11:01:45.297 +0000",1555412505.296762,-2.702562,-1.127011,-0.092715,-0.182505,0.903133,0.388642,0.000000,0.000000,0.000000,-1,0.778041,0.459891,0.877226,0.295481,-0.443431,-0.101029
"2019-04-16 11:01:45.317 +0000",1555412505.316767,-2.719592,-1.153118,-0.121508,-0.166145,0.914033,0.370053,0.000000,0.000000,0.000000,-1,1.018001,0.435677,1.236546,0.285163,-0.449159,-0.076383
"2019-04-16 11:01:45.337 +0000",1555412505.336760,-2.753329,-1.186391,-0.168255,-0.141971,0.927022,0.347095,0.000000,0.000000,0.000000,-1,1.267595,0.482173,1.642971,0.233860,-0.447819,-0.053089
"2019-04-16 11:01:45.357 +0000",1555412505.356743,-2.809792,-1.226491,-0.239375,-0.109953,0.941310,0.319133,0.000000,0.000000,0.000000,-1,1.492427,0.473281,2.029843,0.041518,-0.456492,-0.100688
"2019-04-16 11:01:45.377 +0000",1555412505.376769,-2.898192,-1.266662,-0.339819,-0.072173,0.954106,0.290641,0.000000,0.000000,0.000000,-1,1.432635,0.224075,2.070519,-0.105378,-0.381429,-0.153342
"2019-04-16 11:01:45.397 +0000",1555412505.396751,-3.003555,-1.299144,-0.445894,-0.036921,0.963329,0.265771,0.000000,0.000000,0.000000,-1,1.241467,-0.459062,1.587610,-0.143667,-0.249706,-0.146066
"2019-04-16 11:01:45.417 +0000",1555412505.416754,-3.104449,-1.326996,-0.537025,-0.008964,0.970428,0.241226,0.000000,0.000000,0.000000,-1,1.316370,-0.673719,1.103062,0.039238,0.293275,-0.048920
"2019-04-16 11:01:45.437 +0000",1555412505.436765,3.108902,-1.349988,-0.591284,0.007159,0.975721,0.218901,0.000000,0.000000,0.000000,-1,0.957629,-0.965263,0.324934,0.030409,0.118563,0.153779
"2019-04-16 11:01:45.457 +0000",1555412505.456750,3.084767,-1.362350,-0.595393,0.011753,0.978354,0.206606,0.000000,0.000000,0.000000,-1,0.504337,-0.952855,-0.082975,-0.003437,-0.093008,0.285170
"2019-04-16 11:01:45.477 +0000",1555412505.476749,3.080984,-1.375820,-0.585525,0.011735,0.981052,0.193388,0.000000,0.000000,0.000000,-1,0.814323,-0.476406,-0.198189,0.100874,-0.012745,0.243380
"2019-04-16 11:01:45.497 +0000",1555412505.496767,3.091812,-1.391641,-0.571442,0.008867,0.983994,0.177978,0.000000,0.000000,0.000000,-1,0.922246,0.028396,-0.286077,0.186995,-0.002870,0.170899
"2019-04-16 11:01:45.517 +0000",1555412505.516756,3.122412,-1.408005,-0.544612,0.003108,0.986779,0.162044,0.000000,0.000000,0.000000,-1,0.686087,0.307724,-0.203557,0.259648,0.032249,0.200978
"2019-04-16 11:01:45.537 +0000",1555412505.536744,3.133042,-1.412680,-0.543610,0.001346,0.987526,0.157453,0.000000,0.000000,0.000000,-1,-0.020225,0.501876,0.141741,0.435604,0.452507,-0.048871
"2019-04-16 11:01:45.557 +0000",1555412505.556767,3.067377,-1.413942,-0.608196,0.011583,0.987724,0.155782,0.000000,0.000000,0.000000,-1,0.270150,-0.729139,0.629973,0.344390,0.491540,-0.522893
"2019-04-16 11:01:45.577 +0000",1555412505.576763,2.956666,-1.421377,-0.683442,0.027372,0.988858,0.146325,0.000000,0.000000,0.000000,-1,0.446396,-2.126752,0.437142,0.332537,0.512943,-0.378396
"2019-04-16 11:01:45.597 +0000",1555412505.596768,2.893950,-1.424740,-0.720356,0.035674,0.989353,0.141097,0.000000,0.000000,0.000000,-1,0.061581,-0.606221,0.080175,0.110734,0.117688,-0.165374
"2019-04-16 11:01:45.617 +0000",1555412505.616766,2.913004,-1.419506,-0.706963,0.034152,0.988577,0.146794,0.000000,0.000000,0.000000,-1,-0.547691,0.683739,-0.104857,0.179120,0.797464,0.140010
"2019-04-16 11:01:45.637 +0000",1555412505.636736,2.988491,-1.404465,-0.649614,0.025249,0.986199,0.163629,0.000000,0.000000,0.000000,-1,-0.669664,0.977802,-0.431562,0.246449,1.463462,0.410574
"2019-04-16 11:01:45.657 +0000",1555412505.656606,3.092946,-1.409155,-0.549244,0.007826,0.986964,0.160748,0.000000,0.000000,0.000000,-1,0.454926,-0.188669,-0.947130,-0.018080,0.171941,-0.170819
"2019-04-16 11:01:45.677 +0000",1555412505.676610,-3.132246,-1.415235,-0.475974,-0.001448,0.987925,0.154928,0.000000,0.000000,0.000000,-1,0.175030,-0.962655,-0.400777,-0.018587,-0.206873,-0.233648
"2019-04-16 11:01:45.697 +0000",1555412505.696603,-3.093005,-1.419222,-0.414177,-0.007334,0.988535,0.150816,0.000000,0.000000,0.000000,-1,0.326741,-0.999280,-0.531145,-0.084341,-0.491113,-0.292601
"2019-04-16 11:01:45.717 +0000",1555412505.716604,-3.069198,-1.432573,-0.381116,-0.009966,0.990462,0.137423,0.000000,0.000000,0.000000,-1,0.864193,-0.202651,0.134385,0.131472,-0.251693,-0.289202
"2019-04-16 11:01:45.737 +0000",1555412505.736610,3.116385,-1.452219,-0.474167,0.002982,0.992978,0.118262,0.000000,0.000000,0.000000,-1,0.946016,-0.360192,0.835089,0.272012,0.023059,-0.191077
"2019-04-16 11:01:45.757 +0000",1555412505.756594,2.947328,-1.461883,-0.636630,0.020984,0.994075,0.106653,0.000000,0.000000,0.000000,-1,0.259176,-0.235650,0.781636,0.373853,0.224431,0.075506
"2019-04-16 11:01:45.777 +0000",1555412505.776580,2.867092,-1.456002,-0.724360,0.031048,0.993418,0.110253,0.000000,0.000000,0.000000,-1,-0.324108,0.621615,0.372635,0.321720,0.037877,0.067084
"2019-04-16 11:01:45.797 +0000",1555412505.796610,2.858667,-1.453245,-0.737002,0.032741,0.993099,0.112618,0.000000,0.000000,0.000000,-1,0.129304,-0.203313,-0.009367,0.037862,-0.049388,-0.029519
"2019-04-16 11:01:45.817 +0000",1555412505.816596,2.854642,-1.462666,-0.732100,0.030544,0.994160,0.103507,0.000000,0.000000,0.000000,-1,0.517162,-0.379983,-0.233897,-0.064861,-0.216633,0.043831
"2019-04-16 11:01:45.837 +0000",1555412505.836609,2.887968,-1.468602,-0.700119,0.025597,0.994783,0.098753,0.000000,0.000000,0.000000,-1,-0.006000,0.373375,-0.198447,-0.046105,-0.371782,0.061281
"2019-04-16 11:01:45.857 +0000",1555412505.856610,2.917214,-1.461346,-0.682412,0.024304,0.994016,0.106494,0.000000,0.000000,0.000000,-1,-0.533570,0.556263,0.110715,0.065219,-0.362180,0.036710
"2019-04-16 11:01:45.877 +0000",1555412505.876609,2.913482,-1.451382,-0.688584,0.026940,0.992879,0.116045,0.000000,0.000000,0.000000,-1,-0.346335,-0.185664,0.121136,0.041740,-0.271123,0.054365
"2019-04-16 11:01:45.897 +0000",1555412505.896609,2.902569,-1.449395,-0.691750,0.028672,0.992640,0.117661,0.000000,0.000000,0.000000,-1,0.006200,-0.388649,-0.006789,-0.000168,-0.199702,0.063858
"2019-04-16 11:01:45.917 +0000",1555412505.916592,2.907429,-1.449206,-0.682476,0.028143,0.992617,0.117981,0.000000,0.000000,0.000000,-1,-0.076831,-0.106677,-0.063127,-0.010184,-0.201372,-0.022186
"2019-04-16 11:01:45.937 +0000",1555412505.936608,2.928142,-1.446422,-0.661267,0.026279,0.992276,0.121238,0.000000,0.000000,0.000000,-1,-0.202603,0.020238,-0.117978,-0.023074,-0.253796,-0.077491
"2019-04-16 11:01:45.957 +0000",1555412505.956609,2.959257,-1.441301,-0.635783,0.023415,0.991627,0.126993,0.000000,0.000000,0.000000,-1,-0.373409,0.568856,-0.084583,-0.023492,-0.233540,0.005758
"2019-04-16 11:01:45.977 +0000",1555412505.976609,2.996914,-1.428038,-0.619243,0.020512,0.989827,0.140787,0.000000,0.000000,0.000000,-1,-0.843430,1.239757,0.032559,-0.082356,-0.206182,-0.060877
"2019-04-16 11:01:45.997 +0000",1555412505.996610,3.012594,-1.412056,-0.625586,0.020335,0.987427,0.156762,0.000000,0.000000,0.000000,-1,-0.600947,0.950301,0.278662,-0.157710,-0.221039,0.096443
"2019-04-16 11:01:46.017 +0000",1555412506.016609,2.986232,-1.405951,-0.665029,0.025392,0.986444,0.162123,0.000000,0.000000,0.000000,-1,-0.185881,0.444484,0.326318,-0.127824,0.106894,-0.062407
"2019-04-16 11:01:46.037 +0000",1555412506.036591,2.992112,-1.398360,-0.667992,0.025553,0.985170,0.169670,0.000000,0.000000,0.000000,-1,-0.470927,0.504478,-0.096488,-0.100519,0.189818,0.004280
"2019-04-16 11:01:46.057 +0000",1555412506.056609,3.051600,-1.390287,-0.623077,0.016135,0.983752,0.178804,0.000000,0.000000,0.000000,-1,-0.410162,0.980296,-0.515686,-0.033820,0.323651,0.046568
"2019-04-16 11:01:46.077 +0000",1555412506.076609,-3.112938,-1.378893,-0.525505,-0.005465,0.981643,0.190650,0.000000,0.000000,0.000000,-1,-0.769501,1.011080,-1.119732,0.207888,0.401582,-0.065009
"2019-04-16 11:01:46.097 +0000",1555412506.096607,-2.970572,-1.358198,-0.395985,-0.035910,0.977486,0.207922,0.000000,0.000000,0.000000,-1,-0.880949,0.723332,-1.504293,0.342108,0.472816,-0.011099
"2019-04-16 11:01:46.117 +0000",1555412506.116609,-2.829399,-1.336555,-0.264650,-0.071291,0.972691,0.220886,0.000000,0.000000,0.000000,-1,-0.597310,0.584358,-1.754658,0.448991,0.503857,-0.042374
"2019-04-16 11:01:46.137 +0000",1555412506.136607,-2.692276,-1.315267,-0.130108,-0.109785,0.967530,0.227670,0.000000,0.000000,0.000000,-1,-0.214969,0.195723,-1.998600,0.416594,0.487716,0.026267
"2019-04-16 11:01:46.157 +0000",1555412506.156582,-2.550442,-1.292752,0.014532,-0.152970,0.961594,0.227898,0.000000,0.000000,0.000000,-1,0.010235,0.081262,-2.375565,0.473420,0.508911,0.027138
"2019-04-16 11:01:46.177 +0000",1555412506.176607,-2.408238,-1.260276,0.161217,-0.204527,0.952175,0.227006,0.000000,0.000000,0.000000,-1,0.115161,0.105300,-2.814770,0.475249,0.593052,0.077407
"2019-04-16 11:01:46.197 +0000",1555412506.196608,-2.270723,-1.221625,0.302391,-0.261684,0.939656,0.220380,0.000000,0.000000,0.000000,-1,0.408283,0.309314,-3.032784,0.408718,0.614451,0.050600
"2019-04-16 11:01:46.217 +0000",1555412506.216585,-2.141308,-1.181415,0.427369,-0.319494,0.925144,0.205016,0.000000,0.000000,0.000000,-1,0.754810,0.813688,-2.823232,0.414495,0.564281,0.066941
"2019-04-16 11:01:46.237 +0000",1555412506.236607,-2.031306,-1.145495,0.527992,-0.369614,0.910914,0.183359,0.000000,0.000000,0.000000,-1,0.852726,0.881572,-2.409121,0.321839,0.319066,0.068731
"2019-04-16 11:01:46.257 +0000",1555412506.256603,-1.945648,-1.109178,0.605393,-0.414470,0.895333,0.163076,0.000000,0.000000,0.000000,-1,0.756657,0.723738,-2.311243,0.222515,0.112434,0.124263
"2019-04-16 11:01:46.277 +0000",1555412506.276603,-1.866959,-1.073220,0.672680,-0.456517,0.878742,0.139300,0.000000,0.000000,0.000000,-1,1.002001,1.121353,-2.100915,0.175725,0.065258,0.092817
"2019-04-16 11:01:46.297 +0000",1555412506.296607,-1.790274,-1.041601,0.734972,-0.492728,0.863214,0.109914,0.000000,0.000000,0.000000,-1,1.091980,1.084527,-1.821381,0.226890,-0.101419,0.019435
"2019-04-16 11:01:46.317 +0000",1555412506.316608,-1.726043,-1.012304,0.783862,-0.523535,0.848055,0.081936,0.000000,0.000000,0.000000,-1,0.862547,1.190203,-1.563949,0.225455,-0.202502,-0.041806
"2019-04-16 11:01:46.337 +0000",1555412506.336599,-1.675205,-0.986874,0.818900,-0.548298,0.834307,0.057456,0.000000,0.000000,0.000000,-1,0.769284,0.969890,-1.250599,0.140400,-0.170931,-0.025046
"2019-04-16 11:01:46.357 +0000",1555412506.356608,-1.625483,-0.967662,0.851188,-0.566378,0.823562,0.031004,0.000000,0.000000,0.000000,-1,0.819396,1.344210,-0.872094,0.196978,-0.267394,0.033418
"2019-04-16 11:01:46.377 +0000",1555412506.376607,-1.572330,-0.957279,0.877161,-0.575746,0.817628,0.000883,0.000000,0.000000,0.000000,-1,0.679244,1.604459,-0.349944,0.252672,-0.449662,0.092974
"2019-04-16 11:01:46.397 +0000",1555412506.396584,-1.524842,-0.955006,0.898815,-0.576994,0.816317,-0.026534,0.000000,0.000000,0.000000,-1,0.573213,1.314628,0.018667,0.124190,-0.441363,-0.053453
"2019-04-16 11:01:46.417 +0000",1555412506.416607,-1.495863,-0.957749,0.914510,-0.573748,0.817899,-0.043074,0.000000,0.000000,0.000000,-1,0.380111,0.617509,0.267494,0.184084,-0.499951,-0.009996
"2019-04-16 11:01:46.437 +0000",1555412506.436607,-1.478959,-0.963815,0.926773,-0.567987,0.821373,-0.052309,0.000000,0.000000,0.000000,-1,0.271257,0.142569,0.360732,0.081964,-0.442208,-0.088743
"2019-04-16 11:01:46.457 +0000",1555412506.456589,-1.469727,-0.971933,0.939167,-0.560827,0.825977,-0.056876,0.000000,0.000000,0.000000,-1,0.380649,-0.084470,0.491045,0.051611,-0.462711,0.090217
"2019-04-16 11:01:46.477 +0000",1555412506.476604,-1.456587,-0.982065,0.956178,-0.551688,0.831646,-0.063283,0.000000,0.000000,0.000000,-1,0.400365,-0.027070,0.590539,0.063346,-0.421230,0.187002
"2019-04-16 11:01:46.497 +0000",1555412506.496606,-1.444937,-0.994386,0.969823,-0.540707,0.838424,-0.068415,0.000000,0.000000,0.000000,-1,0.245984,0.056145,0.698503,0.094250,-0.389099,0.353678
"2019-04-16 11:01:46.517 +0000",1555412506.516583,-1.433721,-1.006802,0.982061,-0.529552,0.845127,-0.073046,0.000000,0.000000,0.000000,-1,0.245889,0.031404,0.582213,0.175075,-0.215946,0.338641
"2019-04-16 11:01:46.537 +0000",1555412506.536606,-1.420716,-1.014722,0.994202,-0.521923,0.849334,-0.078924,0.000000,0.000000,0.000000,-1,0.292263,0.222046,0.343984,0.228298,0.047914,0.257696
"2019-04-16 11:01:46.557 +0000",1555412506.556606,-1.397661,-1.016722,1.011151,-0.518290,0.850388,-0.090642,0.000000,0.000000,0.000000,-1,0.529804,0.499236,0.068775,0.212748,0.265762,0.216816
"2019-04-16 11:01:46.577 +0000",1555412506.576579,-1.368212,-1.012132,1.037651,-0.519215,0.847964,-0.106648,0.000000,0.000000,0.000000,-1,0.849608,0.275460,-0.222788,0.125538,0.452146,0.191471
"2019-04-16 11:01:46.597 +0000",1555412506.596606,-1.337352,-0.997077,1.070836,-0.528037,0.839888,-0.125557,0.000000,0.000000,0.000000,-1,1.082336,0.155350,-0.717000,0.201148,0.469591,0.234657
"2019-04-16 11:01:46.617 +0000",1555412506.616606,-1.300367,-0.974024,1.101054,-0.541552,0.827154,-0.150129,0.000000,0.000000,0.000000,-1,1.147893,0.785174,-0.973894,0.265535,0.749201,0.016752
"2019-04-16 11:01:46.637 +0000",1555412506.636591,-1.246297,-0.945311,1.144607,-0.554935,0.810679,-0.186675,0.000000,0.000000,0.000000,-1,1.943035,1.205768,-1.017905,-0.037213,0.961126,0.118254
"2019-04-16 11:01:46.657 +0000",1555412506.656604,-1.153653,-0.906783,1.206409,-0.563436,0.787525,-0.249687,0.000000,0.000000,0.000000,-1,2.711566,2.608817,-1.157607,-0.000758,0.885097,0.125099
"2019-04-16 11:01:46.677 +0000",1555412506.676605,-1.037352,-0.860761,1.277677,-0.561291,0.758339,-0.331472,0.000000,0.000000,0.000000,-1,3.182105,3.377015,-0.880166,0.074277,0.783333,0.076605
"2019-04-16 11:01:46.697 +0000",1555412506.696600,-0.916173,-0.812531,1.351922,-0.545508,0.726030,-0.418691,0.000000,0.000000,0.000000,-1,3.528482,3.145894,-0.400158,0.076742,0.296507,-0.353084
"2019-04-16 11:01:46.717 +0000",1555412506.716603,-0.804974,-0.765677,1.416010,-0.519643,0.693025,-0.499686,0.000000,0.000000,0.000000,-1,2.954937,3.168057,-0.308232,0.003515,0.232252,-0.393395
"2019-04-16 11:01:46.737 +0000",1555412506.736598,-0.726567,-0.726309,1.457301,-0.496657,0.664114,-0.558824,0.000000,0.000000,0.000000,-1,2.175097,2.088156,-0.208994,-0.011553,-0.062460,-0.376372
"2019-04-16 11:01:46.757 +0000",1555412506.756581,-0.658222,-0.696656,1.491212,-0.469178,0.641657,-0.606753,0.000000,0.000000,0.000000,-1,1.871420,2.552876,0.129870,-0.188553,-0.094309,-0.240125
"2019-04-16 11:01:46.777 +0000",1555412506.776604,-0.591899,-0.665072,1.500182,-0.439026,0.617116,-0.653012,0.000000,0.000000,0.000000,-1,1.359851,2.891557,-1.192742,-0.697800,-0.238133,-0.067813
"2019-04-16 11:01:46.797 +0000",1555412506.796605,-0.548163,-0.622274,1.482723,-0.423439,0.582885,-0.693502,0.000000,0.000000,0.000000,-1,1.375368,2.897222,-1.898710,-0.228920,-0.276488,-0.075373
"2019-04-16 11:01:46.817 +0000",1555412506.816604,-0.502934,-0.580356,1.460220,-0.403080,0.548322,-0.732714,0.000000,0.000000,0.000000,-1,1.359475,2.735562,-1.806215,0.001560,-0.350781,-0.277341
"2019-04-16 11:01:46.837 +0000",1555412506.836603,-0.468047,-0.541341,1.441505,-0.386638,0.515286,-0.764847,0.000000,0.000000,0.000000,-1,1.393304,2.008661,-1.507586,-0.064030,-0.306912,-0.217849
"2019-04-16 11:01:46.857 +0000",1555412506.856604,-0.435346,-0.497511,1.425526,-0.370600,0.477240,-0.796805,0.000000,0.000000,0.000000,-1,1.879259,2.075933,-1.650703,-0.057974,-0.343222,-0.115534
"2019-04-16 11:01:46.877 +0000",1555412506.876604,-0.399716,-0.443300,1.410093,-0.351541,0.428923,-0.832132,0.000000,0.000000,0.000000,-1,2.371484,2.173363,-1.758518,0.167703,-0.456603,0.149927
"2019-04-16 11:01:46.897 +0000",1555412506.896604,-0.361799,-0.384886,1.393635,-0.328062,0.375454,-0.866839,0.000000,0.000000,0.000000,-1,2.419002,2.111475,-1.743021,0.191343,-0.425106,0.204348
"2019-04-16 11:01:46.917 +0000",1555412506.916604,-0.333198,-0.329229,1.376448,-0.309501,0.323313,-0.894247,0.000000,0.000000,0.000000,-1,2.279955,1.516929,-1.704649,0.238059,-0.363444,0.307257
"2019-04-16 11:01:46.937 +0000",1555412506.936604,-0.314426,-0.277402,1.354535,-0.297447,0.273858,-0.914619,0.000000,0.000000,0.000000,-1,1.980265,1.161357,-1.901772,0.156120,-0.247918,0.347877
"2019-04-16 11:01:46.957 +0000",1555412506.956602,-0.298820,-0.231173,1.322632,-0.286561,0.229119,-0.930262,0.000000,0.000000,0.000000,-1,1.707787,1.270723,-2.373455,0.161851,-0.195779,0.394449
"2019-04-16 11:01:46.977 +0000",1555412506.976604,-0.273659,-0.181427,1.282978,-0.265821,0.180433,-0.946986,0.000000,0.000000,0.000000,-1,1.915395,1.948961,-2.589041,0.283154,-0.220243,0.472057
"2019-04-16 11:01:46.997 +0000",1555412506.996597,-0.226271,-0.133384,1.245598,-0.222352,0.132989,-0.965854,0.000000,0.000000,0.000000,-1,1.765343,3.170367,-2.246654,0.335587,-0.104943,0.538364
"2019-04-16 11:01:47.017 +0000",1555412507.016599,-0.158329,-0.098752,1.208725,-0.156900,0.098592,-0.982681,0.000000,0.000000,0.000000,-1,1.047988,3.507142,-2.093411,0.275262,-0.007298,0.400879
"2019-04-16 11:01:47.037 +0000",1555412507.036598,-0.116167,-0.079824,1.171055,-0.115537,0.079739,-0.990097,0.000000,0.000000,0.000000,-1,0.527131,1.492975,-1.913630,0.231259,0.144092,0.228806
"2019-04-16 11:01:47.057 +0000",1555412507.056596,-0.099938,-0.068278,1.137554,-0.099540,0.068225,-0.992692,0.000000,0.000000,0.000000,-1,0.458045,0.711415,-1.619547,-0.106225,0.169751,-0.190566
"2019-04-16 11:01:47.077 +0000",1555412507.076599,-0.095279,-0.047471,1.105998,-0.095028,0.047454,-0.994343,0.000000,0.000000,0.000000,-1,0.943402,0.601509,-1.714782,0.094540,0.198121,0.090229
"2019-04-16 11:01:47.097 +0000",1555412507.096937,-0.083726,-0.044831,1.071357,-0.083544,0.044816,-0.995496,0.000000,0.000000,0.000000,-1,0.606018,0.664695,-1.702960,0.008685,0.303695,0.069669
"2019-04-16 11:01:47.117 +0000",1555412507.116600,-0.076593,-0.035069,1.046068,-0.076471,0.035062,-0.996455,0.000000,0.000000,0.000000,-1,0.345447,0.356901,-0.953374,0.116724,0.395709,-0.265142
"2019-04-16 11:01:47.137 +0000",1555412507.136599,-0.081297,-0.027983,1.033680,-0.081176,0.027979,-0.996307,0.000000,0.000000,0.000000,-1,0.309031,-0.859325,-0.585561,0.127730,0.251455,-0.470887
"2019-04-16 11:01:47.157 +0000",1555412507.156600,-0.106258,-0.024889,1.021738,-0.106026,0.024886,-0.994052,0.000000,0.000000,0.000000,-1,-0.055563,-1.211366,-0.700303,0.022621,0.586488,-0.450391
"2019-04-16 11:01:47.177 +0000",1555412507.176599,-0.121902,-0.029360,1.003703,-0.121548,0.029355,-0.992151,0.000000,0.000000,0.000000,-1,-0.527133,-0.391652,-0.971330,0.069820,0.266436,-0.269598
"2019-04-16 11:01:47.197 +0000",1555412507.196590,-0.121808,-0.032078,0.974523,-0.121444,0.032073,-0.992080,0.000000,0.000000,0.000000,-1,0.107235,-0.042474,-1.778005,0.151443,0.096055,-0.485566
"2019-04-16 11:01:47.217 +0000",1555412507.216573,-0.152888,-0.009502,0.932363,-0.152287,0.009502,-0.988291,0.000000,0.000000,0.000000,-1,1.105065,-2.146029,-2.327809,0.103535,0.386448,-0.028677
"2019-04-16 11:01:47.237 +0000",1555412507.236598,-0.148420,0.012720,0.895550,-0.147863,-0.012720,-0.988926,0.000000,0.000000,0.000000,-1,0.849381,1.530039,-1.725920,-0.105799,0.271036,-0.165996
