timestamp,timeIntervalSince1970,attitude.roll,attitude.pitch,attitude.yaw,gravity.x,gravity.y,gravity.z,magneticField.x,magneticField.y,magneticField.z,magneticField.accuracy,rotationRate.x,rotationRate.y,rotationRate.z,userAcceleration.x,userAcceleration.y,userAcceleration.z
"2019-04-16 05:19:56.120 +0000",1555391996.119671,0.288280,0.732380,-0.117310,0.211404,-0.668641,-0.712901,0.000000,0.000000,0.000000,-1,0.664718,-2.856210,0.103188,-0.049981,0.048356,-0.110571
"2019-04-16 05:19:56.142 +0000",1555391996.141987,0.232754,0.740452,-0.119487,0.170263,-0.674622,-0.718259,0.000000,0.000000,0.000000,-1,0.260177,-2.514000,-0.110915,-0.202139,0.100739,0.010953
"2019-04-16 05:19:56.164 +0000",1555391996.164264,0.185244,0.743642,-0.131596,0.135562,-0.676973,-0.723416,0.000000,0.000000,0.000000,-1,0.197359,-2.420650,-0.459122,-0.320163,0.056779,0.130169
"2019-04-16 05:19:56.187 +0000",1555391996.186563,0.154396,0.740780,-0.144743,0.113483,-0.674863,-0.729165,0.000000,0.000000,0.000000,-1,-0.307335,-1.479640,-0.419311,-0.303211,-0.066348,0.144433
"2019-04-16 05:19:56.209 +0000",1555391996.208882,0.137241,0.727800,-0.156775,0.102148,-0.665229,-0.739619,0.000000,0.000000,0.000000,-1,-0.588416,-0.780356,-0.563338,-0.301611,-0.086434,0.113475
"2019-04-16 05:19:56.231 +0000",1555391996.231179,0.139352,0.710723,-0.173332,0.105272,-0.652382,-0.750544,0.000000,0.000000,0.000000,-1,-0.732776,-0.224852,-0.683702,-0.299532,0.032463,0.123789
"2019-04-16 05:19:56.253 +0000",1555391996.253466,0.140418,0.689633,-0.187438,0.107974,-0.636254,-0.763886,0.000000,0.000000,0.000000,-1,-0.905397,-0.498617,-0.520075,-0.353137,0.000588,0.173203
"2019-04-16 05:19:56.276 +0000",1555391996.275772,0.122897,0.674736,-0.192729,0.095725,-0.624691,-0.774982,0.000000,0.000000,0.000000,-1,-0.444087,-1.124481,-0.178135,-0.421729,-0.089511,0.118885
"2019-04-16 05:19:56.298 +0000",1555391996.298083,0.095103,0.662174,-0.192695,0.074890,-0.614833,-0.785094,0.000000,0.000000,0.000000,-1,-0.897471,-1.471928,0.049292,-0.346009,-0.038152,0.115126
"2019-04-16 05:19:56.320 +0000",1555391996.320359,0.051919,0.624836,-0.190130,0.042090,-0.584964,-0.809966,0.000000,0.000000,0.000000,-1,-2.149396,-1.805654,-0.223682,-0.035941,-0.118466,0.065337
"2019-04-16 05:19:56.343 +0000",1555391996.342667,0.018663,0.557390,-0.193141,0.015838,-0.528973,-0.848491,0.000000,0.000000,0.000000,-1,-3.450236,-1.218698,-0.336078,-0.465529,0.106045,0.052791
"2019-04-16 05:19:56.365 +0000",1555391996.364975,-0.016925,0.468882,-0.198349,-0.015097,-0.451889,-0.891946,0.000000,0.000000,0.000000,-1,-4.201642,-2.146013,-0.192939,-0.246057,-0.051865,0.100870
"2019-04-16 05:19:56.387 +0000",1555391996.387283,-0.079512,0.372825,-0.208442,-0.073972,-0.364248,-0.928360,0.000000,0.000000,0.000000,-1,-4.271752,-3.397361,-0.257534,-0.317416,-0.394480,0.257812
"2019-04-16 05:19:56.410 +0000",1555391996.409562,-0.154567,0.295790,-0.230938,-0.147266,-0.291496,-0.945168,0.000000,0.000000,0.000000,-1,-2.876808,-3.751866,-0.785982,-0.136532,-0.002007,0.166573
"2019-04-16 05:19:56.432 +0000",1555391996.431865,-0.221626,0.269932,-0.273119,-0.211857,-0.266666,-0.940216,0.000000,0.000000,0.000000,-1,-0.788777,-3.161158,-2.228118,-0.086346,0.002018,0.179596
"2019-04-16 05:19:56.454 +0000",1555391996.454176,-0.268922,0.285607,-0.349476,-0.254930,-0.281740,-0.925004,0.000000,0.000000,0.000000,-1,0.107314,-3.193261,-3.949320,-0.156783,0.034716,0.284196
"2019-04-16 05:19:56.476 +0000",1555391996.476482,-0.329174,0.312627,-0.448957,-0.307592,-0.307560,-0.900441,0.000000,0.000000,0.000000,-1,-0.387811,-4.620305,-4.548451,-0.241373,-0.016461,0.279134
"2019-04-16 05:19:56.499 +0000",1555391996.498756,-0.415521,0.319746,-0.551780,-0.383207,-0.314325,-0.868535,0.000000,0.000000,0.000000,-1,-1.887997,-5.500000,-3.782074,-0.003741,0.049448,0.429524
"2019-04-16 05:19:56.521 +0000",1555391996.521071,-0.517323,0.290965,-0.636252,-0.473768,-0.286877,-0.832614,0.000000,0.000000,0.000000,-1,-3.234312,-5.964667,-1.956172,0.295148,0.120678,0.578067
"2019-04-16 05:19:56.543 +0000",1555391996.543378,-0.639162,0.257667,-0.696622,-0.576830,-0.254826,-0.776100,0.000000,0.000000,0.000000,-1,-1.400039,-5.613212,-1.297297,0.571169,0.089817,0.634208
"2019-04-16 05:19:56.566 +0000",1555391996.565685,-0.751042,0.280335,-0.718692,-0.655762,-0.276678,-0.702443,0.000000,0.000000,0.000000,-1,1.288603,-4.816133,-1.289575,0.768997,-0.042124,0.711675
"2019-04-16 05:19:56.588 +0000",1555391996.587964,-0.864491,0.322766,-0.697449,-0.721480,-0.317191,-0.615513,0.000000,0.000000,0.000000,-1,2.107615,-5.160204,-0.327232,0.430556,0.052100,0.697712
"2019-04-16 05:19:56.610 +0000",1555391996.610270,-0.994032,0.342590,-0.656176,-0.789520,-0.335927,-0.513625,0.000000,0.000000,0.000000,-1,1.823886,-5.180353,0.538723,0.091034,0.066335,0.387831
"2019-04-16 05:19:56.633 +0000",1555391996.632552,-1.122352,0.359972,-0.623353,-0.843367,-0.352248,-0.405776,0.000000,0.000000,0.000000,-1,1.412006,-5.325895,-0.471202,0.005644,-0.052186,0.485076
"2019-04-16 05:19:56.655 +0000",1555391996.654871,-1.254261,0.386658,-0.604273,-0.880162,-0.377095,-0.288296,0.000000,0.000000,0.000000,-1,0.814121,-5.495516,-0.642319,-0.018566,-0.047892,0.310665
"2019-04-16 05:19:56.677 +0000",1555391996.677162,-1.381979,0.387032,-0.595431,-0.909575,-0.377441,-0.173814,0.000000,0.000000,0.000000,-1,0.122083,-5.723022,0.407661,-0.128892,-0.023804,0.146180
"2019-04-16 05:19:56.699 +0000",1555391996.699471,-1.496817,0.380067,-0.606157,-0.926100,-0.370983,-0.068637,0.000000,0.000000,0.000000,-1,-0.826903,-4.494730,0.029152,-0.282015,-0.123875,0.071506
"2019-04-16 05:19:56.722 +0000",1555391996.721780,-1.561443,0.381622,-0.628156,-0.928021,-0.372426,-0.008680,0.000000,0.000000,0.000000,-1,-0.871932,-2.857166,0.092750,-0.266696,-0.285502,0.040983
"2019-04-16 05:19:56.744 +0000",1555391996.744088,-1.614570,0.360047,-0.642611,-0.934984,-0.352318,0.040954,0.000000,0.000000,0.000000,-1,-0.401897,-2.562456,1.497109,-0.539717,-0.347206,-0.045012
"2019-04-16 05:19:56.766 +0000",1555391996.766365,-1.661940,0.315726,-0.658884,-0.946626,-0.310506,0.086519,0.000000,0.000000,0.000000,-1,-0.984529,-2.260987,2.218659,-0.761535,-0.333415,-0.017091
"2019-04-16 05:19:56.789 +0000",1555391996.788672,-1.689793,0.271546,-0.736873,-0.956545,-0.268221,0.114366,0.000000,0.000000,0.000000,-1,-3.901932,-2.246043,2.266898,-0.782042,-0.514875,-0.140351
"2019-04-16 05:19:56.811 +0000",1555391996.810981,-1.716447,0.232257,-0.831426,-0.962845,-0.230174,0.141239,0.000000,0.000000,0.000000,-1,-3.435442,-2.249613,1.928462,-0.569885,-0.560811,-0.272434
"2019-04-16 05:19:56.833 +0000",1555391996.833259,-1.743174,0.227180,-0.881854,-0.959866,-0.225231,0.167118,0.000000,0.000000,0.000000,-1,-1.523541,-1.113596,-0.040857,-0.500461,-0.704869,-0.324665
"2019-04-16 05:19:56.856 +0000",1555391996.855566,-1.756451,0.239959,-0.907626,-0.954656,-0.237663,0.179301,0.000000,0.000000,0.000000,-1,-1.006268,-0.917369,-0.570848,-0.201030,-0.282189,-0.127406
"2019-04-16 05:19:56.878 +0000",1555391996.877874,-1.755308,0.264647,-0.917237,-0.948802,-0.261569,0.177079,0.000000,0.000000,0.000000,-1,-0.715130,0.431564,-1.381606,-0.143392,-0.181180,-0.234803
"2019-04-16 05:19:56.900 +0000",1555391996.900182,-1.739913,0.313765,-0.936975,-0.937609,-0.308642,0.160094,0.000000,0.000000,0.000000,-1,-1.253031,0.317334,-2.233074,-0.116362,-0.212858,-0.150847
"2019-04-16 05:19:56.922 +0000",1555391996.922461,-1.742833,0.355462,-0.944883,-0.923647,-0.348024,0.160487,0.000000,0.000000,0.000000,-1,-0.409380,-0.692232,-1.268534,-0.145674,-0.084425,-0.041347
"2019-04-16 05:19:56.945 +0000",1555391996.944767,-1.763193,0.376488,-0.970410,-0.912803,-0.367657,0.177820,0.000000,0.000000,0.000000,-1,-2.231577,-1.405723,-0.750638,-0.184686,0.288540,0.095816
"2019-04-16 05:19:56.967 +0000",1555391996.967076,-1.772281,0.401885,-1.055304,-0.901708,-0.391154,0.184179,0.000000,0.000000,0.000000,-1,-3.924909,-2.264580,0.017952,-0.338756,0.321574,0.062250
"2019-04-16 05:19:56.989 +0000",1555391996.989384,-1.781156,0.418571,-1.131426,-0.893530,-0.406455,0.190785,0.000000,0.000000,0.000000,-1,-2.870120,-0.958624,-0.537786,-0.071726,0.131187,0.150264
"2019-04-16 05:19:57.012 +0000",1555391997.011662,-1.755771,0.475915,-1.173444,-0.873711,-0.458152,0.163483,0.000000,0.000000,0.000000,-1,-1.805273,1.281917,-3.091643,0.369621,-0.458245,0.116867
"2019-04-16 05:19:57.034 +0000",1555391997.033969,-1.693064,0.564339,-1.202720,-0.838635,-0.534857,0.103052,0.000000,0.000000,0.000000,-1,-1.725181,2.380903,-3.937489,0.553448,-0.349252,-0.124200
"2019-04-16 05:19:57.056 +0000",1555391997.056289,-1.660346,0.627355,-1.187243,-0.806339,-0.587005,0.072401,0.000000,0.000000,0.000000,-1,1.889933,1.488481,-1.611929,0.393894,-0.003082,-0.035093
"2019-04-16 05:19:57.079 +0000",1555391997.078576,-1.695261,0.627937,-1.129626,-0.802981,-0.587476,0.100462,0.000000,0.000000,0.000000,-1,1.189997,-0.844081,0.008775,0.565005,-0.208468,-0.206923
"2019-04-16 05:19:57.101 +0000",1555391997.100861,-1.712730,0.634908,-1.130300,-0.797030,-0.593104,0.113891,0.000000,0.000000,0.000000,-1,-0.378475,-0.666957,-0.461154,0.370882,-0.109823,-0.214248
"2019-04-16 05:19:57.123 +0000",1555391997.123171,-1.706371,0.643836,-1.156038,-0.792460,-0.600267,0.108101,0.000000,0.000000,0.000000,-1,-1.287162,-0.054528,0.226483,0.163172,-0.084165,-0.202583
"2019-04-16 05:19:57.145 +0000",1555391997.145484,-1.647995,0.648564,-1.208247,-0.794579,-0.604042,0.061462,0.000000,0.000000,0.000000,-1,-2.213551,1.362336,-0.386396,0.386177,-0.077583,0.363037
"2019-04-16 05:19:57.168 +0000",1555391997.167770,-1.611689,0.666182,-1.256235,-0.785530,-0.617989,0.032141,0.000000,0.000000,0.000000,-1,-1.141652,-0.207554,-0.876902,-0.126107,-0.189094,0.111536
"2019-04-16 05:19:57.190 +0000",1555391997.190088,-1.614788,0.694119,-1.256018,-0.767874,-0.639708,0.033802,0.000000,0.000000,0.000000,-1,0.452021,0.077804,-1.379930,0.086218,0.489852,0.420819
"2019-04-16 05:19:57.212 +0000",1555391997.212365,-1.625204,0.717123,-1.241166,-0.752585,-0.657219,0.040987,0.000000,0.000000,0.000000,-1,0.206278,-0.307070,-0.673233,-0.104807,-0.566811,-0.045748
"2019-04-16 05:19:57.235 +0000",1555391997.234679,-1.653629,0.705121,-1.269464,-0.758922,-0.648126,0.063008,0.000000,0.000000,0.000000,-1,-1.293846,-3.364023,1.397671,0.071223,-0.356299,-0.194966
"2019-04-16 05:19:57.257 +0000",1555391997.256967,-1.672840,0.681576,-1.306110,-0.772541,-0.630018,0.079107,0.000000,0.000000,0.000000,-1,-1.174157,-0.856773,0.797375,0.359638,-0.204089,-0.049246
"2019-04-16 05:19:57.279 +0000",1555391997.279264,-1.659455,0.672360,-1.324818,-0.779281,-0.622834,0.069271,0.000000,0.000000,0.000000,-1,-0.456267,0.136045,0.421669,0.293899,-0.046661,0.145771
"2019-04-16 05:19:57.302 +0000",1555391997.301574,-1.659150,0.668451,-1.336401,-0.781722,-0.619771,0.069249,0.000000,0.000000,0.000000,-1,-0.413134,-0.533392,0.038100,0.373549,-0.538966,0.032604
"2019-04-16 05:19:57.324 +0000",1555391997.323879,-1.653399,0.668043,-1.357764,-0.782359,-0.619451,0.064772,0.000000,0.000000,0.000000,-1,-0.807009,-0.135298,0.276303,0.293284,-0.381312,-0.105467
"2019-04-16 05:19:57.346 +0000",1555391997.346188,-1.648075,0.658379,-1.371080,-0.788624,-0.611836,0.061066,0.000000,0.000000,0.000000,-1,-0.239241,-0.107252,0.468581,0.041844,-0.233456,0.076614
"2019-04-16 05:19:57.368 +0000",1555391997.368465,-1.635235,0.656693,-1.381572,-0.790372,-0.610501,0.051001,0.000000,0.000000,0.000000,-1,-0.502076,0.618588,-0.127231,-0.109454,-0.114047,-0.009192
"2019-04-16 05:19:57.391 +0000",1555391997.390773,-1.604733,0.669498,-1.400724,-0.783682,-0.620593,0.026606,0.000000,0.000000,0.000000,-1,-0.818353,0.961356,-0.844961,0.409979,-0.128675,-0.038004
"2019-04-16 05:19:57.413 +0000",1555391997.413080,-1.569251,0.709674,-1.416483,-0.758573,-0.651586,-0.001172,0.000000,0.000000,0.000000,-1,-0.271094,1.262103,-2.344729,0.221159,0.113150,0.021497
"2019-04-16 05:19:57.435 +0000",1555391997.435388,-1.552647,0.776149,-1.393823,-0.713499,-0.700536,-0.012951,0.000000,0.000000,0.000000,-1,1.397591,1.520251,-3.212203,0.051985,0.011816,0.082485
"2019-04-16 05:19:57.458 +0000",1555391997.457666,-1.580432,0.846866,-1.320761,-0.662303,-0.749209,0.006382,0.000000,0.000000,0.000000,-1,2.687729,1.069028,-2.971942,-0.015004,0.040102,0.003964
"2019-04-16 05:19:57.480 +0000",1555391997.479975,-1.626511,0.900881,-1.230996,-0.619956,-0.783874,0.034577,0.000000,0.000000,0.000000,-1,2.034736,0.809774,-2.184656,-0.054848,0.084228,-0.127472
"2019-04-16 05:19:57.502 +0000",1555391997.502281,-1.662510,0.950456,-1.170606,-0.578869,-0.813681,0.053239,0.000000,0.000000,0.000000,-1,1.406739,0.462092,-2.635877,0.139996,-0.197123,-0.315157
"2019-04-16 05:19:57.525 +0000",1555391997.524564,-1.768847,1.011069,-1.090394,-0.520576,-0.847400,0.104470,0.000000,0.000000,0.000000,-1,1.447422,-3.451524,-2.767352,0.153617,-0.257977,0.163994
"2019-04-16 05:19:57.547 +0000",1555391997.546866,-1.862557,1.043875,-1.077562,-0.481623,-0.864359,0.144646,0.000000,0.000000,0.000000,-1,-0.706192,-3.198155,-0.631832,0.034449,-0.111578,0.124977
"2019-04-16 05:19:57.569 +0000",1555391997.569169,-1.886188,1.042826,-1.091315,-0.478932,-0.863831,0.156267,0.000000,0.000000,0.000000,-1,0.311706,-0.495174,0.297346,0.038869,0.205232,-0.287859
"2019-04-16 05:19:57.591 +0000",1555391997.591483,-1.908673,1.032167,-1.042200,-0.483957,-0.858413,0.170038,0.000000,0.000000,0.000000,-1,1.429815,1.464125,0.086909,0.539530,-0.012223,0.025061
"2019-04-16 05:19:57.614 +0000",1555391997.613791,-1.906481,1.017333,-0.998354,-0.496298,-0.850709,0.173153,0.000000,0.000000,0.000000,-1,0.962142,1.755431,0.394258,0.451849,-0.594069,0.131077
"2019-04-16 05:19:57.636 +0000",1555391997.636067,-1.885217,0.996991,-0.991290,-0.516220,-0.839841,0.167879,0.000000,0.000000,0.000000,-1,0.144054,0.752836,1.116118,0.414475,-0.336093,-0.124498
"2019-04-16 05:19:57.658 +0000",1555391997.658376,-1.853827,0.975498,-1.011081,-0.538445,-0.827981,0.156600,0.000000,0.000000,0.000000,-1,-0.273984,1.092910,0.667566,0.536904,-0.216101,0.109665
"2019-04-16 05:19:57.681 +0000",1555391997.680665,-1.807650,0.962951,-1.015790,-0.555156,-0.820880,0.134006,0.000000,0.000000,0.000000,-1,-0.207225,2.020096,0.887624,0.506999,0.007785,0.056744
"2019-04-16 05:19:57.703 +0000",1555391997.702991,-1.747731,0.947922,-1.053941,-0.574264,-0.812205,0.102681,0.000000,0.000000,0.000000,-1,-1.031154,0.876696,0.507891,0.574722,-0.263036,0.115596
"2019-04-16 05:19:57.725 +0000",1555391997.725269,-1.726701,0.945423,-1.079850,-0.578300,-0.810745,0.090897,0.000000,0.000000,0.000000,-1,-0.281024,-0.246507,0.088955,-0.096642,-0.052338,0.129165
"2019-04-16 05:19:57.748 +0000",1555391997.747592,-1.726763,0.945809,-1.079795,-0.577985,-0.810970,0.090884,0.000000,0.000000,0.000000,-1,-0.044498,0.065334,-0.097312,-0.263888,-0.290333,-0.008304
"2019-04-16 05:19:57.770 +0000",1555391997.769885,-1.712360,0.957964,-1.090618,-0.569433,-0.818022,0.081154,0.000000,0.000000,0.000000,-1,-0.546712,0.314313,-0.871353,-0.071589,-0.406114,-0.119224
"2019-04-16 05:19:57.792 +0000",1555391997.792193,-1.673927,0.976996,-1.108401,-0.556542,-0.828821,0.057601,0.000000,0.000000,0.000000,-1,-0.495250,1.605109,-0.464727,0.240166,-0.028037,-0.061125
"2019-04-16 05:19:57.814 +0000",1555391997.814471,-1.624890,0.977793,-1.125448,-0.558037,-0.829266,0.030215,0.000000,0.000000,0.000000,-1,-0.318412,1.536233,0.156231,0.261925,0.117382,0.150067
"2019-04-16 05:19:57.837 +0000",1555391997.836780,-1.601585,0.977657,-1.112717,-0.558702,-0.829190,0.017207,0.000000,0.000000,0.000000,-1,0.555235,1.587721,-0.622912,0.319612,0.185132,0.130864
"2019-04-16 05:19:57.859 +0000",1555391997.859088,-1.577456,1.050433,-1.081517,-0.497184,-0.867639,0.003311,0.000000,0.000000,0.000000,-1,0.993976,2.052878,-4.770259,0.546592,0.438516,0.047272
"2019-04-16 05:19:57.881 +0000",1555391997.881394,-1.636733,1.133564,-0.983368,-0.422513,-0.905927,0.027900,0.000000,0.000000,0.000000,-1,2.405390,0.822898,-2.649817,0.063184,0.298093,-0.068183
"2019-04-16 05:19:57.904 +0000",1555391997.903693,-1.766010,1.159329,-0.826730,-0.392358,-0.916535,0.077582,0.000000,0.000000,0.000000,-1,2.590335,1.034745,-1.010383,-0.524222,-1.046051,-0.169150
"2019-04-16 05:19:57.926 +0000",1555391997.925980,-1.837246,1.158295,-0.728995,-0.386755,-0.916121,0.105561,0.000000,0.000000,0.000000,-1,0.882837,0.154593,-0.020793,-0.005945,-0.469042,0.057037
"2019-04-16 05:19:57.948 +0000",1555391997.948288,-1.826672,1.156085,-0.778575,-0.389808,-0.915232,0.101977,0.000000,0.000000,0.000000,-1,-1.271111,-1.752086,0.549731,1.300406,-0.288289,-0.242435
"2019-04-16 05:19:57.971 +0000",1555391997.970570,-1.799174,1.123035,-0.867715,-0.421707,-0.901418,0.098019,0.000000,0.000000,0.000000,-1,-1.050091,-3.085769,2.067681,0.292313,-0.108332,0.477909
"2019-04-16 05:19:57.993 +0000",1555391997.992873,-1.802662,1.113503,-0.930307,-0.429706,-0.897251,0.101459,0.000000,0.000000,0.000000,-1,-1.059260,-2.136869,0.274115,0.175036,-0.012417,0.568601
"2019-04-16 05:19:58.015 +0000",1555391998.015181,-1.803076,1.107530,-0.957592,-0.434872,-0.894597,0.102869,0.000000,0.000000,0.000000,-1,-0.657932,-0.995957,0.374568,0.594006,-0.079127,0.091498
"2019-04-16 05:19:58.037 +0000",1555391998.037489,-1.803170,1.111465,-1.024504,-0.431433,-0.896349,0.102098,0.000000,0.000000,0.000000,-1,-0.276291,-1.798180,-0.027526,0.019064,0.018831,-0.182130
"2019-04-16 05:19:58.060 +0000",1555391998.059796,-1.809665,1.108541,-1.014675,-0.433305,-0.895049,0.105518,0.000000,0.000000,0.000000,-1,0.145622,-0.424422,0.160187,0.179002,0.016784,-0.181171
"2019-04-16 05:19:58.082 +0000",1555391998.082079,-1.821018,1.104620,-1.009658,-0.435476,-0.893293,0.111298,0.000000,0.000000,0.000000,-1,0.136881,-0.224004,0.136075,-0.016184,-0.028810,-0.048066
"2019-04-16 05:19:58.104 +0000",1555391998.104381,-1.829001,1.101777,-1.005763,-0.437028,-0.892012,0.115419,0.000000,0.000000,0.000000,-1,0.068980,-0.206979,0.092476,0.046845,-0.344499,-0.230714
"2019-04-16 05:19:58.127 +0000",1555391998.126689,-1.833950,1.099186,-1.007381,-0.438681,-0.890838,0.118181,0.000000,0.000000,0.000000,-1,-0.033719,-0.338414,0.153144,0.132208,-0.123887,0.058790
"2019-04-16 05:19:58.149 +0000",1555391998.148998,-1.837065,1.095404,-1.014980,-0.441558,-0.889113,0.120433,0.000000,0.000000,0.000000,-1,-0.155200,-0.547374,0.220493,0.196304,-0.114946,0.047673
"2019-04-16 05:19:58.171 +0000",1555391998.171275,-1.839066,1.092497,-1.028675,-0.443806,-0.887779,0.122001,0.000000,0.000000,0.000000,-1,-0.278334,-0.734485,0.201012,0.247609,-0.186775,0.055795
"2019-04-16 05:19:58.194 +0000",1555391998.193581,-1.840073,1.090042,-1.045511,-0.445784,-0.886646,0.123027,0.000000,0.000000,0.000000,-1,-0.306012,-0.721051,0.178551,0.324507,-0.150784,0.017857
"2019-04-16 05:19:58.216 +0000",1555391998.215891,-1.843458,1.088581,-1.060305,-0.446611,-0.885970,0.124884,0.000000,0.000000,0.000000,-1,-0.258636,-0.738516,0.110497,0.328722,-0.148500,0.026300
"2019-04-16 05:19:58.238 +0000",1555391998.238201,-1.849292,1.087305,-1.073460,-0.446961,-0.885377,0.127798,0.000000,0.000000,0.000000,-1,-0.254777,-0.840461,0.151101,0.324387,-0.101530,0.009516
"2019-04-16 05:19:58.260 +0000",1555391998.260475,-1.858628,1.086487,-1.084273,-0.446443,-0.884997,0.132171,0.000000,0.000000,0.000000,-1,-0.188578,-0.852993,0.084251,0.307939,-0.091825,-0.017577
"2019-04-16 05:19:58.283 +0000",1555391998.282784,-1.870621,1.085709,-1.092879,-0.445484,-0.884634,0.137719,0.000000,0.000000,0.000000,-1,-0.145881,-0.878744,0.100625,0.266331,-0.021570,-0.036645
"2019-04-16 05:19:58.305 +0000",1555391998.305092,-1.884140,1.084757,-1.100554,-0.444382,-0.884190,0.143988,0.000000,0.000000,0.000000,-1,-0.139709,-0.915717,0.082348,0.265900,-0.031627,-0.042975
"2019-04-16 05:19:58.327 +0000",1555391998.327400,-1.899922,1.084472,-1.108593,-0.442293,-0.884057,0.151064,0.000000,0.000000,0.000000,-1,-0.170066,-1.062262,0.045179,0.251909,-0.052009,-0.042010
"2019-04-16 05:19:58.350 +0000",1555391998.349677,-1.916171,1.085488,-1.117440,-0.438935,-0.884531,0.157927,0.000000,0.000000,0.000000,-1,-0.207879,-1.103020,0.007068,0.297531,-0.042822,-0.071684
"2019-04-16 05:19:58.372 +0000",1555391998.371985,-1.932698,1.087420,-1.126924,-0.434666,-0.885431,0.164554,0.000000,0.000000,0.000000,-1,-0.216829,-1.122854,-0.031217,0.280812,-0.029197,-0.111407
"2019-04-16 05:19:58.394 +0000",1555391998.394284,-1.950706,1.089716,-1.135508,-0.429743,-0.886496,0.171600,0.000000,0.000000,0.000000,-1,-0.201811,-1.167136,-0.032058,0.270121,-0.049784,-0.102493
"2019-04-16 05:19:58.417 +0000",1555391998.416576,-1.970405,1.092321,-1.142618,-0.424151,-0.887698,0.179132,0.000000,0.000000,0.000000,-1,-0.164310,-1.164785,-0.064317,0.272509,-0.027524,-0.155481
"2019-04-16 05:19:58.439 +0000",1555391998.438879,-1.992799,1.094789,-1.146738,-0.418034,-0.888831,0.187688,0.000000,0.000000,0.000000,-1,-0.097861,-1.173391,-0.070415,0.267582,-0.017037,-0.177647
"2019-04-16 05:19:58.461 +0000",1555391998.461187,-2.017222,1.097133,-1.148443,-0.411445,-0.889903,0.196940,0.000000,0.000000,0.000000,-1,-0.060272,-1.152516,-0.084230,0.248359,-0.046895,-0.189158
"2019-04-16 05:19:58.483 +0000",1555391998.483495,-2.042663,1.099104,-1.148294,-0.404739,-0.890801,0.206545,0.000000,0.000000,0.000000,-1,-0.021324,-1.124164,-0.073300,0.219848,-0.077827,-0.200960
"2019-04-16 05:19:58.506 +0000",1555391998.505795,-2.068023,1.100280,-1.146962,-0.398450,-0.891335,0.216241,0.000000,0.000000,0.000000,-1,0.021484,-1.049003,-0.046657,0.189389,-0.103615,-0.226648
"2019-04-16 05:19:58.528 +0000",1555391998.528080,-2.091780,1.100332,-1.144163,-0.393161,-0.891358,0.225623,0.000000,0.000000,0.000000,-1,0.068098,-0.892663,-0.023214,0.175190,-0.119171,-0.247931
"2019-04-16 05:19:58.550 +0000",1555391998.550388,-2.113192,1.099345,-1.139943,-0.388993,-0.890910,0.234443,0.000000,0.000000,0.000000,-1,0.114731,-0.737534,0.005202,0.144181,-0.138417,-0.278541
"2019-04-16 05:19:58.573 +0000",1555391998.572697,-2.132442,1.096273,-1.135705,-0.386723,-0.889511,0.243343,0.000000,0.000000,0.000000,-1,0.160395,-0.671877,0.118768,0.107319,-0.149964,-0.292461
"2019-04-16 05:19:58.595 +0000",1555391998.595003,-2.149115,1.090151,-1.133288,-0.387166,-0.886697,0.252729,0.000000,0.000000,0.000000,-1,0.198602,-0.640581,0.254966,0.107609,-0.148429,-0.317335
"2019-04-16 05:19:58.617 +0000",1555391998.617281,-2.162416,1.081519,-1.133444,-0.390109,-0.882673,0.262115,0.000000,0.000000,0.000000,-1,0.216638,-0.571280,0.359805,0.139849,-0.157641,-0.349716
"2019-04-16 05:19:58.640 +0000",1555391998.639599,-2.170226,1.072162,-1.136232,-0.394851,-0.878237,0.269802,0.000000,0.000000,0.000000,-1,0.156650,-0.386692,0.382951,0.152359,-0.204115,-0.297512
"2019-04-16 05:19:58.662 +0000",1555391998.661896,-2.170473,1.065132,-1.143168,-0.399872,-0.874853,0.273377,0.000000,0.000000,0.000000,-1,-0.036697,-0.232043,0.313266,0.139419,-0.201334,-0.264329
"2019-04-16 05:19:58.684 +0000",1555391998.684204,-2.160508,1.064309,-1.160008,-0.403175,-0.874454,0.269779,0.000000,0.000000,0.000000,-1,-0.429818,-0.222858,0.186481,0.110404,-0.182385,-0.184544
"2019-04-16 05:19:58.706 +0000",1555391998.706483,-2.142447,1.070305,-1.187461,-0.403564,-0.877347,0.259612,0.000000,0.000000,0.000000,-1,-0.747742,-0.243207,0.048825,0.125869,-0.165805,-0.063522
"2019-04-16 05:19:58.729 +0000",1555391998.728789,-2.116199,1.079793,-1.221218,-0.403103,-0.881860,0.244602,0.000000,0.000000,0.000000,-1,-0.860635,-0.104338,0.025215,0.266263,-0.142828,0.086010
"2019-04-16 05:19:58.751 +0000",1555391998.751099,-2.079210,1.088520,-1.259134,-0.405135,-0.885941,0.225773,0.000000,0.000000,0.000000,-1,-0.909041,0.312880,0.081036,0.315124,-0.098586,0.097836
"2019-04-16 05:19:58.773 +0000",1555391998.773407,-2.031261,1.096659,-1.305189,-0.409018,-0.889687,0.202884,0.000000,0.000000,0.000000,-1,-1.078198,0.277327,0.130901,0.362982,-0.036919,0.126324
"2019-04-16 05:19:58.796 +0000",1555391998.795684,-1.979819,1.105622,-1.359129,-0.411576,-0.893743,0.178406,0.000000,0.000000,0.000000,-1,-1.176409,0.040898,0.079614,0.430268,-0.018534,0.050293
"2019-04-16 05:19:58.818 +0000",1555391998.817991,-1.937153,1.114369,-1.411019,-0.411495,-0.897633,0.157882,0.000000,0.000000,0.000000,-1,-1.046453,-0.249646,0.006576,0.421688,-0.095790,-0.052230
"2019-04-16 05:19:58.840 +0000",1555391998.840298,-1.901505,1.122838,-1.457588,-0.409656,-0.901333,0.140642,0.000000,0.000000,0.000000,-1,-0.980427,-0.270947,-0.101134,0.372150,-0.246387,-0.083284
"2019-04-16 05:19:58.863 +0000",1555391998.862577,-1.865152,1.133943,-1.503955,-0.404893,-0.906088,0.122748,0.000000,0.000000,0.000000,-1,-0.997336,-0.226039,-0.256607,0.292436,-0.327937,-0.054953
"2019-04-16 05:19:58.885 +0000",1555391998.884885,-1.829320,1.146833,-1.546036,-0.397706,-0.911466,0.105170,0.000000,0.000000,0.000000,-1,-0.848463,-0.038257,-0.384745,0.211365,-0.248370,-0.038809
"2019-04-16 05:19:58.907 +0000",1555391998.907192,-1.800431,1.160042,-1.577454,-0.388819,-0.916820,0.090890,0.000000,0.000000,0.000000,-1,-0.605384,0.029211,-0.460913,0.094157,-0.118047,-0.053292
"2019-04-16 05:19:58.929 +0000",1555391998.929483,-1.779377,1.172776,-1.598137,-0.379193,-0.921830,0.080260,0.000000,0.000000,0.000000,-1,-0.398404,0.117824,-0.472776,0.175290,0.036164,-0.084059
"2019-04-16 05:19:58.952 +0000",1555391998.951809,-1.767839,1.183485,-1.608247,-0.370392,-0.925928,0.073942,0.000000,0.000000,0.000000,-1,-0.196208,0.067739,-0.404015,0.245255,0.069864,-0.116316
"2019-04-16 05:19:58.974 +0000",1555391998.974087,-1.767800,1.191252,-1.608090,-0.363331,-0.928833,0.072518,0.000000,0.000000,0.000000,-1,0.011135,-0.008038,-0.299048,0.292225,0.090332,-0.127160
"2019-04-16 05:19:58.996 +0000",1555391998.996408,-1.776464,1.195177,-1.600135,-0.359118,-0.930280,0.074918,0.000000,0.000000,0.000000,-1,0.149713,-0.049209,-0.144796,0.351839,0.123457,-0.175199
"2019-04-16 05:19:59.019 +0000",1555391999.018701,-1.790046,1.195627,-1.584616,-0.357658,-0.930446,0.079698,0.000000,0.000000,0.000000,-1,0.294575,0.090349,-0.018197,0.347343,0.148921,-0.213578
"2019-04-16 05:19:59.041 +0000",1555391999.041010,-1.802336,1.191383,-1.567166,-0.360491,-0.928882,0.084992,0.000000,0.000000,0.000000,-1,0.319339,0.239994,0.185174,0.326434,0.125217,-0.234879
"2019-04-16 05:19:59.063 +0000",1555391999.063287,-1.806499,1.183451,-1.555160,-0.367287,-0.925915,0.088210,0.000000,0.000000,0.000000,-1,0.243646,0.345236,0.369048,0.293419,0.092251,-0.254745
"2019-04-16 05:19:59.086 +0000",1555391999.085604,-1.801053,1.172911,-1.550727,-0.377243,-0.921883,0.088431,0.000000,0.000000,0.000000,-1,0.142552,0.496885,0.468142,0.252304,0.051369,-0.280783
"2019-04-16 05:19:59.108 +0000",1555391999.107903,-1.785796,1.162798,-1.551287,-0.387638,-0.917917,0.084651,0.000000,0.000000,0.000000,-1,0.076011,0.753735,0.410010,0.247150,0.020898,-0.281260
"2019-04-16 05:19:59.130 +0000",1555391999.130213,-1.769269,1.155145,-1.548041,-0.395860,-0.914853,0.079615,0.000000,0.000000,0.000000,-1,0.168355,0.937726,0.262032,0.223008,-0.052584,-0.242457
"2019-04-16 05:19:59.152 +0000",1555391999.152486,-1.756822,1.151255,-1.538719,-0.400314,-0.913276,0.075340,0.000000,0.000000,0.000000,-1,0.195451,0.892610,0.061940,0.209731,-0.090264,-0.216651
"2019-04-16 05:19:59.175 +0000",1555391999.174796,-1.748697,1.152243,-1.531785,-0.400025,-0.913678,0.071925,0.000000,0.000000,0.000000,-1,0.072655,0.478430,-0.144088,0.176926,-0.205142,-0.201533
"2019-04-16 05:19:59.197 +0000",1555391999.197104,-1.750818,1.157728,-1.525484,-0.394934,-0.915893,0.071875,0.000000,0.000000,0.000000,-1,0.082885,-0.063487,-0.312949,0.150748,-0.258957,-0.178885
"2019-04-16 05:19:59.219 +0000",1555391999.219411,-1.766427,1.164951,-1.517498,-0.387265,-0.918769,0.076742,0.000000,0.000000,0.000000,-1,0.022210,-0.462266,-0.360297,0.228009,-0.288094,-0.134421
"2019-04-16 05:19:59.242 +0000",1555391999.241689,-1.764170,1.175548,-1.527424,-0.377861,-0.922901,0.073993,0.000000,0.000000,0.000000,-1,-0.439681,-0.177526,-0.479633,0.597954,-0.434079,-0.442371
"2019-04-16 05:19:59.264 +0000",1555391999.263997,-1.733578,1.190523,-1.560558,-0.366267,-0.928563,0.060154,0.000000,0.000000,0.000000,-1,-0.791312,0.066576,-0.622132,0.612697,-0.451472,-0.398823
"2019-04-16 05:19:59.286 +0000",1555391999.286305,-1.689263,1.207751,-1.607843,-0.352634,-0.934820,0.041972,0.000000,0.000000,0.000000,-1,-0.861711,-0.111859,-0.630502,0.525913,-0.289485,-0.177363
"2019-04-16 05:19:59.309 +0000",1555391999.308586,-1.672908,1.218704,-1.635609,-0.343066,-0.938653,0.035153,0.000000,0.000000,0.000000,-1,-0.216010,-0.649128,-0.302916,0.271259,-0.015937,-0.058240
"2019-04-16 05:19:59.331 +0000",1555391999.330914,-1.710399,1.218262,-1.624188,-0.341918,-0.938501,0.048045,0.000000,0.000000,0.000000,-1,0.388603,-1.493465,0.151433,0.186080,-0.070181,-0.015681
"2019-04-16 05:19:59.353 +0000",1555391999.353198,-1.775124,1.209848,-1.593405,-0.345815,-0.935562,0.071660,0.000000,0.000000,0.000000,-1,0.526054,-1.543122,0.338013,0.175786,-0.132263,0.082591
"2019-04-16 05:19:59.376 +0000",1555391999.375506,-1.814983,1.201597,-1.581061,-0.350163,-0.932616,0.087246,0.000000,0.000000,0.000000,-1,0.125988,-1.160894,0.291030,0.242543,0.026885,0.039447
"2019-04-16 05:19:59.398 +0000",1555391999.397813,-1.845282,1.196599,-1.577420,-0.351842,-0.930801,0.099077,0.000000,0.000000,0.000000,-1,0.166627,-1.208306,0.114071,0.424657,0.098297,0.101882
"2019-04-16 05:19:59.420 +0000",1555391999.420091,-1.880650,1.196722,-1.563189,-0.348010,-0.930846,0.111421,0.000000,0.000000,0.000000,-1,0.228453,-0.836629,-0.167083,0.322848,0.055221,0.095977
"2019-04-16 05:19:59.442 +0000",1555391999.442398,-1.911995,1.200588,-1.544080,-0.340953,-0.932252,0.121068,0.000000,0.000000,0.000000,-1,0.256984,-0.527122,-0.297594,0.165767,0.037263,0.051006
"2019-04-16 05:19:59.465 +0000",1555391999.464706,-1.945688,1.203453,-1.522355,-0.334194,-0.933285,0.131506,0.000000,0.000000,0.000000,-1,0.291293,-0.695110,-0.160869,-0.012943,-0.091114,0.093226
"2019-04-16 05:19:59.487 +0000",1555391999.487015,-1.978306,1.196352,-1.511193,-0.335804,-0.930711,0.144958,0.000000,0.000000,0.000000,-1,0.291162,-1.200584,0.507307,0.120488,-0.067809,0.053834
"2019-04-16 05:19:59.509 +0000",1555391999.509292,-2.006180,1.176189,-1.517391,-0.348581,-0.923147,0.162144,0.000000,0.000000,0.000000,-1,0.256509,-1.645223,1.004974,0.351556,0.006079,-0.056766
"2019-04-16 05:19:59.532 +0000",1555391999.531593,-2.033148,1.152358,-1.528564,-0.363671,-0.913725,0.181247,0.000000,0.000000,0.000000,-1,0.320528,-1.619334,1.012215,0.444329,-0.071276,-0.164600
"2019-04-16 05:19:59.554 +0000",1555391999.553910,-2.060966,1.132985,-1.530333,-0.374039,-0.905682,0.199589,0.000000,0.000000,0.000000,-1,0.387015,-1.111534,0.620687,0.295120,-0.076740,-0.166051
"2019-04-16 05:19:59.576 +0000",1555391999.576216,-2.087260,1.122191,-1.522769,-0.377141,-0.901053,0.214169,0.000000,0.000000,0.000000,-1,0.332892,-0.783453,0.212095,0.251256,-0.030847,-0.170544
"2019-04-16 05:19:59.598 +0000",1555391999.598494,-2.117244,1.118660,-1.508486,-0.373267,-0.899516,0.227031,0.000000,0.000000,0.000000,-1,0.336551,-0.765068,-0.124253,0.137885,-0.005025,-0.128704
"2019-04-16 05:19:59.621 +0000",1555391999.620795,-2.154830,1.119411,-1.485649,-0.363908,-0.899844,0.240524,0.000000,0.000000,0.000000,-1,0.355757,-0.779401,-0.333769,-0.024413,-0.038190,-0.157273
"2019-04-16 05:19:59.643 +0000",1555391999.643110,-2.195661,1.122852,-1.462495,-0.351273,-0.901339,0.253366,0.000000,0.000000,0.000000,-1,0.218624,-0.980231,-0.400275,-0.003402,-0.028058,-0.206201
"2019-04-16 05:19:59.665 +0000",1555391999.665417,-2.236509,1.129401,-1.445454,-0.335984,-0.904157,0.263848,0.000000,0.000000,0.000000,-1,0.002471,-1.238872,-0.456377,0.107941,-0.018909,-0.234932
"2019-04-16 05:19:59.688 +0000",1555391999.687695,-2.277934,1.139300,-1.434511,-0.317949,-0.908341,0.271708,0.000000,0.000000,0.000000,-1,-0.175905,-1.512109,-0.473877,0.202226,-0.117843,-0.282862
"2019-04-16 05:19:59.710 +0000",1555391999.710003,-2.322407,1.149666,-1.426352,-0.298660,-0.912627,0.279130,0.000000,0.000000,0.000000,-1,-0.185851,-1.717331,-0.417475,0.225112,-0.148881,-0.291749
"2019-04-16 05:19:59.732 +0000",1555391999.732310,-2.367163,1.156362,-1.417094,-0.281592,-0.915344,0.287838,0.000000,0.000000,0.000000,-1,-0.015824,-1.519909,-0.281455,0.215552,-0.150497,-0.300060
"2019-04-16 05:19:59.755 +0000",1555391999.754598,-2.405611,1.158452,-1.405830,-0.269035,-0.916184,0.297031,0.000000,0.000000,0.000000,-1,0.144155,-1.099989,-0.185871,0.097907,-0.093322,-0.354709
"2019-04-16 05:19:59.777 +0000",1555391999.776895,-2.436197,1.155167,-1.393000,-0.261776,-0.914862,0.307409,0.000000,0.000000,0.000000,-1,0.330772,-0.731411,-0.009184,0.054943,-0.084222,-0.345297
"2019-04-16 05:19:59.799 +0000",1555391999.799204,-2.456652,1.147047,-1.381999,-0.260124,-0.911554,0.318442,0.000000,0.000000,0.000000,-1,0.454512,-0.310147,0.119867,-0.028480,-0.068930,-0.383658
"2019-04-16 05:19:59.822 +0000",1555391999.821511,-2.469080,1.135682,-1.370141,-0.262584,-0.906822,0.329733,0.000000,0.000000,0.000000,-1,0.580425,0.059166,0.174948,-0.120259,-0.080208,-0.465216
"2019-04-16 05:19:59.844 +0000",1555391999.843820,-2.473982,1.122737,-1.358844,-0.268210,-0.901290,0.340207,0.000000,0.000000,0.000000,-1,0.575741,0.354526,0.207060,-0.217188,-0.074998,-0.318463
"2019-04-16 05:19:59.866 +0000",1555391999.866096,-2.466765,1.111987,-1.353028,-0.276696,-0.896580,0.345808,0.000000,0.000000,0.000000,-1,0.357747,0.680462,0.216479,-0.276710,-0.122356,-0.307569
"2019-04-16 05:19:59.888 +0000",1555391999.888405,-2.442444,1.106033,-1.359200,-0.288454,-0.893928,0.343057,0.000000,0.000000,0.000000,-1,-0.045671,0.925390,0.293526,-0.222258,-0.166482,-0.254098
"2019-04-16 05:19:59.911 +0000",1555391999.910707,-2.397104,1.106852,-1.383981,-0.303210,-0.894294,0.329092,0.000000,0.000000,0.000000,-1,-0.516815,1.089159,0.386152,-0.011594,-0.161599,-0.067434
"2019-04-16 05:19:59.933 +0000",1555391999.933021,-2.336373,1.110263,-1.422662,-0.320423,-0.895816,0.307966,0.000000,0.000000,0.000000,-1,-0.694425,1.240776,0.485214,0.156345,-0.223187,-0.015867
"2019-04-16 05:19:59.955 +0000",1555391999.955296,-2.266572,1.114276,-1.468524,-0.338360,-0.897592,0.282562,0.000000,0.000000,0.000000,-1,-0.876486,1.282326,0.433905,0.274777,-0.212546,0.144227
"2019-04-16 05:19:59.978 +0000",1555391999.977593,-2.193493,1.122186,-1.521084,-0.352309,-0.901051,0.252954,0.000000,0.000000,0.000000,-1,-1.112987,1.062753,0.303014,0.498824,-0.011257,0.005362
"2019-04-16 05:20:00.000 +0000",1555391999.999914,-2.121441,1.132306,-1.577304,-0.361816,-0.905394,0.222152,0.000000,0.000000,0.000000,-1,-1.124951,0.910897,0.162936,0.504989,0.000792,-0.027725
"2019-04-16 05:20:00.022 +0000",1555392000.022221,-2.059977,1.141678,-1.623033,-0.367272,-0.909333,0.195512,0.000000,0.000000,0.000000,-1,-0.863468,0.890699,0.000716,0.437599,-0.132491,-0.061860
"2019-04-16 05:20:00.044 +0000",1555392000.044500,-2.009653,1.151132,-1.656574,-0.368843,-0.913226,0.173129,0.000000,0.000000,0.000000,-1,-0.660899,0.901248,-0.156839,0.421287,-0.245557,-0.076999
"2019-04-16 05:20:00.067 +0000",1555392000.066807,-1.967663,1.159782,-1.676581,-0.368486,-0.916716,0.154434,0.000000,0.000000,0.000000,-1,-0.407611,1.174187,-0.224902,0.352388,-0.256883,-0.061142
"2019-04-16 05:20:00.089 +0000",1555392000.089114,-1.923510,1.169038,-1.691664,-0.366965,-0.920375,0.135082,0.000000,0.000000,0.000000,-1,-0.427936,1.466524,-0.336674,0.181372,-0.151830,-0.060482
"2019-04-16 05:20:00.111 +0000",1555392000.111423,-1.870668,1.180690,-1.710812,-0.363316,-0.924869,0.112336,0.000000,0.000000,0.000000,-1,-0.508373,1.618779,-0.401327,0.037144,-0.026395,-0.064866
"2019-04-16 05:20:00.134 +0000",1555392000.133700,-1.813165,1.191856,-1.733544,-0.359124,-0.929057,0.088786,0.000000,0.000000,0.000000,-1,-0.478023,1.631319,-0.343120,0.008569,0.036235,-0.073085
"2019-04-16 05:20:00.156 +0000",1555392000.156008,-1.758943,1.198599,-1.755048,-0.357246,-0.931530,0.068019,0.000000,0.000000,0.000000,-1,-0.360751,1.459892,-0.140461,0.101539,0.031292,-0.079829
"2019-04-16 05:20:00.178 +0000",1555392000.178318,-1.718215,1.199650,-1.768303,-0.358750,-0.931912,0.053273,0.000000,0.000000,0.000000,-1,-0.126835,1.155685,0.059586,0.287644,0.040646,-0.094075
"2019-04-16 05:20:00.201 +0000",1555392000.200598,-1.695321,1.197199,-1.767956,-0.362141,-0.931021,0.045330,0.000000,0.000000,0.000000,-1,0.079063,0.981379,0.134413,0.547703,0.117575,-0.128368
"2019-04-16 05:20:00.223 +0000",1555392000.222895,-1.681160,1.192889,-1.762203,-0.366732,-0.929439,0.040639,0.000000,0.000000,0.000000,-1,0.138225,0.834078,0.210178,0.568423,0.124949,-0.141683
"2019-04-16 05:20:00.245 +0000",1555392000.245209,-1.670493,1.185786,-1.754678,-0.373704,-0.926795,0.037381,0.000000,0.000000,0.000000,-1,0.180178,0.746112,0.362323,0.525528,0.144293,-0.178799
"2019-04-16 05:20:00.268 +0000",1555392000.267513,-1.666159,1.175114,-1.742695,-0.383686,-0.922734,0.036701,0.000000,0.000000,0.000000,-1,0.302351,0.653207,0.500900,0.421208,0.148808,-0.199924
"2019-04-16 05:20:00.290 +0000",1555392000.289825,-1.673200,1.162027,-1.721892,-0.395398,-0.917611,0.040632,0.000000,0.000000,0.000000,-1,0.485572,0.457899,0.554815,0.260830,0.067147,-0.214537
"2019-04-16 05:20:00.312 +0000",1555392000.312104,-1.682486,1.152043,-1.701298,-0.404089,-0.913596,0.045321,0.000000,0.000000,0.000000,-1,0.318800,0.443171,0.263347,0.221426,-0.009682,-0.198077
"2019-04-16 05:20:00.334 +0000",1555392000.334410,-1.678875,1.152163,-1.692182,-0.404140,-0.913645,0.043850,0.000000,0.000000,0.000000,-1,0.110128,0.582844,-0.178374,0.183880,-0.073843,-0.190349
"2019-04-16 05:20:00.357 +0000",1555392000.356718,-1.675289,1.158983,-1.682366,-0.398089,-0.916396,0.041749,0.000000,0.000000,0.000000,-1,0.207099,0.515678,-0.379944,0.155093,-0.199723,-0.233842
"2019-04-16 05:20:00.379 +0000",1555392000.379023,-1.689368,1.166958,-1.660368,-0.390192,-0.919559,0.046484,0.000000,0.000000,0.000000,-1,0.389886,0.112197,-0.397374,0.230478,-0.412136,-0.138631
"2019-04-16 05:20:00.401 +0000",1555392000.401303,-1.703322,1.175008,-1.646698,-0.382155,-0.922693,0.050944,0.000000,0.000000,0.000000,-1,0.036114,-0.098216,-0.373328,0.256972,-0.381644,-0.109385
"2019-04-16 05:20:00.424 +0000",1555392000.423614,-1.687130,1.182326,-1.661782,-0.376213,-0.925489,0.043965,0.000000,0.000000,0.000000,-1,-0.474848,0.233033,-0.230103,0.429863,-0.209200,-0.401173
"2019-04-16 05:20:00.446 +0000",1555392000.445920,-1.643838,1.184757,-1.705000,-0.375518,-0.926408,0.027477,0.000000,0.000000,0.000000,-1,-0.903995,-0.019359,0.080848,0.396102,-0.240539,-0.321819
"2019-04-16 05:20:00.468 +0000",1555392000.468228,-1.600249,1.182865,-1.757563,-0.378110,-0.925694,0.011139,0.000000,0.000000,0.000000,-1,-0.705805,-0.389309,0.143763,0.289059,-0.253216,-0.114091
"2019-04-16 05:20:00.491 +0000",1555392000.490506,-1.630249,1.180913,-1.750144,-0.379408,-0.924954,0.022584,0.000000,0.000000,0.000000,-1,0.652720,-1.440959,0.029626,0.250823,-0.087070,0.005523
"2019-04-16 05:20:00.513 +0000",1555392000.512813,-1.720707,1.182689,-1.689102,-0.374193,-0.925627,0.056520,0.000000,0.000000,0.000000,-1,1.075281,-1.367122,-0.328124,0.229204,-0.169924,0.161178
"2019-04-16 05:20:00.535 +0000",1555392000.535120,-1.787036,1.186669,-1.637484,-0.366023,-0.927126,0.080406,0.000000,0.000000,0.000000,-1,0.654553,-0.557690,-0.284628,0.250605,-0.321791,0.131630
"2019-04-16 05:20:00.557 +0000",1555392000.557429,-1.820552,1.188668,-1.613095,-0.361326,-0.927873,0.092168,0.000000,0.000000,0.000000,-1,0.217464,-0.541251,-0.121209,0.427382,0.082109,0.147945
"2019-04-16 05:20:00.580 +0000",1555392000.579705,-1.837445,1.189560,-1.607956,-0.358920,-0.928205,0.098040,0.000000,0.000000,0.000000,-1,0.038493,-0.477021,-0.033778,0.294192,0.088377,0.136121
"2019-04-16 05:20:00.602 +0000",1555392000.602014,-1.852135,1.188343,-1.601729,-0.358525,-0.927752,0.103615,0.000000,0.000000,0.000000,-1,0.218313,-0.424887,0.067561,0.169499,0.029284,0.004920
"2019-04-16 05:20:00.624 +0000",1555392000.624322,-1.892814,1.183404,-1.574801,-0.358357,-0.925897,0.119559,0.000000,0.000000,0.000000,-1,0.659432,-0.919291,0.049809,0.142949,0.001871,-0.016806
"2019-04-16 05:20:00.647 +0000",1555392000.646605,-1.958193,1.175242,-1.533134,-0.356766,-0.922783,0.145566,0.000000,0.000000,0.000000,-1,0.836538,-1.339426,0.180149,0.277420,-0.130150,-0.055051
"2019-04-16 05:20:00.669 +0000",1555392000.668906,-2.021408,1.160827,-1.500799,-0.358795,-0.917133,0.173588,0.000000,0.000000,0.000000,-1,0.708312,-1.563532,0.456243,0.369965,-0.108532,-0.069676
"2019-04-16 05:20:00.692 +0000",1555392000.691693,-2.066461,1.144475,-1.488738,-0.363758,-0.910493,0.196679,0.000000,0.000000,0.000000,-1,0.424191,-1.456116,0.589146,0.492100,-0.009124,-0.059060
"2019-04-16 05:20:00.714 +0000",1555392000.713992,-2.089209,1.130891,-1.490430,-0.369900,-0.904792,0.211011,0.000000,0.000000,0.000000,-1,0.185947,-0.808268,0.500177,0.410610,-0.025308,-0.098020
"2019-04-16 05:20:00.736 +0000",1555392000.736299,-2.096372,1.122098,-1.493790,-0.375246,-0.901013,0.217639,0.000000,0.000000,0.000000,-1,0.154070,-0.336699,0.293769,0.127825,0.000973,-0.118136
"2019-04-16 05:20:00.759 +0000",1555392000.758577,-2.112181,1.115376,-1.484318,-0.376941,-0.898076,0.226660,0.000000,0.000000,0.000000,-1,0.405350,-0.352144,0.089325,0.047839,0.029027,-0.094839
"2019-04-16 05:20:00.781 +0000",1555392000.780886,-2.141854,1.110242,-1.463648,-0.373924,-0.895806,0.240232,0.000000,0.000000,0.000000,-1,0.477293,-0.608585,-0.065917,-0.005043,0.062600,-0.120680
"2019-04-16 05:20:00.803 +0000",1555392000.803177,-2.177502,1.107533,-1.444058,-0.367117,-0.894599,0.254789,0.000000,0.000000,0.000000,-1,0.324943,-0.939891,-0.151119,0.112860,0.054206,-0.195555
"2019-04-16 05:20:00.826 +0000",1555392000.825501,-2.217582,1.108664,-1.428098,-0.355806,-0.895104,0.268685,0.000000,0.000000,0.000000,-1,0.179967,-1.270106,-0.273545,0.201173,0.006295,-0.230126
"2019-04-16 05:20:00.848 +0000",1555392000.847779,-2.261030,1.113525,-1.414095,-0.340440,-0.897261,0.281111,0.000000,0.000000,0.000000,-1,0.017601,-1.432977,-0.382577,0.232255,-0.085207,-0.276824
"2019-04-16 05:20:00.870 +0000",1555392000.870094,-2.302241,1.121063,-1.403622,-0.323527,-0.900563,0.290373,0.000000,0.000000,0.000000,-1,-0.087725,-1.396104,-0.379228,0.233256,-0.113307,-0.267271
"2019-04-16 05:20:00.892 +0000",1555392000.892394,-2.340462,1.127484,-1.394010,-0.308036,-0.903336,0.298493,0.000000,0.000000,0.000000,-1,-0.020921,-1.278980,-0.319452,0.205619,-0.091461,-0.270920
"2019-04-16 05:20:00.915 +0000",1555392000.914702,-2.380564,1.130242,-1.378329,-0.294102,-0.904516,0.308797,0.000000,0.000000,0.000000,-1,0.221451,-1.053636,-0.287854,0.135151,-0.100306,-0.289922
"2019-04-16 05:20:00.937 +0000",1555392000.936979,-2.416739,1.127886,-1.360332,-0.284154,-0.903508,0.320827,0.000000,0.000000,0.000000,-1,0.346483,-0.801988,-0.121321,0.059880,-0.128490,-0.321376
"2019-04-16 05:20:00.959 +0000",1555392000.959287,-2.444911,1.122355,-1.345099,-0.278206,-0.901124,0.332531,0.000000,0.000000,0.000000,-1,0.403486,-0.559253,-0.025448,0.043068,-0.070311,-0.387035
"2019-04-16 05:20:00.982 +0000",1555392000.981595,-2.467015,1.114467,-1.330987,-0.275219,-0.897676,0.344139,0.000000,0.000000,0.000000,-1,0.476651,-0.336317,0.038353,-0.016559,-0.048231,-0.432381
"2019-04-16 05:20:01.004 +0000",1555392001.003903,-2.480781,1.104593,-1.319660,-0.275883,-0.893281,0.354876,0.000000,0.000000,0.000000,-1,0.469684,-0.043203,0.126307,-0.094982,-0.072341,-0.362536
"2019-04-16 05:20:01.026 +0000",1555392001.026181,-2.481201,1.095681,-1.316252,-0.280607,-0.889240,0.361265,0.000000,0.000000,0.000000,-1,0.253242,0.204336,0.222020,-0.177874,-0.152447,-0.291761
"2019-04-16 05:20:01.048 +0000",1555392001.048488,-2.461894,1.092479,-1.329526,-0.289317,-0.887771,0.357993,0.000000,0.000000,0.000000,-1,-0.251556,0.394111,0.362781,-0.091924,-0.164185,-0.232871
"2019-04-16 05:20:01.071 +0000",1555392001.070796,-2.425298,1.094122,-1.361323,-0.301263,-0.888526,0.346067,0.000000,0.000000,0.000000,-1,-0.588375,0.360114,0.515525,0.083612,-0.194085,-0.078062
"2019-04-16 05:20:01.093 +0000",1555392001.093089,-2.375120,1.096941,-1.408457,-0.316503,-0.889816,0.328715,0.000000,0.000000,0.000000,-1,-0.832239,0.361935,0.695283,0.398534,-0.348740,0.128835
"2019-04-16 05:20:01.115 +0000",1555392001.115383,-2.317293,1.100556,-1.468405,-0.332608,-0.891460,0.307687,0.000000,0.000000,0.000000,-1,-1.113205,0.101200,0.740896,0.492948,-0.292744,0.159537
"2019-04-16 05:20:01.138 +0000",1555392001.137690,-2.252213,1.108821,-1.539173,-0.346180,-0.895174,0.280755,0.000000,0.000000,0.000000,-1,-1.394830,0.118904,0.578107,0.608540,-0.186690,0.103996
"2019-04-16 05:20:01.160 +0000",1555392001.159998,-2.185548,1.120418,-1.606733,-0.355609,-0.900283,0.251065,0.000000,0.000000,0.000000,-1,-1.335773,0.362504,0.270869,0.577593,-0.199708,-0.034802
"2019-04-16 05:20:01.182 +0000",1555392001.182306,-2.124500,1.133844,-1.661967,-0.359950,-0.906045,0.222525,0.000000,0.000000,0.000000,-1,-1.154957,0.553353,-0.022275,0.486049,-0.316306,-0.032142
"2019-04-16 05:20:01.205 +0000",1555392001.204583,-2.069432,1.148626,-1.707937,-0.359849,-0.912202,0.195950,0.000000,0.000000,0.000000,-1,-1.026496,0.609260,-0.212519,0.296189,-0.245849,-0.042980
"2019-04-16 05:20:01.227 +0000",1555392001.226890,-2.019139,1.164617,-1.745170,-0.356053,-0.918637,0.171266,0.000000,0.000000,0.000000,-1,-0.865274,0.816532,-0.391687,0.206303,-0.209583,-0.022859
"2019-04-16 05:20:01.249 +0000",1555392001.249199,-1.971670,1.180353,-1.773956,-0.350425,-0.924740,0.148518,0.000000,0.000000,0.000000,-1,-0.684722,0.982502,-0.437742,0.085685,-0.082996,-0.060811
"2019-04-16 05:20:01.271 +0000",1555392001.271476,-1.926893,1.193487,-1.800625,-0.345308,-0.929659,0.128438,0.000000,0.000000,0.000000,-1,-0.606638,0.827934,-0.334613,0.105806,0.009463,-0.062886
"2019-04-16 05:20:01.294 +0000",1555392001.293783,-1.886375,1.203483,-1.825898,-0.341376,-0.933295,0.111456,0.000000,0.000000,0.000000,-1,-0.486022,0.719989,-0.267854,0.174796,0.102637,-0.091360
"2019-04-16 05:20:01.316 +0000",1555392001.316092,-1.854240,1.212077,-1.844140,-0.337067,-0.936347,0.098183,0.000000,0.000000,0.000000,-1,-0.329431,0.658397,-0.306938,0.241135,0.047950,-0.206551
"2019-04-16 05:20:01.338 +0000",1555392001.338401,-1.831525,1.221055,-1.851596,-0.331074,-0.939462,0.088331,0.000000,0.000000,0.000000,-1,-0.149041,0.745534,-0.379585,0.260029,0.039101,-0.206022
"2019-04-16 05:20:01.361 +0000",1555392001.360677,-1.818113,1.228886,-1.848132,-0.325086,-0.942116,0.082079,0.000000,0.000000,0.000000,-1,-0.003337,0.679399,-0.319390,0.369748,0.039085,-0.197131
"2019-04-16 05:20:01.383 +0000",1555392001.382986,-1.812693,1.232671,-1.843311,-0.322061,-0.943378,0.079461,0.000000,0.000000,0.000000,-1,0.045052,0.399812,-0.094830,0.434030,0.068836,-0.187311
"2019-04-16 05:20:01.405 +0000",1555392001.405276,-1.804014,1.231964,-1.842837,-0.323387,-0.943144,0.076817,0.000000,0.000000,0.000000,-1,0.013169,0.426306,0.079837,0.370949,0.092100,-0.239903
"2019-04-16 05:20:01.428 +0000",1555392001.427603,-1.793437,1.228725,-1.841774,-0.327160,-0.942062,0.074067,0.000000,0.000000,0.000000,-1,0.072602,0.586601,0.170240,0.297451,0.098342,-0.240372
"2019-04-16 05:20:01.450 +0000",1555392001.449880,-1.781850,1.223731,-1.837775,-0.332592,-0.940375,0.071256,0.000000,0.000000,0.000000,-1,0.116810,0.730744,0.221082,0.247433,0.190527,-0.214292
"2019-04-16 05:20:01.472 +0000",1555392001.472186,-1.767447,1.218491,-1.834903,-0.338412,-0.938580,0.067420,0.000000,0.000000,0.000000,-1,0.072926,0.804504,0.212965,0.178897,0.057644,-0.292869
"2019-04-16 05:20:01.494 +0000",1555392001.494493,-1.746967,1.214001,-1.833895,-0.343868,-0.937021,0.061214,0.000000,0.000000,0.000000,-1,0.026537,1.049148,0.177279,0.178844,-0.002966,-0.296398
"2019-04-16 05:20:01.517 +0000",1555392001.516802,-1.719886,1.213069,-1.839309,-0.346262,-0.936695,0.052010,0.000000,0.000000,0.000000,-1,-0.118803,0.873485,-0.060649,0.172830,-0.039867,-0.308281
"2019-04-16 05:20:01.539 +0000",1555392001.539073,-1.711326,1.219606,-1.834949,-0.340624,-0.938964,0.048185,0.000000,0.000000,0.000000,-1,0.158954,0.366479,-0.456724,0.231661,-0.151048,-0.346052
"2019-04-16 05:20:01.561 +0000",1555392001.561388,-1.742757,1.232158,-1.799398,-0.327303,-0.943208,0.056845,0.000000,0.000000,0.000000,-1,0.605451,-0.047632,-0.707167,0.236147,-0.133132,-0.339956
"2019-04-16 05:20:01.584 +0000",1555392001.583695,-1.794969,1.245432,-1.747646,-0.311656,-0.947534,0.071059,0.000000,0.000000,0.000000,-1,0.578896,-0.158488,-0.740930,0.279735,-0.101538,-0.305419
"2019-04-16 05:20:01.606 +0000",1555392001.606003,-1.830649,1.257126,-1.713243,-0.298193,-0.951207,0.079279,0.000000,0.000000,0.000000,-1,0.129618,-0.155241,-0.488081,0.295767,-0.148020,-0.287363
"2019-04-16 05:20:01.628 +0000",1555392001.628280,-1.810297,1.261410,-1.740898,-0.295783,-0.952521,0.072227,0.000000,0.000000,0.000000,-1,-0.727224,-0.295950,0.120666,0.360755,-0.272775,-0.234885
"2019-04-16 05:20:01.651 +0000",1555392001.650589,-1.775874,1.262757,-1.789250,-0.296838,-0.952930,0.061743,0.000000,0.000000,0.000000,-1,-0.331756,-0.687576,-0.035718,0.321358,-0.221570,-0.156546
"2019-04-16 05:20:01.673 +0000",1555392001.672896,-1.828987,1.264490,-1.752923,-0.291544,-0.953454,0.076992,0.000000,0.000000,0.000000,-1,0.779893,-0.791277,-0.252656,0.184305,-0.094489,-0.040631
"2019-04-16 05:20:01.695 +0000",1555392001.695205,-1.902991,1.267944,-1.686388,-0.281939,-0.954490,0.097263,0.000000,0.000000,0.000000,-1,0.753105,-0.249565,-0.453482,0.207812,-0.394952,0.130139
"2019-04-16 05:20:01.717 +0000",1555392001.717482,-1.956373,1.272422,-1.630666,-0.272384,-0.955816,0.110559,0.000000,0.000000,0.000000,-1,0.546341,0.040669,-0.452425,0.099868,-0.197276,0.299079
"2019-04-16 05:20:01.740 +0000",1555392001.739790,-1.997417,1.275796,-1.582379,-0.264681,-0.956802,0.120307,0.000000,0.000000,0.000000,-1,0.517032,0.385630,-0.315319,0.161135,0.309219,0.212182
"2019-04-16 05:20:01.762 +0000",1555392001.762088,-2.024637,1.272300,-1.542871,-0.264313,-0.955780,0.128932,0.000000,0.000000,0.000000,-1,0.570097,0.437606,0.077494,-0.004592,0.114700,0.098714
"2019-04-16 05:20:01.784 +0000",1555392001.784405,-2.057474,1.261764,-1.501614,-0.268824,-0.952628,0.142242,0.000000,0.000000,0.000000,-1,0.783639,0.233910,0.186080,0.032892,0.061195,0.112320
"2019-04-16 05:20:01.807 +0000",1555392001.806683,-2.094529,1.250001,-1.457000,-0.273055,-0.948985,0.157697,0.000000,0.000000,0.000000,-1,0.770940,0.243592,0.146291,0.019729,-0.008962,0.004000
"2019-04-16 05:20:01.829 +0000",1555392001.829000,-2.125983,1.238518,-1.420715,-0.277203,-0.945302,0.171939,0.000000,0.000000,0.000000,-1,0.692036,0.022387,0.212729,0.070706,-0.057369,-0.134723
"2019-04-16 05:20:01.851 +0000",1555392001.851303,-2.155606,1.224518,-1.393635,-0.282997,-0.940642,0.187363,0.000000,0.000000,0.000000,-1,0.648587,-0.268559,0.372842,0.398888,-0.064195,-0.129578
"2019-04-16 05:20:01.874 +0000",1555392001.873606,-2.175397,1.210404,-1.380038,-0.290128,-0.935759,0.200453,0.000000,0.000000,0.000000,-1,0.450409,-0.309204,0.381802,0.389661,-0.021776,-0.162657
"2019-04-16 05:20:01.896 +0000",1555392001.895885,-2.187049,1.200906,-1.371565,-0.295013,-0.932367,0.208948,0.000000,0.000000,0.000000,-1,0.293043,-0.038124,0.195728,0.293487,0.003290,-0.182336
"2019-04-16 05:20:01.918 +0000",1555392001.918193,-2.193077,1.197102,-1.361705,-0.296627,-0.930985,0.212788,0.000000,0.000000,0.000000,-1,0.199375,0.200760,-0.052060,0.126446,-0.014648,-0.159062
"2019-04-16 05:20:01.940 +0000",1555392001.940500,-2.200954,1.198095,-1.349220,-0.294195,-0.931347,0.214573,0.000000,0.000000,0.000000,-1,0.084550,0.120159,-0.205221,0.054464,-0.059757,-0.142139
"2019-04-16 05:20:01.963 +0000",1555392001.962807,-2.208863,1.202961,-1.342588,-0.288846,-0.933108,0.214191,0.000000,0.000000,0.000000,-1,-0.083913,-0.208511,-0.243313,-0.006473,-0.116056,-0.151798
"2019-04-16 05:20:01.985 +0000",1555392001.985078,-2.224434,1.207277,-1.333934,-0.282275,-0.934651,0.216212,0.000000,0.000000,0.000000,-1,0.040344,-0.370660,-0.197161,0.107333,-0.082164,-0.214152
"2019-04-16 05:20:02.007 +0000",1555392002.007392,-2.242473,1.208264,-1.323160,-0.277607,-0.935002,0.220694,0.000000,0.000000,0.000000,-1,0.141044,-0.303899,-0.122038,0.137150,-0.072826,-0.256796
"2019-04-16 05:20:02.030 +0000",1555392002.029684,-2.254230,1.207304,-1.313479,-0.275689,-0.934661,0.224509,0.000000,0.000000,0.000000,-1,0.152929,-0.009513,-0.025403,0.181863,-0.054353,-0.308097
"2019-04-16 05:20:02.052 +0000",1555392002.052009,-2.257994,1.204153,-1.306176,-0.277118,-0.933536,0.227413,0.000000,0.000000,0.000000,-1,0.191083,0.228265,0.063063,0.161959,-0.022915,-0.303646
"2019-04-16 05:20:02.074 +0000",1555392002.074286,-2.254613,1.201039,-1.301241,-0.280137,-0.932415,0.228310,0.000000,0.000000,0.000000,-1,0.100842,0.417616,0.048938,0.102128,-0.002537,-0.197182
"2019-04-16 05:20:02.097 +0000",1555392002.096590,-2.241935,1.201661,-1.303368,-0.282555,-0.932639,0.224380,0.000000,0.000000,0.000000,-1,-0.157938,0.495822,-0.058554,-0.011894,-0.044396,-0.156219
"2019-04-16 05:20:02.119 +0000",1555392002.118895,-2.212859,1.206374,-1.321267,-0.285435,-0.934330,0.213436,0.000000,0.000000,0.000000,-1,-0.465890,0.629046,0.070388,-0.072643,-0.076290,-0.100719
"2019-04-16 05:20:02.141 +0000",1555392002.141210,-2.156875,1.211804,-1.360598,-0.292700,-0.936251,0.194321,0.000000,0.000000,0.000000,-1,-0.784746,1.076118,0.241200,0.078009,-0.109067,-0.029373
"2019-04-16 05:20:02.163 +0000",1555392002.163487,-2.062895,1.213905,-1.424231,-0.307909,-0.936988,0.165066,0.000000,0.000000,0.000000,-1,-0.922384,1.758644,0.530377,0.181566,-0.119775,0.037754
"2019-04-16 05:20:02.186 +0000",1555392002.185794,-1.954782,1.211189,-1.498227,-0.326281,-0.936035,0.131831,0.000000,0.000000,0.000000,-1,-1.094024,1.607554,0.606077,0.273973,-0.100388,0.158589
"2019-04-16 05:20:02.208 +0000",1555392002.208101,-1.845336,1.208895,-1.587222,-0.340793,-0.935225,0.095985,0.000000,0.000000,0.000000,-1,-1.404772,0.924254,0.494158,0.468555,-0.124635,0.136528
"2019-04-16 05:20:02.230 +0000",1555392002.230389,-1.741403,1.209029,-1.675027,-0.348789,-0.935273,0.060090,0.000000,0.000000,0.000000,-1,-1.249104,1.129786,0.183506,0.421009,-0.207656,0.041915
"2019-04-16 05:20:02.253 +0000",1555392002.252690,-1.653076,1.209749,-1.739719,-0.352059,-0.935528,0.029033,0.000000,0.000000,0.000000,-1,-0.934745,1.220436,0.050098,0.298531,-0.322010,-0.071773
"2019-04-16 05:20:02.275 +0000",1555392002.274996,-1.575815,1.210548,-1.797895,-0.352502,-0.935809,0.001769,0.000000,0.000000,0.000000,-1,-0.898751,0.966841,-0.000979,0.326760,-0.386639,0.012223
"2019-04-16 05:20:02.297 +0000",1555392002.297304,-1.504470,1.209559,-1.846490,-0.352655,-0.935460,-0.023425,0.000000,0.000000,0.000000,-1,-0.667666,1.327411,0.008325,0.145914,-0.385814,0.092150
"2019-04-16 05:20:02.320 +0000",1555392002.319613,-1.437737,1.208831,-1.877831,-0.350983,-0.935203,-0.046979,0.000000,0.000000,0.000000,-1,-0.405250,1.872372,-0.019970,0.109131,-0.080224,0.003293
"2019-04-16 05:20:02.342 +0000",1555392002.341890,-1.374755,1.208529,-1.896850,-0.347607,-0.935096,-0.069032,0.000000,0.000000,0.000000,-1,-0.250933,2.076541,-0.046527,0.134136,0.091224,0.069414
"2019-04-16 05:20:02.364 +0000",1555392002.364192,-1.321481,1.207230,-1.907257,-0.344615,-0.934635,-0.087743,0.000000,0.000000,0.000000,-1,-0.106430,1.803924,0.061400,0.202662,0.162021,0.093099
"2019-04-16 05:20:02.387 +0000",1555392002.386506,-1.287174,1.206489,-1.904105,-0.342068,-0.934371,-0.099706,0.000000,0.000000,0.000000,-1,0.114086,1.592333,0.036081,0.203182,0.161803,0.058599
"2019-04-16 05:20:02.409 +0000",1555392002.408814,-1.265449,1.207748,-1.889585,-0.338698,-0.934819,-0.106759,0.000000,0.000000,0.000000,-1,0.287005,1.593464,-0.008514,0.211577,0.131459,-0.027625
"2019-04-16 05:20:02.431 +0000",1555392002.431093,-1.245831,1.208601,-1.871759,-0.335783,-0.935121,-0.113128,0.000000,0.000000,0.000000,-1,0.262450,1.665260,0.109930,0.424162,0.052858,-0.078202
"2019-04-16 05:20:02.453 +0000",1555392002.453398,-1.222859,1.205181,-1.858212,-0.336100,-0.933904,-0.121901,0.000000,0.000000,0.000000,-1,0.088718,1.462932,0.296492,0.408808,0.122213,-0.077989
"2019-04-16 05:20:02.476 +0000",1555392002.475707,-1.199612,1.197005,-1.847134,-0.340280,-0.930950,-0.132446,0.000000,0.000000,0.000000,-1,0.032911,1.504082,0.446208,0.388284,0.142147,-0.077454
"2019-04-16 05:20:02.498 +0000",1555392002.497985,-1.181013,1.188403,-1.829442,-0.345153,-0.927774,-0.141789,0.000000,0.000000,0.000000,-1,0.209982,1.613766,0.478805,0.284347,0.165110,-0.073024
"2019-04-16 05:20:02.520 +0000",1555392002.520292,-1.169966,1.181621,-1.800720,-0.349351,-0.925222,-0.148046,0.000000,0.000000,0.000000,-1,0.385450,1.715744,0.427113,0.149492,0.125051,-0.027247
"2019-04-16 05:20:02.543 +0000",1555392002.542588,-1.164275,1.181980,-1.768730,-0.348198,-0.925358,-0.149900,0.000000,0.000000,0.000000,-1,0.594339,1.426419,0.024114,0.127495,0.050404,-0.085681
"2019-04-16 05:20:02.565 +0000",1555392002.564908,-1.175193,1.193362,-1.733737,-0.340073,-0.929613,-0.142021,0.000000,0.000000,0.000000,-1,0.840634,0.683266,-0.357473,0.094528,-0.031660,-0.134956
"2019-04-16 05:20:02.587 +0000",1555392002.587207,-1.214307,1.211556,-1.683751,-0.329459,-0.936164,-0.122691,0.000000,0.000000,0.000000,-1,1.139510,0.210454,-0.502013,0.174110,-0.126076,-0.092794
"2019-04-16 05:20:02.609 +0000",1555392002.609493,-1.255164,1.229712,-1.634625,-0.317985,-0.942392,-0.103837,0.000000,0.000000,0.000000,-1,0.784595,0.350513,-0.509611,0.219977,-0.179190,-0.102522
"2019-04-16 05:20:02.632 +0000",1555392002.631802,-1.251237,1.238865,-1.623582,-0.309372,-0.945415,-0.102372,0.000000,0.000000,0.000000,-1,-0.069245,0.752461,-0.178599,0.321122,-0.266560,-0.112838
"2019-04-16 05:20:02.654 +0000",1555392002.654110,-1.206335,1.228542,-1.658939,-0.313567,-0.942001,-0.119627,0.000000,0.000000,0.000000,-1,-0.992564,0.312993,0.481153,0.512664,-0.227525,-0.043627
"2019-04-16 05:20:02.676 +0000",1555392002.676387,-1.152096,1.209506,-1.717184,-0.322948,-0.935441,-0.143716,0.000000,0.000000,0.000000,-1,-0.814428,-0.413422,0.300355,0.383800,-0.248641,0.119165
"2019-04-16 05:20:02.699 +0000",1555392002.698694,-1.217181,1.214117,-1.675391,-0.327561,-0.937061,-0.120913,0.000000,0.000000,0.000000,-1,1.331041,-1.290914,-0.035807,0.189987,0.026386,0.208727
"2019-04-16 05:20:02.721 +0000",1555392002.721003,-1.301655,1.227916,-1.603802,-0.324098,-0.941790,-0.089397,0.000000,0.000000,0.000000,-1,0.991746,-0.424949,-0.333926,0.211122,-0.210721,0.257259
"2019-04-16 05:20:02.743 +0000",1555392002.743310,-1.338175,1.234961,-1.567960,-0.320681,-0.944135,-0.075972,0.000000,0.000000,0.000000,-1,0.402397,-0.047644,-0.042279,0.226443,-0.543856,0.582152
"2019-04-16 05:20:02.766 +0000",1555392002.765587,-1.350184,1.233338,-1.554130,-0.323065,-0.943599,-0.072451,0.000000,0.000000,0.000000,-1,0.091129,0.175747,0.181384,0.405981,0.281658,0.463183
"2019-04-16 05:20:02.788 +0000",1555392002.787895,-1.350709,1.229000,-1.543956,-0.327095,-0.942154,-0.073175,0.000000,0.000000,0.000000,-1,0.157982,0.492072,0.219542,0.313286,0.161346,0.141244
"2019-04-16 05:20:02.810 +0000",1555392002.810207,-1.366529,1.229253,-1.518128,-0.327978,-0.942239,-0.067943,0.000000,0.000000,0.000000,-1,0.561914,0.229233,-0.035984,0.109564,0.078256,0.266215
"2019-04-16 05:20:02.833 +0000",1555392002.832512,-1.426007,1.234154,-1.461083,-0.326864,-0.943869,-0.047660,0.000000,0.000000,0.000000,-1,0.979086,-0.541895,-0.035163,0.082174,0.089651,0.229392
"2019-04-16 05:20:02.855 +0000",1555392002.854789,-1.501670,1.233977,-1.402338,-0.329698,-0.943811,-0.022827,0.000000,0.000000,0.000000,-1,0.748857,-1.087286,0.196598,0.152589,0.037332,0.123352
"2019-04-16 05:20:02.877 +0000",1555392002.877108,-1.564001,1.227076,-1.365950,-0.336985,-0.941507,-0.002290,0.000000,0.000000,0.000000,-1,0.408302,-1.327790,0.390871,0.555857,-0.171713,0.104509
"2019-04-16 05:20:02.899 +0000",1555392002.899404,-1.611011,1.217948,-1.348680,-0.345292,-0.938392,0.013893,0.000000,0.000000,0.000000,-1,0.200038,-1.377093,0.388739,0.584962,-0.110039,0.081581
"2019-04-16 05:20:02.922 +0000",1555392002.921713,-1.640710,1.210533,-1.344627,-0.351660,-0.935804,0.024626,0.000000,0.000000,0.000000,-1,0.023087,-1.005985,0.304733,0.543981,-0.058444,0.051302
"2019-04-16 05:20:02.944 +0000",1555392002.943990,-1.663267,1.203645,-1.341730,-0.357424,-0.933354,0.033146,0.000000,0.000000,0.000000,-1,0.157373,-0.858338,0.297278,0.370776,-0.048992,0.058575
"2019-04-16 05:20:02.966 +0000",1555392002.966312,-1.699909,1.197329,-1.321936,-0.361809,-0.931068,0.046975,0.000000,0.000000,0.000000,-1,0.453017,-0.800795,0.193929,0.182198,0.034492,0.052222
"2019-04-16 05:20:02.989 +0000",1555392002.988605,-1.745063,1.194142,-1.291416,-0.362241,-0.929900,0.063773,0.000000,0.000000,0.000000,-1,0.516166,-0.736391,-0.018749,0.029629,0.051193,-0.012931
"2019-04-16 05:20:03.011 +0000",1555392003.010914,-1.787728,1.195282,-1.262940,-0.358156,-0.930319,0.078937,0.000000,0.000000,0.000000,-1,0.397512,-0.739606,-0.201130,0.024370,0.055853,-0.061283
"2019-04-16 05:20:03.033 +0000",1555392003.033200,-1.825271,1.198877,-1.242074,-0.351701,-0.931632,0.091482,0.000000,0.000000,0.000000,-1,0.235435,-0.860403,-0.246028,0.129304,0.091330,-0.113867
"2019-04-16 05:20:03.056 +0000",1555392003.055512,-1.859111,1.203435,-1.227540,-0.344330,-0.933278,0.102121,0.000000,0.000000,0.000000,-1,0.156275,-0.923264,-0.269074,0.113052,0.013936,-0.148798
"2019-04-16 05:20:03.078 +0000",1555392003.077806,-1.893056,1.208401,-1.211509,-0.336265,-0.935050,0.112279,0.000000,0.000000,0.000000,-1,0.190116,-0.776981,-0.300131,0.100349,-0.035561,-0.168797
"2019-04-16 05:20:03.100 +0000",1555392003.100104,-1.922702,1.212812,-1.193195,-0.328915,-0.936605,0.120774,0.000000,0.000000,0.000000,-1,0.223161,-0.415126,-0.254948,0.063000,-0.085505,-0.174561
"2019-04-16 05:20:03.122 +0000",1555392003.122392,-1.943099,1.214255,-1.175881,-0.325124,-0.937110,0.126966,0.000000,0.000000,0.000000,-1,0.237820,-0.086066,-0.099073,0.067326,-0.071054,-0.186566
"2019-04-16 05:20:03.145 +0000",1555392003.144700,-1.957464,1.212450,-1.159822,-0.324832,-0.936478,0.132260,0.000000,0.000000,0.000000,-1,0.278544,0.075551,0.017361,0.074771,-0.070175,-0.171460
"2019-04-16 05:20:03.167 +0000",1555392003.167008,-1.968690,1.208358,-1.145391,-0.326857,-0.935035,0.137382,0.000000,0.000000,0.000000,-1,0.270186,0.132501,0.122330,0.072600,-0.122857,-0.141853
"2019-04-16 05:20:03.189 +0000",1555392003.189316,-1.969500,1.203028,-1.138824,-0.331334,-0.933132,0.139580,0.000000,0.000000,0.000000,-1,0.112640,0.297643,0.217559,0.042958,-0.134953,-0.150642
"2019-04-16 05:20:03.212 +0000",1555392003.211592,-1.951008,1.197420,-1.148867,-0.338712,-0.931101,0.135369,0.000000,0.000000,0.000000,-1,-0.173919,0.514539,0.349489,0.043836,-0.099066,-0.076638
"2019-04-16 05:20:03.234 +0000",1555392003.233901,-1.900938,1.189976,-1.180990,-0.351610,-0.928360,0.120491,0.000000,0.000000,0.000000,-1,-0.504837,1.195639,0.598853,0.096773,-0.117065,0.025231
"2019-04-16 05:20:03.256 +0000",1555392003.256192,-1.821094,1.177459,-1.230543,-0.371330,-0.923635,0.094934,0.000000,0.000000,0.000000,-1,-0.721726,1.571795,0.870821,0.282554,-0.154490,0.248526
"2019-04-16 05:20:03.279 +0000",1555392003.278517,-1.734388,1.162221,-1.292691,-0.391998,-0.917688,0.064706,0.000000,0.000000,0.000000,-1,-1.059524,1.083239,0.860127,0.322296,-0.144080,0.404425
"2019-04-16 05:20:03.301 +0000",1555392003.300795,-1.647853,1.149651,-1.369701,-0.407593,-0.912621,0.031470,0.000000,0.000000,0.000000,-1,-1.464677,0.571698,0.638715,0.504014,-0.135734,0.411721
"2019-04-16 05:20:03.323 +0000",1555392003.323098,-1.561822,1.141218,-1.450171,-0.416471,-0.909141,-0.003738,0.000000,0.000000,0.000000,-1,-1.370690,0.628245,0.299586,0.545484,-0.285225,0.053451
"2019-04-16 05:20:03.345 +0000",1555392003.345409,-1.490560,1.137369,-1.509258,-0.418633,-0.907532,-0.033662,0.000000,0.000000,0.000000,-1,-1.026561,0.834150,0.064684,0.525581,-0.338883,0.093415
"2019-04-16 05:20:03.368 +0000",1555392003.367688,-1.421522,1.135979,-1.566235,-0.416560,-0.906947,-0.062648,0.000000,0.000000,0.000000,-1,-1.078904,0.758271,-0.146797,0.470790,-0.425969,0.135417
"2019-04-16 05:20:03.390 +0000",1555392003.389996,-1.357456,1.138153,-1.615208,-0.409766,-0.907861,-0.088771,0.000000,0.000000,0.000000,-1,-0.767124,0.988999,-0.321147,0.312721,-0.430243,0.219889
"2019-04-16 05:20:03.412 +0000",1555392003.412304,-1.294462,1.144370,-1.655016,-0.397928,-0.910450,-0.112848,0.000000,0.000000,0.000000,-1,-0.592103,1.314297,-0.519965,0.076379,-0.083340,0.171915
"2019-04-16 05:20:03.435 +0000",1555392003.434612,-1.233578,1.152647,-1.687289,-0.383199,-0.913842,-0.134354,0.000000,0.000000,0.000000,-1,-0.373738,1.433739,-0.513489,0.081640,0.057931,0.200974
"2019-04-16 05:20:03.457 +0000",1555392003.456889,-1.184280,1.160044,-1.710657,-0.369842,-0.916821,-0.150521,0.000000,0.000000,0.000000,-1,-0.219292,1.066380,-0.412159,0.115920,0.102825,0.214761
"2019-04-16 05:20:03.479 +0000",1555392003.479215,-1.158839,1.166986,-1.717911,-0.360052,-0.919571,-0.157329,0.000000,0.000000,0.000000,-1,0.149754,0.777891,-0.297791,0.254706,0.143310,0.060634
"2019-04-16 05:20:03.502 +0000",1555392003.501504,-1.152246,1.175045,-1.705857,-0.352225,-0.922707,-0.156682,0.000000,0.000000,0.000000,-1,0.427297,0.837332,-0.226249,0.268622,0.130883,0.027959
"2019-04-16 05:20:03.524 +0000",1555392003.523812,-1.153598,1.181628,-1.685476,-0.346876,-0.925225,-0.153741,0.000000,0.000000,0.000000,-1,0.405377,0.675672,-0.037501,0.409483,0.062935,-0.006980
"2019-04-16 05:20:03.546 +0000",1555392003.546107,-1.154296,1.179897,-1.671344,-0.348447,-0.924567,-0.154147,0.000000,0.000000,0.000000,-1,0.037776,0.503291,0.280209,0.519910,0.110464,-0.026334
"2019-04-16 05:20:03.568 +0000",1555392003.568398,-1.142182,1.169927,-1.668974,-0.354921,-0.920722,-0.162179,0.000000,0.000000,0.000000,-1,-0.201996,0.768508,0.496087,0.478059,0.116858,-0.076972
"2019-04-16 05:20:03.591 +0000",1555392003.590705,-1.127040,1.156578,-1.661191,-0.363493,-0.915431,-0.172796,0.000000,0.000000,0.000000,-1,-0.030555,1.111146,0.646946,0.347258,0.078731,-0.070658
"2019-04-16 05:20:03.613 +0000",1555392003.613015,-1.118804,1.146009,-1.640908,-0.370741,-0.911126,-0.180000,0.000000,0.000000,0.000000,-1,0.199675,1.215200,0.489813,0.210310,0.042916,0.011986
"2019-04-16 05:20:03.635 +0000",1555392003.635317,-1.108634,1.144941,-1.624479,-0.369762,-0.910686,-0.184195,0.000000,0.000000,0.000000,-1,0.296545,1.038567,-0.025883,0.156932,-0.033299,-0.011285
"2019-04-16 05:20:03.658 +0000",1555392003.657600,-1.106225,1.153798,-1.607981,-0.362092,-0.914309,-0.181464,0.000000,0.000000,0.000000,-1,0.553606,0.602219,-0.279932,0.137177,-0.088194,-0.055642
"2019-04-16 05:20:03.680 +0000",1555392003.679889,-1.125439,1.166036,-1.580312,-0.355386,-0.919197,-0.169641,0.000000,0.000000,0.000000,-1,0.735261,0.122634,-0.254508,0.155725,-0.124260,-0.048316
"2019-04-16 05:20:03.702 +0000",1555392003.702191,-1.150182,1.176807,-1.553693,-0.350416,-0.923385,-0.156744,0.000000,0.000000,0.000000,-1,0.515653,-0.049661,-0.249351,0.284361,-0.259095,-0.018961
"2019-04-16 05:20:03.724 +0000",1555392003.724491,-1.154371,1.183634,-1.548703,-0.345296,-0.925984,-0.152722,0.000000,0.000000,0.000000,-1,-0.023449,0.097887,-0.208713,0.360723,-0.216335,-0.053120
"2019-04-16 05:20:03.747 +0000",1555392003.746799,-1.129339,1.177753,-1.573135,-0.346283,-0.923748,-0.163640,0.000000,0.000000,0.000000,-1,-0.869619,-0.043402,0.248698,0.492890,-0.129704,-0.043986
"2019-04-16 05:20:03.769 +0000",1555392003.769085,-1.081406,1.159873,-1.637830,-0.352567,-0.916753,-0.187779,0.000000,0.000000,0.000000,-1,-1.328541,-0.762568,0.103539,0.423337,-0.156322,0.215413
"2019-04-16 05:20:03.791 +0000",1555392003.791416,-1.102431,1.159383,-1.644536,-0.356839,-0.916556,-0.180529,0.000000,0.000000,0.000000,-1,0.641009,-1.472049,-0.029501,0.405499,-0.088189,0.228121
"2019-04-16 05:20:03.814 +0000",1555392003.813694,-1.182646,1.174405,-1.592454,-0.357371,-0.922460,-0.146127,0.000000,0.000000,0.000000,-1,1.162606,-1.331840,-0.412609,0.349451,-0.280024,0.300546
"2019-04-16 05:20:03.836 +0000",1555392003.836002,-1.242043,1.191104,-1.551726,-0.350786,-0.928779,-0.119664,0.000000,0.000000,0.000000,-1,0.737752,-0.777229,-0.415233,0.303071,-0.627328,0.410573
"2019-04-16 05:20:03.858 +0000",1555392003.858310,-1.272953,1.200898,-1.534270,-0.345603,-0.932364,-0.106091,0.000000,0.000000,0.000000,-1,0.240416,-0.617018,-0.285370,0.387061,0.266410,0.418927
"2019-04-16 05:20:03.881 +0000",1555392003.880618,-1.286861,1.205872,-1.531571,-0.342589,-0.934151,-0.099974,0.000000,0.000000,0.000000,-1,0.065544,-0.447972,-0.133119,0.303176,0.215080,0.256636
"2019-04-16 05:20:03.903 +0000",1555392003.902891,-1.307610,1.206324,-1.522781,-0.344182,-0.934312,-0.092735,0.000000,0.000000,0.000000,-1,0.243184,-0.722537,0.103857,0.159307,0.053270,0.220420
"2019-04-16 05:20:03.925 +0000",1555392003.925202,-1.368314,1.205821,-1.485765,-0.349634,-0.934133,-0.071778,0.000000,0.000000,0.000000,-1,0.728533,-1.413309,0.199515,0.190058,-0.016963,0.182313
"2019-04-16 05:20:03.948 +0000",1555392003.947510,-1.444540,1.201746,-1.441878,-0.357859,-0.932670,-0.045424,0.000000,0.000000,0.000000,-1,0.607379,-1.673493,0.370486,0.263758,-0.058968,0.111967
"2019-04-16 05:20:03.970 +0000",1555392003.969818,-1.524714,1.190142,-1.400423,-0.371134,-0.928422,-0.017115,0.000000,0.000000,0.000000,-1,0.641159,-1.918246,0.697695,0.482691,-0.148711,0.070520
"2019-04-16 05:20:03.992 +0000",1555392003.992089,-1.592157,1.171656,-1.372348,-0.388537,-0.921395,0.008301,0.000000,0.000000,0.000000,-1,0.315870,-1.773752,0.879873,0.597263,0.020974,0.069977
"2019-04-16 05:20:04.014 +0000",1555392004.014404,-1.628411,1.154689,-1.367155,-0.403532,-0.914669,0.023275,0.000000,0.000000,0.000000,-1,0.059374,-1.138860,0.623538,0.479383,0.025372,0.059946
"2019-04-16 05:20:04.037 +0000",1555392004.036711,-1.650531,1.148198,-1.361980,-0.408829,-0.912026,0.032667,0.000000,0.000000,0.000000,-1,0.188009,-0.635260,0.093134,0.226349,0.010735,0.091448
"2019-04-16 05:20:04.059 +0000",1555392004.059108,-1.680975,1.150221,-1.343078,-0.405810,-0.912854,0.044893,0.000000,0.000000,0.000000,-1,0.402582,-0.630134,-0.195866,0.043444,0.034040,0.067503
"2019-04-16 05:20:04.081 +0000",1555392004.081301,-1.724087,1.154507,-1.316409,-0.399627,-0.914596,0.061744,0.000000,0.000000,0.000000,-1,0.483544,-0.972402,-0.278390,-0.061096,0.081329,0.037271
"2019-04-16 05:20:04.104 +0000",1555392004.103605,-1.774410,1.159979,-1.287913,-0.391109,-0.916795,0.080754,0.000000,0.000000,0.000000,-1,0.430375,-1.129013,-0.371304,0.027630,0.046998,-0.060063
"2019-04-16 05:20:04.126 +0000",1555392004.125913,-1.822711,1.167813,-1.263241,-0.379787,-0.919895,0.097750,0.000000,0.000000,0.000000,-1,0.274368,-1.163944,-0.480228,0.094478,-0.012371,-0.144137
"2019-04-16 05:20:04.148 +0000",1555392004.148195,-1.863802,1.177211,-1.247777,-0.367157,-0.923540,0.110767,0.000000,0.000000,0.000000,-1,0.075001,-1.229114,-0.451203,0.246460,-0.076201,-0.152241
"2019-04-16 05:20:04.170 +0000",1555392004.170497,-1.897495,1.184419,-1.239608,-0.356903,-0.926280,0.120933,0.000000,0.000000,0.000000,-1,0.053183,-1.104241,-0.276141,0.267960,-0.075230,-0.159706
"2019-04-16 05:20:04.193 +0000",1555392004.192805,-1.928853,1.185947,-1.226826,-0.351610,-0.926855,0.131568,0.000000,0.000000,0.000000,-1,0.256288,-0.719501,-0.057412,0.274798,-0.100641,-0.166968
"2019-04-16 05:20:04.215 +0000",1555392004.215102,-1.953160,1.182266,-1.211679,-0.351472,-0.925467,0.141347,0.000000,0.000000,0.000000,-1,0.303717,-0.320205,0.125145,0.136277,-0.114816,-0.197285
"2019-04-16 05:20:04.237 +0000",1555392004.237391,-1.969353,1.176243,-1.198967,-0.354268,-0.923168,0.149180,0.000000,0.000000,0.000000,-1,0.310358,-0.155118,0.188190,0.116765,-0.111607,-0.201624
"2019-04-16 05:20:04.260 +0000",1555392004.259699,-1.980787,1.169002,-1.187374,-0.358660,-0.920361,0.155881,0.000000,0.000000,0.000000,-1,0.298165,0.056658,0.238408,0.079012,-0.125904,-0.194043
"2019-04-16 05:20:04.282 +0000",1555392004.282007,-1.982936,1.161715,-1.183041,-0.364460,-0.917487,0.159334,0.000000,0.000000,0.000000,-1,0.124049,0.097379,0.290075,0.009418,-0.140955,-0.131441
"2019-04-16 05:20:04.304 +0000",1555392004.304316,-1.964493,1.156250,-1.197068,-0.371961,-0.915299,0.154507,0.000000,0.000000,0.000000,-1,-0.324466,0.370619,0.376776,0.025678,-0.163482,-0.011745
"2019-04-16 05:20:04.327 +0000",1555392004.326592,-1.914485,1.150275,-1.237020,-0.384362,-0.912876,0.137560,0.000000,0.000000,0.000000,-1,-0.694540,0.758858,0.608874,0.122796,-0.170635,0.024153
"2019-04-16 05:20:04.349 +0000",1555392004.348900,-1.848274,1.140219,-1.288596,-0.401430,-0.908725,0.114338,0.000000,0.000000,0.000000,-1,-0.836904,0.890937,0.741619,0.344195,-0.212796,0.154080
"2019-04-16 05:20:04.371 +0000",1555392004.371210,-1.775160,1.131308,-1.349195,-0.416623,-0.904969,0.086348,0.000000,0.000000,0.000000,-1,-1.136182,0.688492,0.593182,0.574856,-0.137725,0.342058
"2019-04-16 05:20:04.394 +0000",1555392004.393513,-1.697958,1.126599,-1.421283,-0.426263,-0.902956,0.054498,0.000000,0.000000,0.000000,-1,-1.401984,0.515195,0.344017,0.635141,-0.095640,0.249579
"2019-04-16 05:20:04.416 +0000",1555392004.415794,-1.627778,1.125479,-1.484306,-0.430045,-0.902474,0.024531,0.000000,0.000000,0.000000,-1,-1.012998,0.649533,0.047743,0.584006,-0.095359,0.104283
"2019-04-16 05:20:04.438 +0000",1555392004.438087,-1.575564,1.128022,-1.527241,-0.428443,-0.903567,0.002043,0.000000,0.000000,0.000000,-1,-0.790636,0.522140,-0.154480,0.487220,-0.349455,0.115999
"2019-04-16 05:20:04.460 +0000",1555392004.460409,-1.528280,1.134392,-1.567992,-0.422301,-0.906277,-0.017965,0.000000,0.000000,0.000000,-1,-0.732597,0.497939,-0.375056,0.452529,-0.380817,0.128729
"2019-04-16 05:20:04.483 +0000",1555392004.482718,-1.484071,1.142827,-1.600806,-0.413465,-0.909810,-0.035948,0.000000,0.000000,0.000000,-1,-0.503121,0.716796,-0.429004,0.277387,-0.329783,0.126616
"2019-04-16 05:20:04.505 +0000",1555392004.505012,-1.442682,1.151345,-1.626805,-0.403921,-0.913313,-0.052033,0.000000,0.000000,0.000000,-1,-0.402666,0.836189,-0.422577,0.114096,0.034544,0.116456
"2019-04-16 05:20:04.527 +0000",1555392004.527290,-1.402109,1.158370,-1.648523,-0.395143,-0.916151,-0.067295,0.000000,0.000000,0.000000,-1,-0.299343,0.976820,-0.331981,0.083483,0.080610,0.094288
"2019-04-16 05:20:04.550 +0000",1555392004.549610,-1.366918,1.163199,-1.662660,-0.388195,-0.918076,-0.080260,0.000000,0.000000,0.000000,-1,-0.139531,0.983518,-0.207918,0.123363,0.086762,0.079634
"2019-04-16 05:20:04.572 +0000",1555392004.571912,-1.345926,1.165989,-1.663267,-0.383926,-0.919178,-0.087819,0.000000,0.000000,0.000000,-1,0.107966,0.868433,-0.092661,0.234619,0.077443,0.050023
"2019-04-16 05:20:04.594 +0000",1555392004.594189,-1.337547,1.168852,-1.650920,-0.380615,-0.920302,-0.090424,0.000000,0.000000,0.000000,-1,0.305050,0.899394,-0.060597,0.485916,0.120894,0.002732
"2019-04-16 05:20:04.617 +0000",1555392004.616504,-1.334852,1.170402,-1.633729,-0.378982,-0.920907,-0.091116,0.000000,0.000000,0.000000,-1,0.272805,0.773105,0.050918,0.556274,0.119790,0.000143
"2019-04-16 05:20:04.639 +0000",1555392004.638812,-1.330444,1.167136,-1.622554,-0.381496,-0.919629,-0.093501,0.000000,0.000000,0.000000,-1,0.081730,0.649655,0.277711,0.578014,0.114881,-0.017201
"2019-04-16 05:20:04.661 +0000",1555392004.661111,-1.320603,1.158552,-1.616544,-0.388191,-0.916224,-0.099201,0.000000,0.000000,0.000000,-1,0.008548,0.742606,0.464176,0.368187,0.051783,-0.107189
"2019-04-16 05:20:04.683 +0000",1555392004.683396,-1.311249,1.147548,-1.605512,-0.396968,-0.911759,-0.105410,0.000000,0.000000,0.000000,-1,0.104308,0.867219,0.548708,0.300502,0.026200,-0.091337
"2019-04-16 05:20:04.706 +0000",1555392004.705705,-1.306695,1.138790,-1.590351,-0.404177,-0.908127,-0.109297,0.000000,0.000000,0.000000,-1,0.196277,0.816047,0.348234,0.215334,-0.045348,-0.039446
"2019-04-16 05:20:04.728 +0000",1555392004.728012,-1.296822,1.138026,-1.583145,-0.403746,-0.907807,-0.113469,0.000000,0.000000,0.000000,-1,0.065060,0.649345,-0.119267,0.181334,-0.137572,-0.058635
"2019-04-16 05:20:04.750 +0000",1555392004.750300,-1.287228,1.145957,-1.582218,-0.395714,-0.911105,-0.115319,0.000000,0.000000,0.000000,-1,0.200313,0.370175,-0.433069,0.180092,-0.166501,-0.062964
"2019-04-16 05:20:04.773 +0000",1555392004.772598,-1.294409,1.159021,-1.571149,-0.385047,-0.916412,-0.109217,0.000000,0.000000,0.000000,-1,0.400310,-0.050841,-0.533451,0.221412,-0.288941,-0.052831
"2019-04-16 05:20:04.795 +0000",1555392004.794907,-1.304751,1.172518,-1.567357,-0.374188,-0.921730,-0.101968,0.000000,0.000000,0.000000,-1,0.063724,-0.386997,-0.580233,0.292690,-0.339455,0.006692
"2019-04-16 05:20:04.817 +0000",1555392004.817200,-1.291269,1.183679,-1.587596,-0.362868,-0.926001,-0.104159,0.000000,0.000000,0.000000,-1,-0.309773,-0.129937,-0.550421,0.548796,-0.157312,-0.133940
"2019-04-16 05:20:04.839 +0000",1555392004.839492,-1.263207,1.188642,-1.623338,-0.355417,-0.927863,-0.112906,0.000000,0.000000,0.000000,-1,-0.651240,-0.365200,-0.273079,0.572367,-0.196572,-0.094675
"2019-04-16 05:20:04.862 +0000",1555392004.861800,-1.238853,1.185966,-1.662219,-0.354909,-0.926862,-0.122336,0.000000,0.000000,0.000000,-1,-0.557334,-0.563289,0.026450,0.577367,-0.269473,0.035727
"2019-04-16 05:20:04.884 +0000",1555392004.884108,-1.250944,1.179849,-1.668538,-0.361738,-0.924549,-0.119817,0.000000,0.000000,0.000000,-1,0.061932,-1.012145,0.316023,0.242124,-0.095944,0.259892
"2019-04-16 05:20:04.906 +0000",1555392004.906414,-1.306908,1.176288,-1.639485,-0.371049,-0.923186,-0.100254,0.000000,0.000000,0.000000,-1,0.642108,-1.386179,0.235235,0.223191,-0.097856,0.296039
"2019-04-16 05:20:04.929 +0000",1555392004.928706,-1.378875,1.179118,-1.590092,-0.374731,-0.924270,-0.072815,0.000000,0.000000,0.000000,-1,0.921046,-1.002012,-0.021126,0.266928,-0.059388,0.287277
"2019-04-16 05:20:04.951 +0000",1555392004.951000,-1.439709,1.185403,-1.541114,-0.372698,-0.926651,-0.049138,0.000000,0.000000,0.000000,-1,0.775025,-0.489922,-0.234145,0.321276,0.007034,0.266652
"2019-04-16 05:20:04.973 +0000",1555392004.973307,-1.465710,1.193860,-1.516300,-0.366044,-0.929797,-0.038608,0.000000,0.000000,0.000000,-1,0.258141,0.038396,-0.345742,0.310654,0.158282,0.296238
"2019-04-16 05:20:04.996 +0000",1555392004.995616,-1.471862,1.199753,-1.511999,-0.360815,-0.931950,-0.035814,0.000000,0.000000,0.000000,-1,0.056648,-0.285807,-0.179199,0.124349,0.054356,0.307069
"2019-04-16 05:20:05.018 +0000",1555392005.017894,-1.491721,1.200759,-1.505423,-0.360520,-0.932314,-0.028568,0.000000,0.000000,0.000000,-1,0.156350,-0.789225,0.054812,0.115495,-0.071989,0.307651
"2019-04-16 05:20:05.040 +0000",1555392005.040200,-1.532277,1.195054,-1.487555,-0.366691,-0.930235,-0.014132,0.000000,0.000000,0.000000,-1,0.367029,-1.257611,0.428741,0.379753,-0.131395,0.077562
"2019-04-16 05:20:05.063 +0000",1555392005.062509,-1.594693,1.180096,-1.457346,-0.380727,-0.924643,0.009100,0.000000,0.000000,0.000000,-1,0.550124,-1.653466,0.793331,0.494695,-0.116815,0.041208
"2019-04-16 05:20:05.085 +0000",1555392005.084817,-1.655482,1.161452,-1.431377,-0.396581,-0.917382,0.033665,0.000000,0.000000,0.000000,-1,0.432184,-1.584701,0.774062,0.686987,-0.052467,0.026332
"2019-04-16 05:20:05.107 +0000",1555392005.107109,-1.696752,1.148051,-1.418276,-0.407016,-0.911966,0.051539,0.000000,0.000000,0.000000,-1,0.222878,-1.106368,0.427337,0.342334,-0.032507,0.047201
"2019-04-16 05:20:05.129 +0000",1555392005.129396,-1.722324,1.144040,-1.410082,-0.409178,-0.910313,0.062481,0.000000,0.000000,0.000000,-1,0.183794,-0.695925,0.001893,0.196058,-0.028682,0.048512
"2019-04-16 05:20:05.152 +0000",1555392005.151710,-1.754235,1.146270,-1.392529,-0.404978,-0.911234,0.075133,0.000000,0.000000,0.000000,-1,0.383577,-0.770467,-0.209492,0.138377,-0.012701,0.041047
"2019-04-16 05:20:05.174 +0000",1555392005.174018,-1.798130,1.149951,-1.366029,-0.398021,-0.912744,0.092075,0.000000,0.000000,0.000000,-1,0.445823,-0.944231,-0.287301,0.056835,-0.007117,0.033306
"2019-04-16 05:20:05.196 +0000",1555392005.196295,-1.841813,1.155255,-1.344224,-0.388950,-0.914898,0.108071,0.000000,0.000000,0.000000,-1,0.243420,-1.157424,-0.362409,0.046147,-0.047764,-0.059563
"2019-04-16 05:20:05.219 +0000",1555392005.218605,-1.884385,1.162971,-1.329640,-0.377272,-0.917986,0.122345,0.000000,0.000000,0.000000,-1,0.115127,-1.385241,-0.410063,0.157805,-0.045912,-0.119522
"2019-04-16 05:20:05.241 +0000",1555392005.240912,-1.927679,1.170171,-1.317355,-0.365420,-0.920817,0.136246,0.000000,0.000000,0.000000,-1,0.104071,-1.437886,-0.343852,0.238498,-0.071080,-0.161469
"2019-04-16 05:20:05.263 +0000",1555392005.263191,-1.969642,1.174168,-1.303682,-0.355989,-0.922369,0.150025,0.000000,0.000000,0.000000,-1,0.191401,-1.210909,-0.190762,0.297227,-0.060999,-0.194047
"2019-04-16 05:20:05.285 +0000",1555392005.285497,-2.002901,1.174369,-1.290792,-0.350635,-0.922446,0.161703,0.000000,0.000000,0.000000,-1,0.187222,-0.799512,-0.054234,0.280216,-0.053887,-0.199575
"2019-04-16 05:20:05.308 +0000",1555392005.307805,-2.023822,1.173089,-1.282835,-0.348237,-0.921952,0.169519,0.000000,0.000000,0.000000,-1,0.133725,-0.527430,0.007836,0.201020,-0.038513,-0.191247
"2019-04-16 05:20:05.330 +0000",1555392005.330110,-2.040894,1.171482,-1.275825,-0.346613,-0.921328,0.176110,0.000000,0.000000,0.000000,-1,0.158875,-0.453598,0.010913,0.120523,-0.033781,-0.210458
"2019-04-16 05:20:05.352 +0000",1555392005.352391,-2.057854,1.168827,-1.266247,-0.345737,-0.920292,0.183107,0.000000,0.000000,0.000000,-1,0.219371,-0.292255,0.054166,0.101917,-0.043606,-0.213045
"2019-04-16 05:20:05.375 +0000",1555392005.374698,-2.066203,1.163795,-1.262949,-0.348265,-0.918312,0.188186,0.000000,0.000000,0.000000,-1,0.099782,-0.238658,0.248404,0.066893,-0.088936,-0.186019
"2019-04-16 05:20:05.397 +0000",1555392005.397006,-2.057711,1.157708,-1.275474,-0.354784,-0.915886,0.187834,0.000000,0.000000,0.000000,-1,-0.207896,-0.001908,0.427289,0.064211,-0.131554,-0.131239
"2019-04-16 05:20:05.419 +0000",1555392005.419314,-2.016718,1.151000,-1.311932,-0.367719,-0.913172,0.175783,0.000000,0.000000,0.000000,-1,-0.608043,0.581816,0.634069,0.158780,-0.198492,0.001860
"2019-04-16 05:20:05.442 +0000",1555392005.441591,-1.947770,1.142719,-1.365160,-0.385973,-0.909766,0.152810,0.000000,0.000000,0.000000,-1,-0.786456,1.031364,0.793753,0.262957,-0.172250,0.095069
"2019-04-16 05:20:05.464 +0000",1555392005.463899,-1.871395,1.133871,-1.424408,-0.404181,-0.906057,0.125293,0.000000,0.000000,0.000000,-1,-1.042898,0.954509,0.670272,0.314170,-0.173731,0.271313
"2019-04-16 05:20:05.486 +0000",1555392005.486212,-1.788635,1.130964,-1.497223,-0.415725,-0.904823,0.092021,0.000000,0.000000,0.000000,-1,-1.449466,0.686228,0.368546,0.487883,-0.114326,0.186406
"2019-04-16 05:20:05.509 +0000",1555392005.508515,-1.703213,1.132195,-1.574486,-0.420956,-0.905347,0.056069,0.000000,0.000000,0.000000,-1,-1.362686,0.690213,0.116718,0.507076,-0.077152,0.140418
"2019-04-16 05:20:05.531 +0000",1555392005.530792,-1.639242,1.133358,-1.631950,-0.422629,-0.905840,0.028972,0.000000,0.000000,0.000000,-1,-0.970471,0.407252,0.067295,0.503683,-0.156965,0.075230
"2019-04-16 05:20:05.553 +0000",1555392005.553110,-1.589369,1.133106,-1.680542,-0.423775,-0.905733,0.007871,0.000000,0.000000,0.000000,-1,-0.870385,0.228789,0.032947,0.416619,-0.439726,0.082537
"2019-04-16 05:20:05.575 +0000",1555392005.575408,-1.546964,1.133273,-1.717201,-0.423577,-0.905804,-0.010097,0.000000,0.000000,0.000000,-1,-0.592003,0.576738,-0.045696,0.191353,-0.336139,0.051128
"2019-04-16 05:20:05.598 +0000",1555392005.597716,-1.500095,1.137054,-1.745846,-0.419220,-0.907399,-0.029689,0.000000,0.000000,0.000000,-1,-0.529922,1.161335,-0.300207,0.098663,-0.224193,0.067805
"2019-04-16 05:20:05.620 +0000",1555392005.619993,-1.438596,1.145593,-1.776994,-0.408907,-0.910955,-0.054375,0.000000,0.000000,0.000000,-1,-0.525355,1.642818,-0.491801,0.055315,-0.041880,0.103005
"2019-04-16 05:20:05.642 +0000",1555392005.642301,-1.374342,1.154249,-1.805861,-0.396822,-0.914492,-0.078976,0.000000,0.000000,0.000000,-1,-0.402149,1.676328,-0.428778,0.060442,0.053881,0.147137
"2019-04-16 05:20:05.665 +0000",1555392005.664608,-1.325251,1.160247,-1.821740,-0.387141,-0.916902,-0.097019,0.000000,0.000000,0.000000,-1,-0.094279,1.464306,-0.256810,0.130748,0.091127,0.127658
"2019-04-16 05:20:05.687 +0000",1555392005.686886,-1.297742,1.164596,-1.819237,-0.380483,-0.918629,-0.106554,0.000000,0.000000,0.000000,-1,0.166998,1.282825,-0.134754,0.236364,0.097538,0.087908
"2019-04-16 05:20:05.709 +0000",1555392005.709190,-1.277068,1.166846,-1.811145,-0.376220,-0.919515,-0.113798,0.000000,0.000000,0.000000,-1,0.124931,1.258770,0.011825,0.463134,0.088567,0.032789
"2019-04-16 05:20:05.731 +0000",1555392005.731498,-1.250215,1.163338,-1.810693,-0.376087,-0.918131,-0.124874,0.000000,0.000000,0.000000,-1,-0.158944,1.183245,0.235671,0.524219,0.091074,-0.007069
"2019-04-16 05:20:05.754 +0000",1555392005.753801,-1.218766,1.153805,-1.817452,-0.380174,-0.914312,-0.139650,0.000000,0.000000,0.000000,-1,-0.287422,1.148222,0.418286,0.460786,0.068486,-0.045516
"2019-04-16 05:20:05.776 +0000",1555392005.776094,-1.186096,1.142914,-1.822046,-0.384617,-0.909846,-0.155721,0.000000,0.000000,0.000000,-1,-0.200768,1.369641,0.406434,0.221928,0.000438,-0.011714
"2019-04-16 05:20:05.798 +0000",1555392005.798390,-1.157984,1.137783,-1.814532,-0.384359,-0.907706,-0.168341,0.000000,0.000000,0.000000,-1,0.199748,1.656651,0.143544,0.199712,-0.011713,-0.010171
"2019-04-16 05:20:05.821 +0000",1555392005.820699,-1.141324,1.144367,-1.795308,-0.376060,-0.910448,-0.172229,0.000000,0.000000,0.000000,-1,0.588079,1.412955,-0.249859,0.172920,-0.018232,-0.002454
"2019-04-16 05:20:05.843 +0000",1555392005.843009,-1.138709,1.157223,-1.767975,-0.364948,-0.915691,-0.168296,0.000000,0.000000,0.000000,-1,0.700512,1.143340,-0.316888,0.149311,-0.046834,0.089103
"2019-04-16 05:20:05.865 +0000",1555392005.865284,-1.140804,1.168256,-1.741599,-0.356095,-0.920069,-0.163309,0.000000,0.000000,0.000000,-1,0.594158,0.891529,-0.209252,0.178894,-0.147161,0.086588
"2019-04-16 05:20:05.888 +0000",1555392005.887592,-1.144075,1.175191,-1.719769,-0.350811,-0.922763,-0.159499,0.000000,0.000000,0.000000,-1,0.385119,0.700074,-0.069942,0.256496,-0.203946,0.088378
"2019-04-16 05:20:05.910 +0000",1555392005.909900,-1.143085,1.176265,-1.706280,-0.349750,-0.923177,-0.159435,0.000000,0.000000,0.000000,-1,0.146200,0.527260,0.121292,0.381534,-0.200419,0.022197
"2019-04-16 05:20:05.932 +0000",1555392005.932209,-1.140872,1.174090,-1.699204,-0.351221,-0.922338,-0.161045,0.000000,0.000000,0.000000,-1,0.050709,0.287343,0.122140,0.463099,-0.116388,-0.053799
"2019-04-16 05:20:05.954 +0000",1555392005.954486,-1.150308,1.175919,-1.686140,-0.351184,-0.923044,-0.157035,0.000000,0.000000,0.000000,-1,0.423604,0.037088,-0.056598,0.392001,-0.114325,0.010047
"2019-04-16 05:20:05.977 +0000",1555392005.976792,-1.191639,1.186500,-1.644950,-0.348280,-0.927062,-0.138767,0.000000,0.000000,0.000000,-1,1.057558,-0.209221,-0.198042,0.238356,-0.111344,0.148899
"2019-04-16 05:20:05.999 +0000",1555392005.999078,-1.252283,1.200442,-1.579466,-0.343740,-0.932199,-0.113345,0.000000,0.000000,0.000000,-1,1.243398,0.202879,-0.218988,0.139288,-0.252676,0.262500
"2019-04-16 05:20:06.021 +0000",1555392006.021409,-1.295186,1.211609,-1.520005,-0.338247,-0.936183,-0.095659,0.000000,0.000000,0.000000,-1,0.920250,0.753943,-0.195486,0.100851,-0.252370,0.286653
"2019-04-16 05:20:06.044 +0000",1555392006.043694,-1.313115,1.219890,-1.481091,-0.332400,-0.939061,-0.087601,0.000000,0.000000,0.000000,-1,0.557745,0.810341,-0.204826,0.161089,-0.058482,0.334778
"2019-04-16 05:20:06.066 +0000",1555392006.065995,-1.320556,1.227313,-1.455213,-0.326280,-0.941587,-0.083396,0.000000,0.000000,0.000000,-1,0.452249,0.772062,-0.230582,0.222581,0.074873,0.313590
"2019-04-16 05:20:06.088 +0000",1555392006.088302,-1.327723,1.235391,-1.427025,-0.319475,-0.944277,-0.079222,0.000000,0.000000,0.000000,-1,0.530020,0.938060,-0.258074,0.187807,0.133944,0.256438
"2019-04-16 05:20:06.111 +0000",1555392006.110610,-1.335532,1.244857,-1.394496,-0.311379,-0.947350,-0.074638,0.000000,0.000000,0.000000,-1,0.576226,1.066969,-0.329909,0.064018,0.155617,0.280190
"2019-04-16 05:20:06.133 +0000",1555392006.132888,-1.350652,1.254818,-1.354585,-0.303247,-0.950493,-0.067858,0.000000,0.000000,0.000000,-1,0.704388,0.951670,-0.256880,-0.012930,0.111458,0.314669
"2019-04-16 05:20:06.155 +0000",1555392006.155192,-1.380233,1.259439,-1.304137,-0.300805,-0.951919,-0.058027,0.000000,0.000000,0.000000,-1,0.690651,0.772194,0.095781,0.009561,-0.046586,0.253202
"2019-04-16 05:20:06.178 +0000",1555392006.177504,-1.405746,1.255013,-1.261056,-0.306341,-0.950553,-0.051026,0.000000,0.000000,0.000000,-1,0.481016,0.648971,0.393287,0.076787,-0.178673,0.211090
"2019-04-16 05:20:06.200 +0000",1555392006.199782,-1.426340,1.245506,-1.225690,-0.316255,-0.947558,-0.046005,0.000000,0.000000,0.000000,-1,0.399960,0.565792,0.524247,0.194460,-0.247541,0.200196
"2019-04-16 05:20:06.222 +0000",1555392006.222095,-1.440367,1.235631,-1.196489,-0.326131,-0.944356,-0.042780,0.000000,0.000000,0.000000,-1,0.335808,0.661484,0.463824,0.381323,-0.029140,0.153437
"2019-04-16 05:20:06.244 +0000",1555392006.244397,-1.445037,1.228806,-1.173432,-0.332714,-0.942089,-0.042064,0.000000,0.000000,0.000000,-1,0.291189,0.826749,0.260130,0.370678,0.010113,0.179958
"2019-04-16 05:20:06.267 +0000",1555392006.266705,-1.443995,1.228480,-1.152880,-0.332975,-0.941980,-0.042449,0.000000,0.000000,0.000000,-1,0.324987,0.953363,-0.085850,0.234220,0.077371,0.214629
"2019-04-16 05:20:06.289 +0000",1555392006.288982,-1.445677,1.235085,-1.128554,-0.326865,-0.944176,-0.041112,0.000000,0.000000,0.000000,-1,0.438173,0.938979,-0.318896,0.105399,0.073418,0.216924
"2019-04-16 05:20:06.311 +0000",1555392006.311290,-1.451066,1.244828,-1.101312,-0.317934,-0.947341,-0.038249,0.000000,0.000000,0.000000,-1,0.430229,0.895553,-0.414035,0.019930,0.026076,0.207561
"2019-04-16 05:20:06.334 +0000",1555392006.333598,-1.450834,1.256068,-1.081322,-0.307334,-0.950880,-0.037046,0.000000,0.000000,0.000000,-1,0.275587,0.836140,-0.491728,0.034110,-0.011644,0.210478
"2019-04-16 05:20:06.356 +0000",1555392006.355906,-1.439798,1.267565,-1.074653,-0.296048,-0.954377,-0.039005,0.000000,0.000000,0.000000,-1,0.083611,0.735194,-0.489674,0.062329,-0.018036,0.190861
"2019-04-16 05:20:06.378 +0000",1555392006.378209,-1.420310,1.277279,-1.080227,-0.286051,-0.957232,-0.043375,0.000000,0.000000,0.000000,-1,-0.054143,0.565697,-0.406352,0.120875,-0.023374,0.169794
"2019-04-16 05:20:06.400 +0000",1555392006.400491,-1.402273,1.284253,-1.088281,-0.278634,-0.959227,-0.047406,0.000000,0.000000,0.000000,-1,-0.043709,0.417327,-0.283458,0.139505,-0.037996,0.161694
"2019-04-16 05:20:06.423 +0000",1555392006.422798,-1.390122,1.289783,-1.090639,-0.272815,-0.960775,-0.049834,0.000000,0.000000,0.000000,-1,0.056898,0.481542,-0.230642,0.145511,-0.042826,0.153441
"2019-04-16 05:20:06.445 +0000",1555392006.445093,-1.383665,1.295158,-1.084443,-0.267410,-0.962252,-0.050633,0.000000,0.000000,0.000000,-1,0.144799,0.599689,-0.226691,0.065383,-0.014647,0.179524
"2019-04-16 05:20:06.467 +0000",1555392006.467383,-1.376050,1.301767,-1.076714,-0.260772,-0.964029,-0.051436,0.000000,0.000000,0.000000,-1,0.145792,0.727296,-0.312180,0.040313,-0.006689,0.186065
"2019-04-16 05:20:06.490 +0000",1555392006.489693,-1.497341,1.319826,-0.941916,-0.247675,-0.968672,-0.018226,0.000000,0.000000,0.000000,-1,0.156721,0.824000,-0.428464,-0.004614,-0.007357,0.150886
"2019-04-16 05:20:06.512 +0000",1555392006.512000,-1.489248,1.330578,-0.929901,-0.237124,-0.971286,-0.019380,0.000000,0.000000,0.000000,-1,0.171590,0.932017,-0.491444,-0.032102,0.011325,0.129274
"2019-04-16 05:20:06.534 +0000",1555392006.534308,-1.486468,1.341947,-0.910084,-0.226050,-0.973928,-0.019108,0.000000,0.000000,0.000000,-1,0.302180,1.034239,-0.474928,-0.047662,0.001287,0.105839
"2019-04-16 05:20:06.557 +0000",1555392006.556584,-1.493596,1.351900,-0.878276,-0.216506,-0.976138,-0.016748,0.000000,0.000000,0.000000,-1,0.354043,1.072783,-0.374764,-0.086564,-0.040845,0.139123
"2019-04-16 05:20:06.579 +0000",1555392006.578894,-1.497771,1.358988,-0.851124,-0.209668,-0.977652,-0.015338,0.000000,0.000000,0.000000,-1,0.226499,0.948942,-0.255868,-0.075519,-0.036386,0.189716
"2019-04-16 05:20:06.601 +0000",1555392006.601202,-1.488441,1.362877,-0.841267,-0.205725,-0.978463,-0.016981,0.000000,0.000000,0.000000,-1,0.031338,0.803056,-0.104551,-0.034937,-0.061241,0.184187
"2019-04-16 05:20:06.624 +0000",1555392006.623509,-1.458620,1.362493,-0.853493,-0.205500,-0.978383,-0.023149,0.000000,0.000000,0.000000,-1,-0.199962,0.819654,0.077562,0.097788,-0.112010,0.194795
"2019-04-16 05:20:06.646 +0000",1555392006.645786,-1.409211,1.358540,-0.882491,-0.207922,-0.977558,-0.033893,0.000000,0.000000,0.000000,-1,-0.346209,1.054883,0.163490,0.171697,-0.119686,0.230670
"2019-04-16 05:20:06.668 +0000",1555392006.668087,-1.335318,1.353257,-0.927608,-0.209871,-0.976431,-0.050354,0.000000,0.000000,0.000000,-1,-0.553021,1.520870,0.123289,0.057390,-0.051202,0.383164
"2019-04-16 05:20:06.690 +0000",1555392006.690402,-1.233381,1.347177,-0.990680,-0.209256,-0.975101,-0.073414,0.000000,0.000000,0.000000,-1,-0.726015,1.963465,0.074627,0.016980,-0.028912,0.428592
"2019-04-16 05:20:06.713 +0000",1555392006.712681,-1.120445,1.338942,-1.058053,-0.206872,-0.973242,-0.100020,0.000000,0.000000,0.000000,-1,-0.792315,2.178745,0.082612,-0.020652,0.050436,0.462691
"2019-04-16 05:20:06.735 +0000",1555392006.734988,-1.010878,1.328795,-1.121157,-0.203052,-0.970860,-0.127280,0.000000,0.000000,0.000000,-1,-0.797426,2.120875,0.069477,0.051105,0.092107,0.496695
"2019-04-16 05:20:06.757 +0000",1555392006.757296,-0.910935,1.316697,-1.179665,-0.198605,-0.967890,-0.154094,0.000000,0.000000,0.000000,-1,-0.875315,1.812160,0.092033,0.266109,0.114756,0.462932
"2019-04-16 05:20:06.780 +0000",1555392006.779583,-0.828124,1.301802,-1.228865,-0.195778,-0.964039,-0.179724,0.000000,0.000000,0.000000,-1,-0.828870,1.460617,0.159681,0.328239,0.046802,0.429266
"2019-04-16 05:20:06.802 +0000",1555392006.801881,-0.766979,1.286952,-1.258990,-0.194343,-0.959986,-0.201638,0.000000,0.000000,0.000000,-1,-0.686793,1.486811,0.237664,0.285164,-0.119055,0.393334
"2019-04-16 05:20:06.824 +0000",1555392006.824190,-0.710090,1.272304,-1.280507,-0.191711,-0.955781,-0.223001,0.000000,0.000000,0.000000,-1,-0.664063,1.727919,0.234293,0.211990,-0.318603,0.363062
"2019-04-16 05:20:06.846 +0000",1555392006.846497,-0.649622,1.258669,-1.298750,-0.185751,-0.951683,-0.244535,0.000000,0.000000,0.000000,-1,-0.602682,2.053647,0.159476,0.119772,-0.304391,0.384824
"2019-04-16 05:20:06.869 +0000",1555392006.868805,-0.582576,1.247094,-1.315888,-0.175000,-0.948064,-0.265611,0.000000,0.000000,0.000000,-1,-0.537564,2.407627,0.073246,0.038861,-0.205348,0.375322
"2019-04-16 05:20:06.891 +0000",1555392006.891072,-0.510166,1.236978,-1.331026,-0.160001,-0.944798,-0.285931,0.000000,0.000000,0.000000,-1,-0.485992,2.691767,0.060821,-0.022785,-0.034999,0.407025
"2019-04-16 05:20:06.913 +0000",1555392006.913390,-0.443147,1.226560,-1.337643,-0.144705,-0.941334,-0.304880,0.000000,0.000000,0.000000,-1,-0.437849,2.719285,0.173487,-0.016641,-0.008694,0.436441
"2019-04-16 05:20:06.936 +0000",1555392006.935698,-0.387665,1.217501,-1.333038,-0.130795,-0.938237,-0.320317,0.000000,0.000000,0.000000,-1,-0.269491,2.667984,0.249687,0.048946,-0.005809,0.442281
"2019-04-16 05:20:06.958 +0000",1555392006.958007,-0.338161,1.213487,-1.321716,-0.116032,-0.936841,-0.329947,0.000000,0.000000,0.000000,-1,-0.006213,2.731894,0.205814,0.063374,-0.026660,0.402060
"2019-04-16 05:20:06.980 +0000",1555392006.980283,-0.285385,1.214046,-1.311785,-0.098318,-0.937037,-0.335106,0.000000,0.000000,0.000000,-1,0.100077,2.793096,0.114757,0.035284,-0.019812,0.323754
"2019-04-16 05:20:07.003 +0000",1555392007.002579,-0.233223,1.215543,-1.302882,-0.080388,-0.937558,-0.338411,0.000000,0.000000,0.000000,-1,0.101328,2.662781,0.135762,-0.049983,0.026197,0.326357
"2019-04-16 05:20:07.025 +0000",1555392007.024931,-0.185743,1.216116,-1.291574,-0.064137,-0.937757,-0.341317,0.000000,0.000000,0.000000,-1,0.029962,2.585426,0.181078,-0.100979,0.051619,0.330087
"2019-04-16 05:20:07.047 +0000",1555392007.047201,-0.139017,1.215860,-1.278347,-0.048157,-0.937669,-0.344178,0.000000,0.000000,0.000000,-1,0.035165,2.699934,0.207356,-0.204482,0.065217,0.343843
"2019-04-16 05:20:07.069 +0000",1555392007.069479,-0.089672,1.219240,-1.266816,-0.030838,-0.938838,-0.342976,0.000000,0.000000,0.000000,-1,0.293193,2.639457,0.127368,-0.219605,0.036113,0.353367
"2019-04-16 05:20:07.092 +0000",1555392007.091794,-0.044568,1.229650,-1.258816,-0.014906,-0.942372,-0.334235,0.000000,0.000000,0.000000,-1,0.544749,2.178017,0.065823,-0.175051,-0.006969,0.368674
"2019-04-16 05:20:07.114 +0000",1555392007.114074,0.001743,1.242124,-1.257740,0.000563,-0.946472,-0.322786,0.000000,0.000000,0.000000,-1,0.536854,2.155537,-0.020819,-0.109922,-0.097535,0.329591
"2019-04-16 05:20:07.136 +0000",1555392007.136378,0.050002,1.251771,-1.257048,0.015676,-0.949542,-0.313249,0.000000,0.000000,0.000000,-1,0.362897,2.182885,0.071905,-0.113012,-0.102384,0.290681
"2019-04-16 05:20:07.159 +0000",1555392007.158685,0.086044,1.258705,-1.245319,0.026387,-0.951693,-0.305914,0.000000,0.000000,0.000000,-1,0.279499,2.060523,0.250352,-0.085622,-0.104413,0.273138
"2019-04-16 05:20:07.181 +0000",1555392007.180993,0.110261,1.267703,-1.225156,0.032843,-0.954418,-0.296662,0.000000,0.000000,0.000000,-1,0.465312,1.868982,0.332782,-0.087149,-0.060460,0.252930
"2019-04-16 05:20:07.203 +0000",1555392007.203288,0.131166,1.284167,-1.206907,0.036977,-0.959202,-0.280292,0.000000,0.000000,0.000000,-1,0.858949,1.634126,0.316428,-0.157155,0.084111,0.213321
"2019-04-16 05:20:07.226 +0000",1555392007.225579,0.156537,1.308247,-1.197566,0.040462,-0.965731,-0.256370,0.000000,0.000000,0.000000,-1,1.131908,1.496090,0.219767,-0.166500,0.107714,0.193794
"2019-04-16 05:20:07.248 +0000",1555392007.247887,0.200417,1.334325,-1.209690,0.046639,-0.972171,-0.229584,0.000000,0.000000,0.000000,-1,1.191023,1.407795,-0.033735,-0.179314,0.130237,0.227326
"2019-04-16 05:20:07.270 +0000",1555392007.270194,0.281053,1.360147,-1.261404,0.057996,-0.977895,-0.200890,0.000000,0.000000,0.000000,-1,1.301406,1.314453,-0.325626,-0.193708,0.102422,0.272988
"2019-04-16 05:20:07.293 +0000",1555392007.292503,0.405214,1.385711,-1.360873,0.072548,-0.982920,-0.169128,0.000000,0.000000,0.000000,-1,1.393440,1.137949,-0.489012,-0.204567,0.037440,0.315109
"2019-04-16 05:20:07.315 +0000",1555392007.314781,0.567416,1.407196,-1.498976,0.087536,-0.986647,-0.137348,0.000000,0.000000,0.000000,-1,1.301932,1.228938,-0.489859,-0.197247,-0.050859,0.383824
"2019-04-16 05:20:07.337 +0000",1555392007.337093,0.748423,1.421540,-1.651336,0.101189,-0.988882,-0.108964,0.000000,0.000000,0.000000,-1,1.060230,1.450486,-0.432383,-0.211739,-0.122339,0.423783
"2019-04-16 05:20:07.359 +0000",1555392007.359390,0.926194,1.427268,-1.794851,0.114334,-0.989718,-0.085947,0.000000,0.000000,0.000000,-1,0.751731,1.684000,-0.454437,-0.234345,-0.105177,0.418299
"2019-04-16 05:20:07.382 +0000",1555392007.381703,1.084538,1.425233,-1.916072,0.128237,-0.989424,-0.067785,0.000000,0.000000,0.000000,-1,0.552048,1.716879,-0.519322,-0.268191,-0.032777,0.419103
"2019-04-16 05:20:07.404 +0000",1555392007.403981,1.226109,1.419269,-2.022432,0.142069,-0.988542,-0.051006,0.000000,0.000000,0.000000,-1,0.548167,1.550803,-0.520331,-0.259226,0.094514,0.354869
"2019-04-16 05:20:07.426 +0000",1555392007.426289,1.355598,1.413106,-2.121680,0.153416,-0.987593,-0.033534,0.000000,0.000000,0.000000,-1,0.597423,1.345841,-0.403120,-0.257481,0.074217,0.325633
"2019-04-16 05:20:07.449 +0000",1555392007.448597,1.470965,1.409126,-2.208141,0.160165,-0.986960,-0.016043,0.000000,0.000000,0.000000,-1,0.554426,1.360202,-0.183690,-0.250161,0.020911,0.283102
"2019-04-16 05:20:07.471 +0000",1555392007.470905,1.568524,1.409890,-2.275845,0.160212,-0.987083,-0.000364,0.000000,0.000000,0.000000,-1,0.436487,1.361311,0.116460,-0.232722,-0.020821,0.217252
"2019-04-16 05:20:07.493 +0000",1555392007.493181,1.642062,1.414093,-2.321352,0.155667,-0.987747,0.011113,0.000000,0.000000,0.000000,-1,0.238635,1.231233,0.220495,-0.231946,-0.103653,0.222194
"2019-04-16 05:20:07.515 +0000",1555392007.515491,1.694372,1.418349,-2.347995,0.150699,-0.988402,0.018718,0.000000,0.000000,0.000000,-1,0.148149,1.143746,0.192700,-0.188266,-0.119492,0.200718
"2019-04-16 05:20:07.538 +0000",1555392007.537799,1.749970,1.421231,-2.378549,0.146623,-0.988836,0.026556,0.000000,0.000000,0.000000,-1,0.216875,1.143526,0.128223,-0.181062,-0.065028,0.133295
"2019-04-16 05:20:07.560 +0000",1555392007.560075,1.819972,1.421197,-2.423121,0.144439,-0.988831,0.036754,0.000000,0.000000,0.000000,-1,0.334340,1.176349,0.013853,-0.337661,0.076722,0.154637
"2019-04-16 05:20:07.582 +0000",1555392007.582382,1.895310,1.417302,-2.472574,0.144912,-0.988243,0.048749,0.000000,0.000000,0.000000,-1,0.365160,1.180770,-0.118911,-0.355926,0.089454,0.156634
"2019-04-16 05:20:07.605 +0000",1555392007.604693,1.948057,1.411317,-2.500656,0.147637,-0.987310,0.058500,0.000000,0.000000,0.000000,-1,0.212898,1.078208,-0.221031,-0.351723,0.096777,0.166537
"2019-04-16 05:20:07.627 +0000",1555392007.626999,1.967695,1.405026,-2.498135,0.152185,-0.986292,0.063787,0.000000,0.000000,0.000000,-1,0.024359,0.933927,-0.291782,-0.343011,0.089609,0.162486
"2019-04-16 05:20:07.649 +0000",1555392007.649277,1.957421,1.399808,-2.468122,0.157596,-0.985417,0.064160,0.000000,0.000000,0.000000,-1,-0.221619,0.841502,-0.307194,-0.312595,0.034306,0.150531
"2019-04-16 05:20:07.672 +0000",1555392007.671585,1.914050,1.396307,-2.406568,0.163478,-0.984815,0.058427,0.000000,0.000000,0.000000,-1,-0.472616,0.723256,-0.318658,-0.304256,0.004652,0.171477
"2019-04-16 05:20:07.694 +0000",1555392007.693892,1.850983,1.393859,-2.327641,0.169152,-0.984387,0.048675,0.000000,0.000000,0.000000,-1,-0.572850,0.627433,-0.274431,-0.313042,-0.004062,0.192735
"2019-04-16 05:20:07.716 +0000",1555392007.716177,1.790995,1.392005,-2.254635,0.173546,-0.984059,0.038845,0.000000,0.000000,0.000000,-1,-0.519954,0.464152,-0.194805,-0.331261,-0.022212,0.200688
"2019-04-16 05:20:07.738 +0000",1555392007.738477,1.740581,1.390692,-2.194114,0.176556,-0.983825,0.030268,0.000000,0.000000,0.000000,-1,-0.405635,0.389375,-0.139509,-0.364316,-0.017686,0.217535
"2019-04-16 05:20:07.761 +0000",1555392007.760786,1.711706,1.388227,-2.155903,0.179757,-0.983380,0.025499,0.000000,0.000000,0.000000,-1,-0.217609,0.405317,-0.173064,-0.376687,-0.023928,0.157042
"2019-04-16 05:20:07.783 +0000",1555392007.783075,1.703967,1.384258,-2.137524,0.183816,-0.982652,0.024625,0.000000,0.000000,0.000000,-1,-0.072218,0.487638,-0.214670,-0.424737,0.083726,0.115466
"2019-04-16 05:20:07.805 +0000",1555392007.805402,1.709581,1.378932,-2.131856,0.188856,-0.981650,0.026380,0.000000,0.000000,0.000000,-1,0.015387,0.507156,-0.266909,-0.431028,0.088523,0.124117
"2019-04-16 05:20:07.828 +0000",1555392007.827681,1.726488,1.372032,-2.137674,0.195070,-0.980311,0.030618,0.000000,0.000000,0.000000,-1,0.150633,0.489791,-0.318799,-0.467928,0.004405,0.129812
"2019-04-16 05:20:07.850 +0000",1555392007.849987,1.755106,1.363992,-2.155844,0.201856,-0.978692,0.037631,0.000000,0.000000,0.000000,-1,0.253394,0.474991,-0.339713,-0.479276,-0.010962,0.118344
"2019-04-16 05:20:07.872 +0000",1555392007.872293,1.787807,1.354904,-2.178700,0.209195,-0.976786,0.046124,0.000000,0.000000,0.000000,-1,0.313534,0.454052,-0.353148,-0.514416,-0.030767,0.077656
"2019-04-16 05:20:07.895 +0000",1555392007.894572,1.823478,1.346165,-2.204629,0.215674,-0.974876,0.055687,0.000000,0.000000,0.000000,-1,0.351365,0.475158,-0.307419,-0.538199,-0.047371,0.065712
"2019-04-16 05:20:07.917 +0000",1555392007.916893,1.861571,1.338120,-2.231525,0.220903,-0.973053,0.066107,0.000000,0.000000,0.000000,-1,0.366701,0.568864,-0.253660,-0.513918,-0.055054,0.060709
"2019-04-16 05:20:07.939 +0000",1555392007.939188,1.902798,1.330925,-2.259247,0.224604,-0.971368,0.077435,0.000000,0.000000,0.000000,-1,0.374525,0.685939,-0.200112,-0.478450,-0.069922,0.079807
"2019-04-16 05:20:07.961 +0000",1555392007.961496,1.942794,1.324580,-2.282478,0.227065,-0.969842,0.088593,0.000000,0.000000,0.000000,-1,0.280654,0.822552,-0.172833,-0.458556,-0.077064,0.094772
"2019-04-16 05:20:07.984 +0000",1555392007.983773,1.966065,1.319639,-2.287177,0.229362,-0.968625,0.095696,0.000000,0.000000,0.000000,-1,0.032215,0.834666,-0.194136,-0.414939,-0.076388,0.135353
"2019-04-16 05:20:08.006 +0000",1555392008.006077,1.965531,1.316865,-2.267102,0.231893,-0.967932,0.096606,0.000000,0.000000,0.000000,-1,-0.263840,0.867706,-0.206961,-0.308492,-0.106149,0.182919
"2019-04-16 05:20:08.028 +0000",1555392008.028397,1.947022,1.316163,-2.227137,0.234273,-0.967756,0.092548,0.000000,0.000000,0.000000,-1,-0.484519,0.908264,-0.192530,-0.307241,-0.104251,0.213101
"2019-04-16 05:20:08.051 +0000",1555392008.050698,1.913259,1.317163,-2.172994,0.236352,-0.968007,0.084262,0.000000,0.000000,0.000000,-1,-0.632469,0.763196,-0.152848,-0.302270,-0.088191,0.217450
"2019-04-16 05:20:08.073 +0000",1555392008.072974,1.869718,1.320127,-2.113568,0.237053,-0.968747,0.073049,0.000000,0.000000,0.000000,-1,-0.696100,0.556960,-0.034434,-0.270592,-0.063068,0.215617
"2019-04-16 05:20:08.095 +0000",1555392008.095282,1.817742,1.325826,-2.048242,0.235170,-0.970145,0.059284,0.000000,0.000000,0.000000,-1,-0.804712,0.503312,0.101214,-0.128404,-0.020380,0.197140
"2019-04-16 05:20:08.118 +0000",1555392008.117591,1.756864,1.333059,-1.971717,0.231439,-0.971873,0.043567,0.000000,0.000000,0.000000,-1,-0.899716,0.694131,0.149101,-0.031946,-0.002553,0.157223
"2019-04-16 05:20:08.140 +0000",1555392008.139897,1.692736,1.339000,-1.884812,0.228020,-0.973255,0.027943,0.000000,0.000000,0.000000,-1,-0.949853,1.046970,0.098807,-0.030282,-0.005184,0.133266
"2019-04-16 05:20:08.162 +0000",1555392008.162175,1.633277,1.342418,-1.795581,0.225957,-0.974035,0.014136,0.000000,0.000000,0.000000,-1,-0.898421,1.316224,0.054261,-0.167150,-0.048625,0.164803
"2019-04-16 05:20:08.184 +0000",1555392008.184483,1.583214,1.343663,-1.712075,0.225168,-0.974316,0.002796,0.000000,0.000000,0.000000,-1,-0.807071,1.458757,0.008583,-0.283991,-0.053028,0.164318
"2019-04-16 05:20:08.207 +0000",1555392008.206791,1.545972,1.344648,-1.637293,0.224157,-0.974537,-0.005566,0.000000,0.000000,0.000000,-1,-0.731395,1.669402,0.074975,-0.367589,-0.054287,0.132610
"2019-04-16 05:20:08.229 +0000",1555392008.229083,1.513429,1.346177,-1.564964,0.222369,-0.974879,-0.012771,0.000000,0.000000,0.000000,-1,-0.717463,1.696581,0.103272,-0.380129,-0.024434,0.091231
"2019-04-16 05:20:08.251 +0000",1555392008.251377,1.481220,1.346936,-1.494954,0.221106,-0.975048,-0.019859,0.000000,0.000000,0.000000,-1,-0.668764,1.552559,0.073558,-0.331091,-0.010411,0.118553
"2019-04-16 05:20:08.274 +0000",1555392008.273685,1.452771,1.346872,-1.432015,0.220513,-0.975034,-0.026148,0.000000,0.000000,0.000000,-1,-0.602393,1.445529,0.064612,-0.246086,-0.000980,0.123239
"2019-04-16 05:20:08.296 +0000",1555392008.295992,1.423713,1.347539,-1.370229,0.219017,-0.975181,-0.032448,0.000000,0.000000,0.000000,-1,-0.620953,1.363396,0.141006,-0.159965,0.025200,0.095131
"2019-04-16 05:20:08.318 +0000",1555392008.318270,1.388393,1.349371,-1.304433,0.215977,-0.975585,-0.039838,0.000000,0.000000,0.000000,-1,-0.618248,1.238189,0.210349,-0.068226,0.021987,0.069577
"2019-04-16 05:20:08.341 +0000",1555392008.340577,1.354067,1.352498,-1.243302,0.211502,-0.976267,-0.046570,0.000000,0.000000,0.000000,-1,-0.517704,1.081060,0.284978,-0.075027,0.028453,0.060395
"2019-04-16 05:20:08.363 +0000",1555392008.362885,1.325821,1.357752,-1.191617,0.205124,-0.977392,-0.051280,0.000000,0.000000,0.000000,-1,-0.370651,0.942484,0.380553,-0.133911,0.029790,0.037135
"2019-04-16 05:20:08.385 +0000",1555392008.385193,1.307728,1.365798,-1.153180,0.196562,-0.979061,-0.052936,0.000000,0.000000,0.000000,-1,-0.190998,0.821119,0.469785,-0.194532,0.042736,-0.002621
"2019-04-16 05:20:08.407 +0000",1555392008.407471,1.300516,1.375413,-1.128922,0.187094,-0.980973,-0.051836,0.000000,0.000000,0.000000,-1,-0.039322,0.730117,0.460734,-0.231055,0.081544,-0.020262
"2019-04-16 05:20:08.430 +0000",1555392008.429793,1.307280,1.384104,-1.117789,0.179202,-0.982624,-0.048347,0.000000,0.000000,0.000000,-1,0.036854,0.846617,0.358008,-0.286411,0.104816,-0.078804
"2019-04-16 05:20:08.452 +0000",1555392008.452092,1.329777,1.390865,-1.119446,0.173789,-0.983856,-0.042717,0.000000,0.000000,0.000000,-1,0.120546,0.977863,0.250192,-0.325996,0.131958,-0.091805
"2019-04-16 05:20:08.474 +0000",1555392008.474395,1.368952,1.395741,-1.135844,0.170627,-0.984717,-0.034915,0.000000,0.000000,0.000000,-1,0.206723,1.064830,0.144011,-0.332278,0.133048,-0.090100
"2019-04-16 05:20:08.497 +0000",1555392008.496673,1.426053,1.398875,-1.168751,0.169287,-0.985258,-0.024676,0.000000,0.000000,0.000000,-1,0.323108,1.124863,0.067855,-0.338843,0.088133,-0.099424
"2019-04-16 05:20:08.519 +0000",1555392008.518980,1.507065,1.401362,-1.225455,0.168283,-0.985680,-0.010739,0.000000,0.000000,0.000000,-1,0.516283,1.126180,0.069167,-0.335809,0.033318,-0.132098
"2019-04-16 05:20:08.541 +0000",1555392008.541290,1.603555,1.403160,-1.298178,0.166763,-0.985982,0.005465,0.000000,0.000000,0.000000,-1,0.533858,1.093008,0.078152,-0.316040,-0.035609,-0.154574
"2019-04-16 05:20:08.564 +0000",1555392008.563596,1.678963,1.404445,-1.351006,0.164618,-0.986195,0.017876,0.000000,0.000000,0.000000,-1,0.279143,1.005538,0.072617,-0.310873,-0.087550,-0.160500
"2019-04-16 05:20:08.586 +0000",1555392008.585875,1.716409,1.403702,-1.367935,0.164557,-0.986072,0.024132,0.000000,0.000000,0.000000,-1,0.072695,0.885507,-0.087676,-0.327445,-0.167340,-0.170602
"2019-04-16 05:20:08.608 +0000",1555392008.608182,1.742303,1.398984,-1.377037,0.168460,-0.985276,0.029179,0.000000,0.000000,0.000000,-1,0.134605,0.662255,-0.248179,-0.286884,-0.168456,-0.250492
"2019-04-16 05:20:08.630 +0000",1555392008.630488,1.766385,1.391983,-1.388963,0.174471,-0.984055,0.034567,0.000000,0.000000,0.000000,-1,0.148061,0.516873,-0.307669,-0.241457,-0.146529,-0.288671
"2019-04-16 05:20:08.653 +0000",1555392008.652767,1.785784,1.384810,-1.396575,0.180658,-0.982754,0.039449,0.000000,0.000000,0.000000,-1,0.104180,0.542691,-0.306677,-0.169687,-0.156604,-0.308889
"2019-04-16 05:20:08.675 +0000",1555392008.675076,1.779460,1.378598,-1.381866,0.186874,-0.981587,0.039570,0.000000,0.000000,0.000000,-1,-0.210800,0.188371,-0.281337,-0.121154,-0.052181,-0.174808
"2019-04-16 05:20:08.697 +0000",1555392008.697382,1.753097,1.374106,-1.354811,0.192186,-0.980719,0.035429,0.000000,0.000000,0.000000,-1,-0.027755,-0.098077,-0.255145,-0.136980,-0.027857,-0.129621
"2019-04-16 05:20:08.720 +0000",1555392008.719690,1.787744,1.368115,-1.401242,0.196578,-0.979530,0.043329,0.000000,0.000000,0.000000,-1,0.706205,-0.729497,-0.107804,-0.258864,-0.002281,-0.035364
"2019-04-16 05:20:08.742 +0000",1555392008.741968,1.850427,1.364332,-1.481961,0.197038,-0.978762,0.056580,0.000000,0.000000,0.000000,-1,0.658113,-0.630385,0.078617,-0.284928,-0.091825,0.061767
"2019-04-16 05:20:08.764 +0000",1555392008.764275,1.877599,1.365201,-1.518620,0.194617,-0.978940,0.061656,0.000000,0.000000,0.000000,-1,0.130571,-0.283420,0.152225,-0.215628,-0.069965,0.087224
"2019-04-16 05:20:08.787 +0000",1555392008.786582,1.880259,1.367097,-1.527370,0.192684,-0.979325,0.061608,0.000000,0.000000,0.000000,-1,0.049866,-0.271565,0.045398,-0.144451,0.102738,0.176902
"2019-04-16 05:20:08.809 +0000",1555392008.808891,1.883561,1.362916,-1.536001,0.196374,-0.978471,0.063503,0.000000,0.000000,0.000000,-1,0.207914,-0.170649,-0.279211,-0.155388,0.119965,0.160893
"2019-04-16 05:20:08.831 +0000",1555392008.831168,1.911430,1.351253,-1.566461,0.205271,-0.975997,0.072758,0.000000,0.000000,0.000000,-1,0.592440,-0.065290,-0.433809,-0.296289,0.158492,0.107784
"2019-04-16 05:20:08.853 +0000",1555392008.853482,1.953977,1.339067,-1.614489,0.213006,-0.973271,0.085864,0.000000,0.000000,0.000000,-1,0.589340,-0.305617,-0.230709,-0.371881,-0.010830,0.134976
"2019-04-16 05:20:08.876 +0000",1555392008.875785,1.979986,1.338360,-1.654628,0.211332,-0.973108,0.091648,0.000000,0.000000,0.000000,-1,0.290474,-0.761003,0.379830,-0.339445,-0.079382,0.129009
"2019-04-16 05:20:08.898 +0000",1555392008.898067,2.005245,1.349990,-1.703135,0.198671,-0.975721,0.092186,0.000000,0.000000,0.000000,-1,0.219114,-1.085494,0.775931,-0.179704,-0.055865,-0.006493
"2019-04-16 05:20:08.920 +0000",1555392008.920371,2.036743,1.363657,-1.760505,0.183737,-0.978623,0.092397,0.000000,0.000000,0.000000,-1,0.244132,-1.081860,0.758542,-0.136145,-0.057891,-0.038411
"2019-04-16 05:20:08.943 +0000",1555392008.942678,2.079242,1.371877,-1.825691,0.172613,-0.980281,0.096200,0.000000,0.000000,0.000000,-1,0.421321,-0.861380,0.493666,-0.109258,-0.049092,-0.038232
"2019-04-16 05:20:08.965 +0000",1555392008.964986,2.129024,1.373900,-1.892560,0.165929,-0.980678,0.103620,0.000000,0.000000,0.000000,-1,0.439628,-0.639340,0.331673,-0.119909,0.018291,-0.017805
"2019-04-16 05:20:08.987 +0000",1555392008.987295,2.166442,1.375002,-1.944689,0.161043,-0.980893,0.109149,0.000000,0.000000,0.000000,-1,0.317702,-0.611358,0.264383,-0.242921,0.109357,0.030317
"2019-04-16 05:20:09.010 +0000",1555392009.009571,2.193193,1.374617,-1.985463,0.158372,-0.980818,0.113637,0.000000,0.000000,0.000000,-1,0.305946,-0.574924,0.143722,-0.363984,0.092620,0.043803
"2019-04-16 05:20:09.032 +0000",1555392009.031879,2.212461,1.370691,-2.017755,0.159237,-0.980046,0.118971,0.000000,0.000000,0.000000,-1,0.341518,-0.558459,-0.056136,-0.459392,0.057927,-0.012602
"2019-04-16 05:20:09.054 +0000",1555392009.054181,2.212747,1.363689,-2.031600,0.164695,-0.978630,0.123123,0.000000,0.000000,0.000000,-1,0.234105,-0.619494,-0.240481,-0.430473,0.033119,-0.055984
"2019-04-16 05:20:09.076 +0000",1555392009.076464,2.187042,1.356347,-2.020844,0.173664,-0.977094,0.122999,0.000000,0.000000,0.000000,-1,0.039084,-0.729555,-0.368603,-0.404774,0.022550,-0.062376
"2019-04-16 05:20:09.099 +0000",1555392009.098773,2.141637,1.349821,-1.993460,0.184429,-0.975684,0.118432,0.000000,0.000000,0.000000,-1,-0.104125,-0.910533,-0.390629,-0.349926,-0.003991,-0.075845
"2019-04-16 05:20:09.121 +0000",1555392009.121060,2.090105,1.343886,-1.964588,0.195309,-0.974366,0.111647,0.000000,0.000000,0.000000,-1,-0.094084,-1.126890,-0.352728,-0.288556,-0.080032,-0.104048
"2019-04-16 05:20:09.143 +0000",1555392009.143388,2.051597,1.339136,-1.951522,0.203563,-0.973287,0.106184,0.000000,0.000000,0.000000,-1,0.049629,-1.143360,-0.173882,-0.273967,-0.080485,-0.110304
"2019-04-16 05:20:09.166 +0000",1555392009.165665,2.041293,1.336865,-1.964662,0.206616,-0.972763,0.105083,0.000000,0.000000,0.000000,-1,0.237638,-0.943073,0.065085,-0.256543,-0.052796,-0.118267
"2019-04-16 05:20:09.188 +0000",1555392009.187974,2.057862,1.336852,-1.997599,0.204858,-0.972760,0.108498,0.000000,0.000000,0.000000,-1,0.327453,-0.529267,0.186738,-0.258188,-0.029300,-0.144173
"2019-04-16 05:20:09.210 +0000",1555392009.210282,2.091672,1.336220,-2.038231,0.201607,-0.972613,0.115667,0.000000,0.000000,0.000000,-1,0.426710,-0.106171,0.155733,-0.357811,-0.017515,-0.221258
"2019-04-16 05:20:09.233 +0000",1555392009.232589,2.137058,1.332663,-2.081941,0.199069,-0.971780,0.126550,0.000000,0.000000,0.000000,-1,0.491812,0.239188,0.067098,-0.459033,-0.019599,-0.199441
"2019-04-16 05:20:09.255 +0000",1555392009.254873,2.184994,1.327386,-2.122807,0.196965,-0.970522,0.138897,0.000000,0.000000,0.000000,-1,0.466770,0.433459,0.045514,-0.695836,-0.106184,-0.130169
"2019-04-16 05:20:09.277 +0000",1555392009.277175,2.222324,1.324614,-2.149715,0.193782,-0.969850,0.147782,0.000000,0.000000,0.000000,-1,0.196141,0.544280,0.102720,-0.679393,-0.118102,-0.132599
"2019-04-16 05:20:09.299 +0000",1555392009.299483,2.241576,1.328204,-2.156853,0.188173,-0.970719,0.149320,0.000000,0.000000,0.000000,-1,-0.190994,0.550697,0.214146,-0.554476,-0.121490,-0.037366
"2019-04-16 05:20:09.322 +0000",1555392009.321790,2.239388,1.338756,-2.140011,0.180451,-0.973199,0.142550,0.000000,0.000000,0.000000,-1,-0.565643,0.708275,0.285779,-0.335923,-0.120108,0.045300
"2019-04-16 05:20:09.344 +0000",1555392009.344086,2.227981,1.354118,-2.107985,0.170208,-0.976617,0.131333,0.000000,0.000000,0.000000,-1,-0.696699,0.994047,0.397316,-0.194973,-0.083060,0.227889
"2019-04-16 05:20:09.366 +0000",1555392009.366376,2.217881,1.372339,-2.072670,0.157300,-0.980372,0.118858,0.000000,0.000000,0.000000,-1,-0.831829,1.119706,0.459410,-0.181501,-0.048269,0.284340
"2019-04-16 05:20:09.389 +0000",1555392009.388683,2.173306,1.393183,-2.004885,0.145570,-0.984268,0.100127,0.000000,0.000000,0.000000,-1,-1.099418,0.927421,0.390291,-0.140397,0.023224,0.306931
"2019-04-16 05:20:09.411 +0000",1555392009.410961,2.083763,1.412909,-1.893931,0.136995,-0.987562,0.077164,0.000000,0.000000,0.000000,-1,-1.169024,0.857964,0.250697,-0.083956,0.059324,0.193435
"2019-04-16 05:20:09.433 +0000",1555392009.433269,1.974895,1.425822,-1.766568,0.132832,-0.989510,0.056803,0.000000,0.000000,0.000000,-1,-0.935265,0.717155,0.077131,-0.016178,-0.077721,0.050344
"2019-04-16 05:20:09.456 +0000",1555392009.455576,1.864243,1.431274,-1.639653,0.133126,-0.990282,0.040227,0.000000,0.000000,0.000000,-1,-0.793092,0.657427,-0.114562,-0.009743,-0.235563,0.077388
"2019-04-16 05:20:09.478 +0000",1555392009.477885,1.755059,1.430650,-1.513201,0.137323,-0.990196,0.025594,0.000000,0.000000,0.000000,-1,-0.753519,0.782302,-0.274443,-0.068689,-0.316262,0.085215
"2019-04-16 05:20:09.500 +0000",1555392009.500162,1.652316,1.424384,-1.389329,0.145404,-0.989301,0.011880,0.000000,0.000000,0.000000,-1,-0.745317,0.942804,-0.443337,-0.372379,-0.041568,0.073570
"2019-04-16 05:20:09.522 +0000",1555392009.522471,1.567071,1.413797,-1.280695,0.156354,-0.987701,-0.000582,0.000000,0.000000,0.000000,-1,-0.681633,1.006486,-0.524510,-0.475217,0.064895,0.055819
"2019-04-16 05:20:09.545 +0000",1555392009.544772,1.512958,1.402114,-1.203887,0.167603,-0.985807,-0.009705,0.000000,0.000000,0.000000,-1,-0.507157,0.920620,-0.480255,-0.481416,0.084348,0.052002
"2019-04-16 05:20:09.567 +0000",1555392009.567055,1.488597,1.392902,-1.160461,0.176360,-0.984218,-0.014529,0.000000,0.000000,0.000000,-1,-0.269599,0.757676,-0.333563,-0.248946,0.150188,0.002368
"2019-04-16 05:20:09.589 +0000",1555392009.589364,1.494247,1.386731,-1.151342,0.182491,-0.983108,-0.013997,0.000000,0.000000,0.000000,-1,0.014222,0.609365,-0.225439,-0.182293,0.150924,-0.023341
"2019-04-16 05:20:09.612 +0000",1555392009.611672,1.515538,1.383783,-1.161158,0.185641,-0.982564,-0.010269,0.000000,0.000000,0.000000,-1,0.072373,0.440166,-0.086212,-0.073580,0.157613,-0.072052
"2019-04-16 05:20:09.634 +0000",1555392009.633979,1.528138,1.384918,-1.165536,0.184642,-0.982774,-0.007881,0.000000,0.000000,0.000000,-1,0.006698,0.363451,0.124093,0.001958,0.164720,-0.109047
"2019-04-16 05:20:09.656 +0000",1555392009.656286,1.527786,1.389429,-1.156529,0.180208,-0.983598,-0.007756,0.000000,0.000000,0.000000,-1,-0.091879,0.379880,0.247959,-0.087358,0.190248,-0.141735
"2019-04-16 05:20:09.679 +0000",1555392009.678575,1.531930,1.396440,-1.150003,0.173343,-0.984838,-0.006741,0.000000,0.000000,0.000000,-1,0.016562,0.545197,0.359427,-0.215259,0.159170,-0.152210
"2019-04-16 05:20:09.701 +0000",1555392009.700873,1.557269,1.405898,-1.161090,0.164137,-0.986435,-0.002220,0.000000,0.000000,0.000000,-1,0.134883,0.657509,0.441597,-0.239912,0.145172,-0.172874
"2019-04-16 05:20:09.723 +0000",1555392009.723181,1.595543,1.414156,-1.186928,0.155953,-0.987757,0.003860,0.000000,0.000000,0.000000,-1,0.199419,0.530260,0.293889,-0.289742,0.058512,-0.165176
"2019-04-16 05:20:09.745 +0000",1555392009.745458,1.624317,1.415686,-1.204081,0.154268,-0.987995,0.008264,0.000000,0.000000,0.000000,-1,0.039853,0.543506,-0.080940,-0.337343,-0.038922,-0.133569
"2019-04-16 05:20:09.768 +0000",1555392009.767766,1.635222,1.409203,-1.202917,0.160557,-0.986972,0.010358,0.000000,0.000000,0.000000,-1,0.059908,0.521415,-0.388390,-0.366703,-0.094281,-0.225904
"2019-04-16 05:20:09.790 +0000",1555392009.790071,1.674039,1.398629,-1.233738,0.170406,-0.985216,0.017656,0.000000,0.000000,0.000000,-1,0.391839,0.238357,-0.456446,-0.300976,-0.348051,-0.210024
