timestamp,timeIntervalSince1970,attitude.roll,attitude.pitch,attitude.yaw,gravity.x,gravity.y,gravity.z,magneticField.x,magneticField.y,magneticField.z,magneticField.accuracy,rotationRate.x,rotationRate.y,rotationRate.z,userAcceleration.x,userAcceleration.y,userAcceleration.z
"2019-05-05 23:04:34.258 +0000",1557097474.257899,0.056413,0.436377,-0.010416,0.051099,-0.422658,-0.904847,0.000000,0.000000,0.000000,-1,-0.299803,-0.384281,0.452837,0.045687,0.093908,0.014741
"2019-05-05 23:04:34.280 +0000",1557097474.280209,0.028844,0.427579,-0.001595,0.026244,-0.414669,-0.909594,0.000000,0.000000,0.000000,-1,-0.442871,-1.479827,0.287380,0.009477,0.070629,-0.031355
"2019-05-05 23:04:34.303 +0000",1557097474.302518,-0.010385,0.417986,0.005546,-0.009491,-0.405920,-0.913859,0.000000,0.000000,0.000000,-1,-0.402688,-1.544925,0.309065,-0.034775,0.099493,0.032389
"2019-05-05 23:04:34.325 +0000",1557097474.324802,-0.041173,0.413236,0.014809,-0.037697,-0.401575,-0.915050,0.000000,0.000000,0.000000,-1,-0.034241,-0.972243,0.439358,-0.149605,0.197657,-0.045689
"2019-05-05 23:04:34.347 +0000",1557097474.347103,-0.065251,0.415324,0.027425,-0.059661,-0.403487,-0.913038,0.000000,0.000000,0.000000,-1,0.181803,-0.835412,0.489098,-0.156770,0.147246,-0.025377
"2019-05-05 23:04:34.369 +0000",1557097474.369411,-0.089743,0.420539,0.036826,-0.081813,-0.408253,-0.909195,0.000000,0.000000,0.000000,-1,0.306340,-1.058723,0.306293,-0.207875,0.178669,0.149826
"2019-05-05 23:04:34.392 +0000",1557097474.392219,-0.135272,0.426580,0.045000,-0.122775,-0.413760,-0.902069,0.000000,0.000000,0.000000,-1,0.266395,-2.574312,0.301121,-0.179639,0.174151,0.222870
"2019-05-05 23:04:34.415 +0000",1557097474.414525,-0.217876,0.433449,0.054399,-0.196167,-0.420003,-0.886068,0.000000,0.000000,0.000000,-1,0.514407,-3.835858,0.427796,0.095443,0.348943,0.214116
"2019-05-05 23:04:34.437 +0000",1557097474.436803,-0.296525,0.442636,0.088080,-0.264038,-0.428323,-0.864189,0.000000,0.000000,0.000000,-1,0.824405,-2.444137,1.775208,0.296723,0.492761,0.476754
"2019-05-05 23:04:34.459 +0000",1557097474.459115,-0.379720,0.440483,0.153422,-0.335280,-0.426376,-0.840113,0.000000,0.000000,0.000000,-1,0.799749,-2.730304,2.852046,0.192503,0.497238,0.344142
"2019-05-05 23:04:34.481 +0000",1557097474.481436,-0.491383,0.435990,0.230136,-0.427705,-0.422308,-0.799202,0.000000,0.000000,0.000000,-1,1.397098,-4.029175,2.831578,0.037828,0.536489,0.287651
"2019-05-05 23:04:34.504 +0000",1557097474.503726,-0.637662,0.437985,0.313934,-0.539125,-0.424115,-0.727647,0.000000,0.000000,0.000000,-1,2.174511,-5.484672,3.007341,0.250429,0.596555,0.266664
"2019-05-05 23:04:34.526 +0000",1557097474.526034,-0.824628,0.421713,0.429088,-0.669963,-0.409324,-0.619357,0.000000,0.000000,0.000000,-1,2.870403,-6.492915,4.649141,0.462917,0.717429,0.152347
"2019-05-05 23:04:34.548 +0000",1557097474.548319,-1.012330,0.368976,0.570337,-0.790991,-0.360661,-0.494223,0.000000,0.000000,0.000000,-1,3.406118,-5.390018,5.721332,0.160437,0.760395,-0.152155
"2019-05-05 23:04:34.571 +0000",1557097474.570619,-1.150727,0.290204,0.710062,-0.874881,-0.286148,-0.390771,0.000000,0.000000,0.000000,-1,3.784530,-3.648321,5.945458,0.039859,0.722061,-0.312904
"2019-05-05 23:04:34.593 +0000",1557097474.592928,-1.267092,0.198259,0.858698,-0.935543,-0.196963,-0.293198,0.000000,0.000000,0.000000,-1,5.155578,-3.586270,6.254389,-0.098194,0.497500,-0.639892
"2019-05-05 23:04:34.615 +0000",1557097474.615236,-1.357521,0.096992,1.016843,-0.972749,-0.096840,-0.210668,0.000000,0.000000,0.000000,-1,5.730851,-2.617740,5.975601,-0.226286,0.210991,-0.605434
"2019-05-05 23:04:34.638 +0000",1557097474.637544,-1.411994,0.004452,1.160721,-0.987408,-0.004452,-0.158134,0.000000,0.000000,0.000000,-1,5.431589,-1.947202,4.761233,-0.741840,0.037625,-0.334847
"2019-05-05 23:04:34.660 +0000",1557097474.659852,-1.450343,-0.065283,1.288090,-0.990640,0.065236,-0.119906,0.000000,0.000000,0.000000,-1,5.060443,-1.856045,3.241843,-1.058860,-0.520727,-0.135007
"2019-05-05 23:04:34.682 +0000",1557097474.682138,-1.479758,-0.095306,1.389947,-0.991340,0.095161,-0.090500,0.000000,0.000000,0.000000,-1,3.749518,-1.577370,1.008316,-0.967324,-0.415840,0.424012
"2019-05-05 23:04:34.704 +0000",1557097474.704435,-1.504211,-0.097167,1.433789,-0.993077,0.097014,-0.066222,0.000000,0.000000,0.000000,-1,0.735076,-1.141102,-0.048827,-0.487315,-0.621978,1.207824
"2019-05-05 23:04:34.727 +0000",1557097474.726743,-1.524829,-0.093971,1.403096,-0.994536,0.093832,-0.045749,0.000000,0.000000,0.000000,-1,-2.488549,-0.580606,-0.132097,-0.451951,-0.567221,1.231646
"2019-05-05 23:04:34.749 +0000",1557097474.749052,-1.519757,-0.100641,1.349795,-0.993644,0.100471,-0.050759,0.000000,0.000000,0.000000,-1,-1.895219,0.779253,0.260503,-0.165749,-0.207496,0.844247
"2019-05-05 23:04:34.771 +0000",1557097474.771329,-1.522995,-0.109528,1.333568,-0.992872,0.109309,-0.047497,0.000000,0.000000,0.000000,-1,-0.139233,-0.624024,0.472198,0.051878,-0.256114,0.120022
"2019-05-05 23:04:34.794 +0000",1557097474.793667,-1.541395,-0.125584,1.341259,-0.991696,0.125254,-0.029165,0.000000,0.000000,0.000000,-1,0.474267,-0.931027,0.862235,0.187893,-0.244639,0.196524
"2019-05-05 23:04:34.816 +0000",1557097474.815976,-1.567015,-0.151259,1.360693,-0.988575,0.150683,-0.003738,0.000000,0.000000,0.000000,-1,1.056754,-1.430725,1.369339,0.297871,-0.274065,-0.089417
"2019-05-05 23:04:34.838 +0000",1557097474.838254,-1.597911,-0.188420,1.390154,-0.981940,0.187307,0.026632,0.000000,0.000000,0.000000,-1,1.499650,-1.625942,1.737221,0.245017,-0.155767,-0.237310
"2019-05-05 23:04:34.861 +0000",1557097474.860562,-1.608301,-0.224964,1.423975,-0.974117,0.223071,0.036551,0.000000,0.000000,0.000000,-1,1.444742,0.142119,1.509370,0.032680,-0.024737,0.256784
"2019-05-05 23:04:34.883 +0000",1557097474.882884,-1.598132,-0.263060,1.452674,-0.965238,0.260037,0.026392,0.000000,0.000000,0.000000,-1,1.474556,-0.311817,1.822307,0.259748,0.112400,-0.002863
"2019-05-05 23:04:34.905 +0000",1557097474.905178,-1.597607,-0.309971,1.501573,-0.952000,0.305031,0.025530,0.000000,0.000000,0.000000,-1,2.408912,-0.618928,2.149215,0.376545,0.071831,-0.333392
"2019-05-05 23:04:34.927 +0000",1557097474.927486,-1.596960,-0.357512,1.542504,-0.936450,0.349945,0.024507,0.000000,0.000000,0.000000,-1,1.087897,-0.415592,2.068690,0.197283,-0.079498,-0.126008
"2019-05-05 23:04:34.950 +0000",1557097474.949763,-1.629933,-0.420143,1.532609,-0.911435,0.407891,0.053963,0.000000,0.000000,0.000000,-1,-0.464748,-1.486961,3.537652,-0.240406,-0.033791,0.110619
"2019-05-05 23:04:34.972 +0000",1557097474.972071,-1.602301,-0.512396,1.543148,-0.871140,0.490267,0.027454,0.000000,0.000000,0.000000,-1,1.141086,2.228926,4.209982,-0.288376,-0.498110,-0.369434
"2019-05-05 23:04:34.994 +0000",1557097474.994377,-1.536203,-0.592677,1.568881,-0.828952,0.558583,-0.028688,0.000000,0.000000,0.000000,-1,0.615738,2.072952,3.059920,0.156986,0.274852,0.023881
"2019-05-05 23:04:35.017 +0000",1557097475.016687,-1.491474,-0.635233,1.578156,-0.802403,0.593365,-0.063782,0.000000,0.000000,0.000000,-1,0.087640,1.584906,1.291293,0.254170,0.450825,-0.128814
"2019-05-05 23:04:35.039 +0000",1557097475.038996,-1.470649,-0.646611,1.568303,-0.794131,0.602485,-0.079797,0.000000,0.000000,0.000000,-1,-0.533552,0.717839,0.135096,0.180468,0.476372,-0.276435
"2019-05-05 23:04:35.061 +0000",1557097475.061304,-1.485413,-0.648223,1.559721,-0.794254,0.603770,-0.067982,0.000000,0.000000,0.000000,-1,-0.239007,-1.034044,0.066416,0.010563,0.291478,-0.189922
"2019-05-05 23:04:35.084 +0000",1557097475.083581,-1.509605,-0.663963,1.558460,-0.786083,0.616242,-0.048161,0.000000,0.000000,0.000000,-1,0.088088,-0.590548,1.151814,0.293010,-0.599656,0.158467
"2019-05-05 23:04:35.106 +0000",1557097475.105887,-1.498549,-0.708618,1.577160,-0.757281,0.650785,-0.054807,0.000000,0.000000,0.000000,-1,0.709196,0.023152,2.637763,0.196627,-0.230299,-0.069659
"2019-05-05 23:04:35.128 +0000",1557097475.128194,-1.466923,-0.801464,1.615232,-0.691906,0.718376,-0.072130,0.000000,0.000000,0.000000,-1,0.932477,0.442090,5.338519,0.059704,-0.095924,-0.048674
"2019-05-05 23:04:35.151 +0000",1557097475.150502,-1.406288,-0.936405,1.675769,-0.584686,0.805432,-0.097063,0.000000,0.000000,0.000000,-1,0.927001,0.609910,6.428702,0.374008,0.024600,0.003481
"2019-05-05 23:04:35.173 +0000",1557097475.172811,-1.342116,-1.069739,1.764374,-0.467848,0.877075,-0.108893,0.000000,0.000000,0.000000,-1,0.848280,-1.244854,6.199506,0.196486,-0.233429,-0.014429
"2019-05-05 23:04:35.195 +0000",1557097475.195119,-1.259852,-1.198312,1.874799,-0.346478,0.931426,-0.111347,0.000000,0.000000,0.000000,-1,0.331514,-0.255416,6.039155,0.093274,-0.420364,0.127033
"2019-05-05 23:04:35.217 +0000",1557097475.217394,-1.071910,-1.314853,2.074703,-0.222302,0.967425,-0.121123,0.000000,0.000000,0.000000,-1,0.685401,-0.390302,5.793637,0.166302,-0.675418,-0.013185
"2019-05-05 23:04:35.240 +0000",1557097475.239703,-0.636383,-1.396548,2.545638,-0.103031,0.984857,-0.139431,0.000000,0.000000,0.000000,-1,1.186924,-1.595022,5.635833,0.110660,-0.710062,-0.041843
"2019-05-05 23:04:35.262 +0000",1557097475.262014,0.092584,-1.399186,-2.934286,0.015788,0.985311,-0.170038,0.000000,0.000000,0.000000,-1,1.465333,-3.481979,5.631612,0.070028,-0.686987,-0.104926
"2019-05-05 23:04:35.284 +0000",1557097475.284311,0.512973,-1.341553,-2.409736,0.111523,0.973839,-0.197992,0.000000,0.000000,0.000000,-1,0.626160,-4.695599,4.908866,-0.044323,-0.706444,0.008478
"2019-05-05 23:04:35.307 +0000",1557097475.306630,0.813649,-1.290355,-2.014261,0.201163,0.960933,-0.190106,0.000000,0.000000,0.000000,-1,-2.924062,-2.173346,4.798841,0.884072,4.372380,-0.412707
"2019-05-05 23:04:35.329 +0000",1557097475.328938,1.162805,-1.339862,-1.621745,0.210100,0.973453,-0.090815,0.000000,0.000000,0.000000,-1,-4.175416,-1.299783,-1.075967,0.787443,5.889935,-1.358038
"2019-05-05 23:04:35.351 +0000",1557097475.351215,1.161262,-1.361873,-1.608345,0.190255,0.978255,-0.082586,0.000000,0.000000,0.000000,-1,2.575923,-1.268314,-0.356321,0.198935,1.030458,-0.445506
"2019-05-05 23:04:35.374 +0000",1557097475.373523,0.755490,-1.303245,-1.965390,0.181264,0.964421,-0.192445,0.000000,0.000000,0.000000,-1,4.816239,-2.858105,-0.075774,-0.039251,-0.463094,0.200440
"2019-05-05 23:04:35.396 +0000",1557097475.395830,0.598149,-1.256660,-2.126506,0.174000,0.951064,-0.255347,0.000000,0.000000,0.000000,-1,1.367432,2.505922,-0.511915,0.002148,-0.026274,1.413291
"2019-05-05 23:04:35.418 +0000",1557097475.418138,0.686017,-1.271182,-2.142749,0.186967,0.955451,-0.228381,0.000000,0.000000,0.000000,-1,-1.036530,5.063744,-0.482306,-0.041886,-0.014227,0.871905
"2019-05-05 23:04:35.440 +0000",1557097475.440421,0.828117,-1.288446,-2.095012,0.205244,0.960403,-0.188417,0.000000,0.000000,0.000000,-1,-0.682653,3.575244,0.112872,-0.088605,0.050980,0.020005
"2019-05-05 23:04:35.463 +0000",1557097475.462753,0.866484,-1.287631,-2.100702,0.212916,0.960176,-0.180912,0.000000,0.000000,0.000000,-1,0.538753,1.081167,-0.163436,-0.177150,0.061690,-0.105999
"2019-05-05 23:04:35.485 +0000",1557097475.485032,0.820724,-1.274854,-2.165417,0.213376,0.956528,-0.198809,0.000000,0.000000,0.000000,-1,1.172215,0.856479,-0.121473,-0.114087,0.081192,-0.201673
"2019-05-05 23:04:35.507 +0000",1557097475.507338,0.784737,-1.260221,-2.231367,0.215954,0.952158,-0.216239,0.000000,0.000000,0.000000,-1,0.961736,1.275839,-0.130248,-0.067165,0.106878,-0.094140
"2019-05-05 23:04:35.530 +0000",1557097475.529647,0.766781,-1.248943,-2.275574,0.219473,0.948651,-0.227801,0.000000,0.000000,0.000000,-1,0.767322,0.956133,-0.074150,-0.044256,0.179889,-0.046567
"2019-05-05 23:04:35.552 +0000",1557097475.551956,0.713692,-1.228207,-2.340997,0.219908,0.941888,-0.253944,0.000000,0.000000,0.000000,-1,1.757403,-0.250255,-0.080385,-0.046720,0.238242,-0.053582
"2019-05-05 23:04:35.574 +0000",1557097475.574265,0.625300,-1.202431,-2.411329,0.210776,0.932917,-0.291957,0.000000,0.000000,0.000000,-1,1.301088,-1.153731,-0.170563,-0.114401,0.296697,0.114391
"2019-05-05 23:04:35.597 +0000",1557097475.596571,0.560668,-1.184033,-2.457531,0.200573,0.926135,-0.319444,0.000000,0.000000,0.000000,-1,1.070394,-0.921380,-0.183889,-0.149487,0.259244,0.443697
"2019-05-05 23:04:35.619 +0000",1557097475.618848,0.513555,-1.174117,-2.490229,0.189809,0.922349,-0.336519,0.000000,0.000000,0.000000,-1,0.295014,-0.501451,-0.302079,-0.113652,0.350692,0.782381
"2019-05-05 23:04:35.641 +0000",1557097475.641157,0.519411,-1.184681,-2.493789,0.186929,0.926379,-0.326924,0.000000,0.000000,0.000000,-1,-0.712270,0.905654,-0.241809,-0.127129,0.176740,0.779225
"2019-05-05 23:04:35.663 +0000",1557097475.663471,0.556036,-1.206117,-2.475068,0.188248,0.934238,-0.302922,0.000000,0.000000,0.000000,-1,-1.077406,0.674267,-0.232468,-0.130280,-0.024433,0.592152
"2019-05-05 23:04:35.686 +0000",1557097475.685772,0.606477,-1.235286,-2.436951,0.187665,0.944243,-0.270532,0.000000,0.000000,0.000000,-1,-1.723268,0.830241,-0.227926,-0.133695,0.039766,0.709894
"2019-05-05 23:04:35.708 +0000",1557097475.708076,0.716901,-1.279185,-2.354876,0.188900,0.957782,-0.216727,0.000000,0.000000,0.000000,-1,-2.464514,1.808565,-0.374628,-0.130352,0.080930,0.780173
"2019-05-05 23:04:35.730 +0000",1557097475.730367,0.892816,-1.323162,-2.220971,0.190903,0.969495,-0.153739,0.000000,0.000000,0.000000,-1,-2.483823,2.100635,-0.237048,-0.019608,0.101977,0.307655
"2019-05-05 23:04:35.753 +0000",1557097475.752666,1.103761,-1.355734,-2.046363,0.190554,0.976963,-0.096085,0.000000,0.000000,0.000000,-1,-2.142141,1.639057,-0.344453,0.003431,0.177685,0.085587
"2019-05-05 23:04:35.775 +0000",1557097475.774976,1.320841,-1.387283,-1.862702,0.176814,0.983209,-0.045140,0.000000,0.000000,0.000000,-1,-1.998899,1.907433,-0.944714,-0.140681,0.390937,-0.226696
"2019-05-05 23:04:35.797 +0000",1557097475.797281,1.649372,-1.416475,-1.568655,0.153235,0.988116,0.012065,0.000000,0.000000,0.000000,-1,-2.519543,1.489188,-1.204220,-0.122259,0.462857,-0.377346
"2019-05-05 23:04:35.820 +0000",1557097475.819572,2.135366,-1.422936,-1.106764,0.124461,0.989089,0.078825,0.000000,0.000000,0.000000,-1,-3.023247,0.971972,-1.291644,0.160238,0.650926,-0.144621
"2019-05-05 23:04:35.842 +0000",1557097475.841898,2.597419,-1.394827,-0.633574,0.090632,0.984557,0.149776,0.000000,0.000000,0.000000,-1,-3.323226,-0.792380,-1.656957,0.242269,0.885316,-0.110485
"2019-05-05 23:04:35.864 +0000",1557097475.864205,2.878533,-1.338009,-0.331711,0.059988,0.973027,0.222754,0.000000,0.000000,0.000000,-1,-3.486884,-0.722978,-1.506297,0.440745,0.852992,0.113946
"2019-05-05 23:04:35.886 +0000",1557097475.886487,3.023923,-1.268538,-0.151598,0.034947,0.954667,0.295618,0.000000,0.000000,0.000000,-1,-3.281533,-1.437491,-1.475056,0.000362,0.819351,-0.077997
"2019-05-05 23:04:35.909 +0000",1557097475.908789,3.093234,-1.207378,-0.047896,0.017184,0.934687,0.355055,0.000000,0.000000,0.000000,-1,-2.688261,-1.396745,-1.182396,-0.011706,0.624730,-0.138060
"2019-05-05 23:04:35.931 +0000",1557097475.931094,3.106159,-1.152762,0.016167,0.014382,0.913889,0.405711,0.000000,0.000000,0.000000,-1,-2.423029,-2.466868,-0.863889,-0.001763,0.311667,-0.222178
"2019-05-05 23:04:35.953 +0000",1557097475.953392,3.067790,-1.098442,0.054820,0.033548,0.890499,0.453746,0.000000,0.000000,0.000000,-1,-2.360978,-3.694412,-0.513057,0.010733,-0.094708,-0.528209
"2019-05-05 23:04:35.976 +0000",1557097475.975714,3.011460,-1.062904,0.068909,0.063110,0.873772,0.482224,0.000000,0.000000,0.000000,-1,-1.125768,-2.555934,0.139815,0.016175,-0.331398,-0.504029
"2019-05-05 23:04:35.998 +0000",1557097475.998023,2.945944,-1.052696,0.042447,0.096275,0.868761,0.485783,0.000000,0.000000,0.000000,-1,0.147756,-1.485636,0.971946,0.104806,-0.581835,-0.438099
"2019-05-05 23:04:36.020 +0000",1557097476.020300,2.880146,-1.068115,-0.019389,0.124529,0.876294,0.465405,0.000000,0.000000,0.000000,-1,1.407341,0.034550,1.078084,0.168241,-0.647564,-0.383450
"2019-05-05 23:04:36.043 +0000",1557097476.042608,2.847328,-1.105595,-0.073118,0.130111,0.893731,0.429320,0.000000,0.000000,0.000000,-1,2.202556,1.020875,0.286888,0.234558,-0.970223,-0.435592
"2019-05-05 23:04:36.065 +0000",1557097476.064917,2.846370,-1.160548,-0.114457,0.116043,0.917022,0.381583,0.000000,0.000000,0.000000,-1,2.827516,1.924997,0.207179,0.331085,-1.279342,-0.424048
"2019-05-05 23:04:36.087 +0000",1557097476.087225,2.812910,-1.212605,-0.186361,0.113166,0.936533,0.331814,0.000000,0.000000,0.000000,-1,2.160271,1.034724,0.373585,0.064934,-1.271753,-0.390789
"2019-05-05 23:04:36.110 +0000",1557097476.109521,2.809046,-1.243228,-0.214384,0.105033,0.946828,0.304115,0.000000,0.000000,0.000000,-1,1.181912,1.271690,-0.274019,-0.501655,-0.817479,-0.474769
"2019-05-05 23:04:36.132 +0000",1557097476.131835,2.862690,-1.262516,-0.197081,0.083532,0.952857,0.291696,0.000000,0.000000,0.000000,-1,0.367132,2.002182,-0.878793,-0.354772,-0.587409,-0.322030
"2019-05-05 23:04:36.154 +0000",1557097476.154117,3.026405,-1.256779,-0.071859,0.035501,0.951100,0.306835,0.000000,0.000000,0.000000,-1,-0.410057,1.786091,-1.641381,-0.205011,-0.214879,1.472935
"2019-05-05 23:04:36.176 +0000",1557097476.176435,3.111412,-1.281524,-0.042484,0.008608,0.958452,0.285125,0.000000,0.000000,0.000000,-1,1.938204,2.277466,0.152807,0.418333,0.229979,-1.891860
"2019-05-05 23:04:36.199 +0000",1557097476.198732,3.075900,-1.343037,-0.112273,0.014822,0.974175,0.225308,0.000000,0.000000,0.000000,-1,2.947084,1.561459,0.983314,0.446237,0.661979,-1.613660
"2019-05-05 23:04:36.221 +0000",1557097476.221041,2.955486,-1.389830,-0.319843,0.033303,0.983670,0.176872,0.000000,0.000000,0.000000,-1,1.991160,5.028757,1.911065,0.687568,0.640765,-0.741493
"2019-05-05 23:04:36.243 +0000",1557097476.243349,2.635254,-1.419353,-0.765028,0.073166,0.988554,0.131935,0.000000,0.000000,0.000000,-1,2.531241,5.043058,3.006567,0.743149,0.710435,-0.603905
"2019-05-05 23:04:36.266 +0000",1557097476.265657,2.083802,-1.414522,-1.392906,0.135604,0.987814,0.076387,0.000000,0.000000,0.000000,-1,2.958563,1.163041,3.250843,0.639726,0.903604,-0.345094
"2019-05-05 23:04:36.288 +0000",1557097476.287935,1.664740,-1.358511,-1.784572,0.209766,0.977552,0.019764,0.000000,0.000000,0.000000,-1,1.700717,-2.467550,3.292234,0.129422,0.746890,-0.248021
"2019-05-05 23:04:36.310 +0000",1557097476.310243,1.483475,-1.299043,-1.891307,0.267398,0.963302,-0.023409,0.000000,0.000000,0.000000,-1,1.091321,-4.074165,2.076858,-0.159580,0.745469,-0.270552
"2019-05-05 23:04:36.333 +0000",1557097476.332558,1.289370,-1.261800,-1.984591,0.292139,0.952639,-0.084457,0.000000,0.000000,0.000000,-1,1.723915,-4.911813,1.393584,-0.186915,1.094709,-0.425125
"2019-05-05 23:04:36.355 +0000",1557097476.354857,1.054891,-1.205436,-2.157615,0.310784,0.933995,-0.176257,0.000000,0.000000,0.000000,-1,3.615860,-1.004974,0.832485,-0.284249,1.515422,1.265430
"2019-05-05 23:04:36.377 +0000",1557097476.377166,1.009991,-1.180595,-2.257737,0.322112,0.924832,-0.202309,0.000000,0.000000,0.000000,-1,1.100711,2.797419,0.147611,-0.566207,1.445071,1.642190
"2019-05-05 23:04:36.399 +0000",1557097476.399470,1.020693,-1.159835,-2.273475,0.340554,0.916737,-0.208844,0.000000,0.000000,0.000000,-1,0.552624,-0.501120,0.717532,-0.572045,0.156475,0.720212
"2019-05-05 23:04:36.422 +0000",1557097476.421777,0.994540,-1.146465,-2.263416,0.345224,0.911314,-0.224337,0.000000,0.000000,0.000000,-1,-0.177717,-1.469186,0.496312,-0.663232,-0.181471,0.954714
"2019-05-05 23:04:36.444 +0000",1557097476.444061,1.020620,-1.154890,-2.223731,0.344399,0.914751,-0.211236,0.000000,0.000000,0.000000,-1,-1.100371,0.034528,-0.238185,-0.839959,-0.637056,0.900033
"2019-05-05 23:04:36.466 +0000",1557097476.466368,1.060725,-1.184522,-2.178381,0.328785,0.926319,-0.183939,0.000000,0.000000,0.000000,-1,-1.531315,-0.262513,-0.976336,-0.907764,-1.040516,0.629252
"2019-05-05 23:04:36.489 +0000",1557097476.488675,1.111525,-1.230813,-2.112092,0.298916,0.942760,-0.147826,0.000000,0.000000,0.000000,-1,-2.104742,-0.625513,-1.577502,-0.633526,-1.044338,0.228667
"2019-05-05 23:04:36.511 +0000",1557097476.510984,1.207471,-1.284600,-2.008885,0.263877,0.959324,-0.100327,0.000000,0.000000,0.000000,-1,-2.270722,0.509917,-1.560360,-0.295020,-0.837666,0.239060
"2019-05-05 23:04:36.533 +0000",1557097476.533277,1.382670,-1.328242,-1.859823,0.235946,0.970728,-0.044919,0.000000,0.000000,0.000000,-1,-2.369153,1.654993,-1.282762,0.257783,-0.715662,0.453687
"2019-05-05 23:04:36.556 +0000",1557097476.555568,1.707459,-1.358595,-1.552519,0.208648,0.977570,0.028693,0.000000,0.000000,0.000000,-1,-3.530670,0.673524,-1.423412,0.499619,0.138611,-0.033805
"2019-05-05 23:04:36.578 +0000",1557097476.577876,2.144658,-1.362397,-1.107267,0.173752,0.978363,0.112318,0.000000,0.000000,0.000000,-1,-3.858244,-0.202054,-1.630394,0.513092,0.355911,-0.276854
"2019-05-05 23:04:36.600 +0000",1557097476.600185,2.504212,-1.331179,-0.722685,0.141234,0.971429,0.190733,0.000000,0.000000,0.000000,-1,-3.562637,-1.190729,-1.566907,0.523988,0.789252,-0.424422
"2019-05-05 23:04:36.622 +0000",1557097476.622480,2.687900,-1.286649,-0.506887,0.122869,0.959901,0.251978,0.000000,0.000000,0.000000,-1,-2.351216,-0.132169,-0.582111,1.173823,2.556731,0.026739
"2019-05-05 23:04:36.645 +0000",1557097476.644799,2.847985,-1.267155,-0.397802,0.086532,0.954254,0.286202,0.000000,0.000000,0.000000,-1,-1.323154,2.959706,-1.840973,0.825410,2.547867,-0.106530
"2019-05-05 23:04:36.667 +0000",1557097476.667109,3.027178,-1.227471,-0.229890,0.038430,0.941641,0.334419,0.000000,0.000000,0.000000,-1,-2.546811,-0.122172,-1.794292,-0.223443,1.159464,0.125359
"2019-05-05 23:04:36.689 +0000",1557097476.689385,3.066181,-1.166533,-0.136634,0.029635,0.919392,0.392224,0.000000,0.000000,0.000000,-1,-3.018515,-3.575743,-0.922751,-0.348864,0.825801,-0.292401
"2019-05-05 23:04:36.712 +0000",1557097476.711695,2.989294,-1.103076,-0.105889,0.068399,0.892599,0.445634,0.000000,0.000000,0.000000,-1,-2.656686,-4.735641,0.029270,-0.204355,0.287211,-0.587327
"2019-05-05 23:04:36.734 +0000",1557097476.734002,2.904513,-1.063749,-0.099862,0.114050,0.874182,0.472015,0.000000,0.000000,0.000000,-1,-1.106840,-3.447201,0.298859,0.128656,-0.358267,-0.643097
"2019-05-05 23:04:36.756 +0000",1557097476.756291,2.841677,-1.062045,-0.114673,0.143905,0.873353,0.465344,0.000000,0.000000,0.000000,-1,0.697193,-1.434983,0.337595,0.437363,-0.946779,-0.312466
"2019-05-05 23:04:36.779 +0000",1557097476.778618,2.805613,-1.099695,-0.160336,0.149638,0.891069,0.428492,0.000000,0.000000,0.000000,-1,2.528162,1.064635,0.440245,0.399297,-1.086335,-0.387720
"2019-05-05 23:04:36.801 +0000",1557097476.800925,2.771136,-1.155859,-0.237889,0.145950,0.915142,0.375785,0.000000,0.000000,0.000000,-1,2.839109,1.734601,0.603145,0.360229,-1.385051,-0.493430
"2019-05-05 23:04:36.823 +0000",1557097476.823203,2.719404,-1.194713,-0.330240,0.150496,0.930110,0.335031,0.000000,0.000000,0.000000,-1,1.931741,1.323119,0.863200,0.318315,-1.391445,-0.490808
"2019-05-05 23:04:36.846 +0000",1557097476.845510,2.683611,-1.223581,-0.405040,0.150451,0.940324,0.305213,0.000000,0.000000,0.000000,-1,1.242034,2.005379,0.178273,-0.847122,-0.853929,0.105538
"2019-05-05 23:04:36.868 +0000",1557097476.867819,2.848867,-1.231006,-0.317854,0.096175,0.942825,0.319111,0.000000,0.000000,0.000000,-1,-1.088097,4.708461,-2.321599,-1.424605,-0.361877,0.250622
"2019-05-05 23:04:36.890 +0000",1557097476.890127,2.998572,-1.218489,-0.213018,0.049183,0.938579,0.341541,0.000000,0.000000,0.000000,-1,-0.238960,-1.302913,-0.400860,-1.169331,0.240956,0.635845
"2019-05-05 23:04:36.912 +0000",1557097476.912414,2.973047,-1.203963,-0.200157,0.060165,0.933468,0.353579,0.000000,0.000000,0.000000,-1,-0.999584,-0.256328,-0.389387,-0.369873,-0.166348,-1.013567
"2019-05-05 23:04:36.935 +0000",1557097476.934744,3.009353,-1.190974,-0.189673,0.048886,0.928730,0.367519,0.000000,0.000000,0.000000,-1,-0.377952,2.472404,0.561723,0.393680,0.047512,-1.437175
"2019-05-05 23:04:36.957 +0000",1557097476.957032,3.033824,-1.194744,-0.287974,0.039502,0.930122,0.365121,0.000000,0.000000,0.000000,-1,1.295069,6.373309,1.991651,1.253864,0.760735,-1.152215
"2019-05-05 23:04:36.979 +0000",1557097476.979329,2.963590,-1.283160,-0.406382,0.050231,0.958917,0.279204,0.000000,0.000000,0.000000,-1,4.725191,-0.886063,1.240043,1.626344,1.104117,-1.319106
"2019-05-05 23:04:37.002 +0000",1557097477.001637,2.640932,-1.352105,-0.733243,0.104138,0.976182,0.190325,0.000000,0.000000,0.000000,-1,3.588168,0.226408,3.063200,0.777347,-0.039323,-0.375704
"2019-05-05 23:04:37.024 +0000",1557097477.023944,2.163322,-1.347501,-1.215340,0.183696,0.975173,0.123667,0.000000,0.000000,0.000000,-1,2.878286,-1.090500,3.611740,0.470861,0.548463,-0.719035
"2019-05-05 23:04:37.046 +0000",1557097477.046252,1.757157,-1.326987,-1.538981,0.237221,0.970425,0.044728,0.000000,0.000000,0.000000,-1,2.217677,-5.326321,1.352816,0.145363,2.035495,-1.638707
"2019-05-05 23:04:37.069 +0000",1557097477.068551,1.469864,-1.276684,-1.747967,0.288415,0.957060,-0.029210,0.000000,0.000000,0.000000,-1,4.000913,-1.409629,3.354540,-0.374490,1.974306,2.621251
"2019-05-05 23:04:37.091 +0000",1557097477.090838,1.382354,-1.205459,-1.982336,0.350940,0.934003,-0.066926,0.000000,0.000000,0.000000,-1,2.815818,7.217830,1.352130,-0.867053,1.703173,2.259217
"2019-05-05 23:04:37.113 +0000",1557097477.113145,1.349150,-1.184420,-2.064338,0.367615,0.926281,-0.082842,0.000000,0.000000,0.000000,-1,0.931760,-1.373493,0.943774,-1.081589,0.540608,0.994463
"2019-05-05 23:04:37.135 +0000",1557097477.135456,1.252321,-1.156569,-2.074702,0.382243,0.915428,-0.126025,0.000000,0.000000,0.000000,-1,0.556155,-4.416796,1.011565,-0.795634,-0.373649,0.629107
"2019-05-05 23:04:37.158 +0000",1557097477.157759,1.185916,-1.135036,-2.090270,0.391220,0.906550,-0.158477,0.000000,0.000000,0.000000,-1,0.523087,-1.200054,0.666659,-0.731308,-0.589106,0.715194
"2019-05-05 23:04:37.180 +0000",1557097477.180070,1.166856,-1.123215,-2.107070,0.397955,0.901497,-0.170104,0.000000,0.000000,0.000000,-1,0.403990,0.248183,0.131485,-0.688299,-0.811531,0.690032
"2019-05-05 23:04:37.202 +0000",1557097477.202378,1.180312,-1.131503,-2.093549,0.393285,0.905053,-0.161884,0.000000,0.000000,0.000000,-1,-0.980887,-0.242907,-0.420511,-0.782979,-1.164757,0.766697
"2019-05-05 23:04:37.225 +0000",1557097477.224656,1.230667,-1.155744,-2.034545,0.380137,0.915095,-0.134524,0.000000,0.000000,0.000000,-1,-1.433577,-0.005669,-0.736668,-0.841211,-1.022471,0.199038
"2019-05-05 23:04:37.247 +0000",1557097477.246963,1.280786,-1.177802,-1.985548,0.366964,0.923767,-0.109511,0.000000,0.000000,0.000000,-1,-0.913492,0.386231,-0.609667,-0.707891,-0.983825,0.256636
"2019-05-05 23:04:37.269 +0000",1557097477.269270,1.322564,-1.201382,-1.941065,0.350002,0.932539,-0.088712,0.000000,0.000000,0.000000,-1,-1.223915,-0.349582,-0.940695,-0.324093,-0.870176,0.488477
"2019-05-05 23:04:37.292 +0000",1557097477.291579,1.404935,-1.228855,-1.838351,0.330715,0.942105,-0.055361,0.000000,0.000000,0.000000,-1,-2.134482,-0.647436,-0.875289,-0.273677,-0.344129,-0.153074
"2019-05-05 23:04:37.314 +0000",1557097477.313886,1.544593,-1.262215,-1.665166,0.303603,0.952765,-0.007957,0.000000,0.000000,0.000000,-1,-2.891798,-1.493136,-1.580177,-0.471312,-0.089805,-0.299645
"2019-05-05 23:04:37.336 +0000",1557097477.336194,1.758465,-1.310073,-1.408603,0.253254,0.966204,0.048094,0.000000,0.000000,0.000000,-1,-3.107221,-1.064937,-2.803522,-0.575565,0.535719,-0.183943
"2019-05-05 23:04:37.358 +0000",1557097477.358463,2.126199,-1.346898,-1.018692,0.188658,0.975039,0.117074,0.000000,0.000000,0.000000,-1,-3.415041,-0.354977,-3.046899,0.265749,1.972867,-0.045083
"2019-05-05 23:04:37.381 +0000",1557097477.380780,2.523937,-1.345670,-0.602891,0.129278,0.974766,0.181985,0.000000,0.000000,0.000000,-1,-2.419660,-0.066322,-2.312154,0.573420,2.588283,-0.207238
"2019-05-05 23:04:37.403 +0000",1557097477.403088,2.726423,-1.335488,-0.451915,0.094037,0.972443,0.213337,0.000000,0.000000,0.000000,-1,-1.464042,3.799977,-1.163829,1.569018,2.790817,-0.666263
"2019-05-05 23:04:37.425 +0000",1557097477.425397,2.929057,-1.286422,-0.251317,0.059180,0.959837,0.274244,0.000000,0.000000,0.000000,-1,-2.672692,-1.423394,-1.383456,1.350808,1.442705,-0.214033
"2019-05-05 23:04:37.448 +0000",1557097477.447704,3.013631,-1.239233,-0.130288,0.041541,0.945535,0.322860,0.000000,0.000000,0.000000,-1,-2.365730,-1.001971,-1.233239,0.095392,0.772483,-0.178756
"2019-05-05 23:04:37.470 +0000",1557097477.470012,3.055772,-1.185655,-0.046424,0.032202,0.926745,0.374307,0.000000,0.000000,0.000000,-1,-2.623374,-2.390542,-0.815366,-0.229270,0.628095,-0.439920
"2019-05-05 23:04:37.492 +0000",1557097477.492290,3.000170,-1.135675,-0.026186,0.059414,0.906819,0.417313,0.000000,0.000000,0.000000,-1,-1.901899,-3.297413,0.315682,-0.215298,0.148586,-0.392303
"2019-05-05 23:04:37.515 +0000",1557097477.514596,2.924616,-1.105696,-0.050018,0.096555,0.893777,0.437996,0.000000,0.000000,0.000000,-1,-0.688644,-2.024312,0.791193,0.254321,-0.718652,-0.611000
"2019-05-05 23:04:37.537 +0000",1557097477.536905,2.869934,-1.109471,-0.086578,0.119443,0.895463,0.428811,0.000000,0.000000,0.000000,-1,0.864508,-0.310904,0.569479,0.329577,-1.085466,-0.666329
"2019-05-05 23:04:37.559 +0000",1557097477.559213,2.854462,-1.133393,-0.122626,0.119961,0.905855,0.406247,0.000000,0.000000,0.000000,-1,1.310746,1.158073,0.246495,0.079487,-1.287172,-0.416058
"2019-05-05 23:04:37.582 +0000",1557097477.581514,2.856085,-1.155570,-0.144193,0.113615,0.915025,0.387068,0.000000,0.000000,0.000000,-1,0.849568,0.716980,0.116235,-0.847166,-0.986039,-0.551435
"2019-05-05 23:04:37.604 +0000",1557097477.603829,2.850215,-1.161398,-0.160460,0.114351,0.917361,0.381279,0.000000,0.000000,0.000000,-1,0.114368,0.281332,0.152041,-0.501756,-0.968249,-0.367790
"2019-05-05 23:04:37.626 +0000",1557097477.626106,2.856969,-1.170290,-0.160261,0.109478,0.920864,0.374199,0.000000,0.000000,0.000000,-1,0.718716,0.312129,-0.221376,-0.199978,-1.000545,-0.345802
"2019-05-05 23:04:37.648 +0000",1557097477.648414,2.848791,-1.195149,-0.184233,0.105893,0.930270,0.351260,0.000000,0.000000,0.000000,-1,1.269608,1.053803,0.326798,0.005465,-1.024051,-0.263094
"2019-05-05 23:04:37.671 +0000",1557097477.670722,2.862247,-1.211552,-0.220637,0.096936,0.936163,0.337939,0.000000,0.000000,0.000000,-1,0.556238,2.634789,0.147466,0.051654,-0.797949,-0.143694
"2019-05-05 23:04:37.693 +0000",1557097477.693032,2.929869,-1.217768,-0.205705,0.072656,0.938330,0.338021,0.000000,0.000000,0.000000,-1,0.232045,1.840029,-0.474572,0.152549,-0.311850,0.032295
"2019-05-05 23:04:37.715 +0000",1557097477.715338,2.937477,-1.243269,-0.195697,0.065210,0.946841,0.315025,0.000000,0.000000,0.000000,-1,1.510877,-0.879337,-0.164561,0.538871,0.495054,-0.354347
"2019-05-05 23:04:37.738 +0000",1557097477.737646,2.914511,-1.257723,-0.249496,0.069338,0.951392,0.300077,0.000000,0.000000,0.000000,-1,0.263413,2.782803,0.600065,0.975614,2.209711,-1.337263
"2019-05-05 23:04:37.760 +0000",1557097477.759924,2.968302,-1.264295,-0.256858,0.052025,0.953395,0.297206,0.000000,0.000000,0.000000,-1,0.663315,2.332887,0.002568,0.117027,0.578649,-1.066051
"2019-05-05 23:04:37.782 +0000",1557097477.782245,2.918251,-1.298689,-0.341304,0.059528,0.963207,0.262087,0.000000,0.000000,0.000000,-1,2.432994,0.669957,1.463317,0.040661,-0.525737,-0.899446
"2019-05-05 23:04:37.805 +0000",1557097477.804526,2.626807,-1.341347,-0.638764,0.111980,0.973792,0.197964,0.000000,0.000000,0.000000,-1,3.015088,-0.286289,2.566212,0.235325,1.095117,-0.941723
"2019-05-05 23:04:37.827 +0000",1557097477.826847,2.307931,-1.352976,-0.950037,0.160002,0.976371,0.145257,0.000000,0.000000,0.000000,-1,1.783387,-1.131190,1.801568,0.104494,1.425058,-0.906701
"2019-05-05 23:04:37.849 +0000",1557097477.849154,2.070157,-1.333245,-1.155487,0.206587,0.971917,0.112688,0.000000,0.000000,0.000000,-1,1.244782,-1.915023,2.120911,0.170442,1.239829,-0.506212
"2019-05-05 23:04:37.871 +0000",1557097477.871463,1.625172,-1.315015,-1.581362,0.252627,0.967466,0.013750,0.000000,0.000000,0.000000,-1,4.505925,-0.266414,1.497328,0.081373,1.179430,0.473707
"2019-05-05 23:04:37.894 +0000",1557097477.893741,1.588149,-1.297227,-1.658813,0.270129,0.962813,0.004688,0.000000,0.000000,0.000000,-1,-0.451169,1.407225,0.928308,-0.196322,1.010683,1.310757
"2019-05-05 23:04:37.916 +0000",1557097477.916049,1.465051,-1.259237,-1.744363,0.304831,0.951857,-0.032355,0.000000,0.000000,0.000000,-1,1.702535,-3.742880,1.792462,-0.251090,0.549273,0.127433
"2019-05-05 23:04:37.938 +0000",1557097477.938356,1.366731,-1.223353,-1.778369,0.333430,0.940246,-0.069002,0.000000,0.000000,0.000000,-1,0.211873,-1.501635,1.293080,-0.630702,0.578980,0.983003
"2019-05-05 23:04:37.961 +0000",1557097477.960664,1.365152,-1.204220,-1.769738,0.350870,0.933560,-0.073189,0.000000,0.000000,0.000000,-1,-0.179955,-0.459710,0.694407,-1.037713,-0.123333,0.508431
"2019-05-05 23:04:37.983 +0000",1557097477.982971,1.391406,-1.196477,-1.707645,0.359772,0.930757,-0.065241,0.000000,0.000000,0.000000,-1,-1.188314,-1.782713,0.334797,-0.851333,-0.749742,0.293451
"2019-05-05 23:04:38.005 +0000",1557097478.005282,1.428985,-1.199060,-1.632982,0.359587,0.931698,-0.051338,0.000000,0.000000,0.000000,-1,-1.209432,-1.084210,-0.039853,-0.664961,-1.260388,0.116997
"2019-05-05 23:04:38.028 +0000",1557097478.027582,1.468962,-1.206181,-1.566230,0.354743,0.934261,-0.036250,0.000000,0.000000,0.000000,-1,-1.088728,-1.173590,-0.262305,-0.563956,-1.182628,-0.046864
"2019-05-05 23:04:38.050 +0000",1557097478.049866,1.505210,-1.217354,-1.491334,0.345385,0.938187,-0.022685,0.000000,0.000000,0.000000,-1,-1.261811,-1.496926,-0.511339,-0.454257,-0.990540,-0.016622
"2019-05-05 23:04:38.072 +0000",1557097478.072174,1.571498,-1.232839,-1.409361,0.331561,0.943434,0.000233,0.000000,0.000000,0.000000,-1,-1.337809,0.209880,-0.671666,-0.307803,-0.658445,0.195614
"2019-05-05 23:04:38.094 +0000",1557097478.094466,1.703501,-1.244591,-1.274912,0.317633,0.947265,0.042400,0.000000,0.000000,0.000000,-1,-2.361820,-0.167176,-0.722101,-0.140067,-0.443420,-0.080166
"2019-05-05 23:04:38.117 +0000",1557097478.116789,1.885507,-1.251680,-1.056904,0.298319,0.949513,0.097112,0.000000,0.000000,0.000000,-1,-3.207522,-1.575323,-1.167723,-0.249003,0.004100,-0.226888
"2019-05-05 23:04:38.139 +0000",1557097478.139097,2.098220,-1.248826,-0.786631,0.273435,0.948614,0.159265,0.000000,0.000000,0.000000,-1,-3.751599,-2.187396,-1.604155,-0.325269,0.437022,-0.234964
"2019-05-05 23:04:38.161 +0000",1557097478.161375,2.331506,-1.224642,-0.474445,0.245758,0.940685,0.233913,0.000000,0.000000,0.000000,-1,-4.616091,-3.198445,-2.110375,-0.460602,0.741978,-0.444530
"2019-05-05 23:04:38.184 +0000",1557097478.183695,2.530748,-1.177243,-0.175881,0.219945,0.923552,0.314127,0.000000,0.000000,0.000000,-1,-4.618950,-3.449567,-2.154047,-0.350087,1.610002,-0.683558
"2019-05-05 23:04:38.206 +0000",1557097478.205991,2.630085,-1.136113,-0.033474,0.206137,0.907004,0.367222,0.000000,0.000000,0.000000,-1,-1.466006,0.427140,-0.462757,0.417277,2.171900,-0.939259
"2019-05-05 23:04:38.228 +0000",1557097478.228298,2.739819,-1.142259,0.019729,0.162498,0.909575,0.382451,0.000000,0.000000,0.000000,-1,0.018846,3.028934,-1.895711,0.851601,1.871660,-0.909718
"2019-05-05 23:04:38.251 +0000",1557097478.250606,2.822501,-1.136580,0.136334,0.131975,0.907200,0.399463,0.000000,0.000000,0.000000,-1,-1.400536,-3.185432,-1.641429,0.148542,0.415523,-0.077182
"2019-05-05 23:04:38.273 +0000",1557097478.272916,2.797618,-1.108181,0.227055,0.150503,0.894888,0.420147,0.000000,0.000000,0.000000,-1,-1.886637,-5.428660,-1.120547,-0.258642,0.405069,-0.053890
"2019-05-05 23:04:38.295 +0000",1557097478.295192,2.739699,-1.076292,0.298753,0.185643,0.880204,0.436780,0.000000,0.000000,0.000000,-1,-1.768906,-5.252133,-0.645072,-0.665090,0.429046,-0.240125
"2019-05-05 23:04:38.317 +0000",1557097478.317491,2.680437,-1.053095,0.339829,0.220215,0.868959,0.443188,0.000000,0.000000,0.000000,-1,-1.033932,-3.715278,-0.306085,0.048675,-0.018190,-0.264386
"2019-05-05 23:04:38.340 +0000",1557097478.339808,2.631606,-1.044719,0.370436,0.245130,0.864784,0.438247,0.000000,0.000000,0.000000,-1,-0.438597,-3.295041,-0.494401,0.191974,-0.145484,-0.393966
"2019-05-05 23:04:38.362 +0000",1557097478.362116,2.572374,-1.037590,0.390362,0.273959,0.861182,0.428150,0.000000,0.000000,0.000000,-1,-0.595193,-3.870301,-0.041526,0.241254,-0.504340,-0.728946
"2019-05-05 23:04:38.384 +0000",1557097478.384424,2.488494,-1.022334,0.402232,0.316814,0.853327,0.414079,0.000000,0.000000,0.000000,-1,-0.827145,-4.063353,0.323566,-0.163952,-0.499369,-0.733918
"2019-05-05 23:04:38.407 +0000",1557097478.406734,2.411676,-1.000453,0.407491,0.360023,0.841716,0.402366,0.000000,0.000000,0.000000,-1,-0.783035,-3.718958,0.624461,-0.836845,-0.942515,-0.701880
"2019-05-05 23:04:38.429 +0000",1557097478.429010,2.304297,-0.986840,0.407905,0.409546,0.834288,0.369100,0.000000,0.000000,0.000000,-1,-0.177891,-5.437929,0.125154,-0.913132,-1.019408,-0.636175
"2019-05-05 23:04:38.451 +0000",1557097478.451317,2.188146,-0.997452,0.416565,0.442317,0.840092,0.314008,0.000000,0.000000,0.000000,-1,0.060537,-5.228616,-0.808248,-0.812221,-0.992863,-0.087705
"2019-05-05 23:04:38.474 +0000",1557097478.473626,2.157292,-1.009113,0.480309,0.443604,0.846360,0.294771,0.000000,0.000000,0.000000,-1,-1.657883,-2.927911,-1.494336,-0.761704,0.133407,0.902509
"2019-05-05 23:04:38.496 +0000",1557097478.495933,2.177394,-1.007887,0.574937,0.438442,0.845706,0.304220,0.000000,0.000000,0.000000,-1,-1.723522,-3.174285,-0.938896,-0.759777,0.176450,0.191019
"2019-05-05 23:04:38.518 +0000",1557097478.518240,2.192527,-1.004725,0.652955,0.435960,0.844015,0.312376,0.000000,0.000000,0.000000,-1,-1.721544,-1.071398,-1.115111,-0.742616,0.198237,-0.935575
"2019-05-05 23:04:38.541 +0000",1557097478.540527,2.252776,-1.025516,0.740773,0.402648,0.854982,0.326926,0.000000,0.000000,0.000000,-1,-0.258633,-0.890760,-2.599774,0.161668,1.375151,-1.232291
"2019-05-05 23:04:38.563 +0000",1557097478.562828,2.215507,-1.091800,0.761227,0.368376,0.887458,0.276979,0.000000,0.000000,0.000000,-1,2.161042,-3.146798,-2.210271,0.502321,1.825875,-0.890794
"2019-05-05 23:04:38.585 +0000",1557097478.585134,2.167494,-1.135124,0.751909,0.349093,0.906587,0.237139,0.000000,0.000000,0.000000,-1,0.414502,-0.725145,-1.199145,0.173704,0.979781,-0.419008
"2019-05-05 23:04:38.607 +0000",1557097478.607437,2.218399,-1.149061,0.782724,0.326465,0.912380,0.246947,0.000000,0.000000,0.000000,-1,-0.104427,1.972071,-0.639015,0.128399,0.158848,-0.639907
"2019-05-05 23:04:38.630 +0000",1557097478.629744,2.252538,-1.163850,0.778319,0.307335,0.918334,0.249416,0.000000,0.000000,0.000000,-1,1.022965,0.719582,-0.493435,0.418480,0.735750,-0.999828
"2019-05-05 23:04:38.652 +0000",1557097478.652059,2.146865,-1.191407,0.719442,0.310582,0.928891,0.201743,0.000000,0.000000,0.000000,-1,1.559898,-3.677491,-0.043555,0.501201,0.806705,-0.773673
"2019-05-05 23:04:38.674 +0000",1557097478.674367,1.940916,-1.202396,0.604484,0.335738,0.932904,0.130267,0.000000,0.000000,0.000000,-1,2.113155,-4.949598,0.500166,0.426744,0.643878,-0.351153
"2019-05-05 23:04:38.697 +0000",1557097478.696643,1.881799,-1.196541,0.594696,0.348042,0.930780,0.111872,0.000000,0.000000,0.000000,-1,-0.918047,0.707063,0.299790,-0.335377,0.578390,2.085042
"2019-05-05 23:04:38.719 +0000",1557097478.718951,1.942954,-1.186863,0.624298,0.348929,0.927199,0.136203,0.000000,0.000000,0.000000,-1,-0.282476,1.065942,0.145531,-0.448523,0.100633,-0.440418
"2019-05-05 23:04:38.741 +0000",1557097478.741260,1.923840,-1.189097,0.605996,0.349524,0.928033,0.128793,0.000000,0.000000,0.000000,-1,0.628877,-0.735166,0.004361,-0.490607,-0.215966,-0.711374
"2019-05-05 23:04:38.764 +0000",1557097478.763561,1.836157,-1.194499,0.551721,0.354617,0.930032,0.096374,0.000000,0.000000,0.000000,-1,1.033543,-2.087750,0.112062,-0.395648,-0.315957,-0.137070
"2019-05-05 23:04:38.786 +0000",1557097478.785875,1.737583,-1.191298,0.492974,0.365314,0.928851,0.061501,0.000000,0.000000,0.000000,-1,0.688078,-1.578289,0.514289,-0.428256,-0.272601,0.165214
"2019-05-05 23:04:38.808 +0000",1557097478.808182,1.724429,-1.178775,0.490599,0.377558,0.924139,0.058466,0.000000,0.000000,0.000000,-1,-0.427393,-0.100223,0.485805,-0.681192,-0.134069,0.368475
"2019-05-05 23:04:38.830 +0000",1557097478.830461,1.733337,-1.170545,0.516485,0.384514,0.920963,0.063055,0.000000,0.000000,0.000000,-1,-0.415549,-1.271187,0.203436,-0.644585,-0.072941,-0.169180
"2019-05-05 23:04:38.853 +0000",1557097478.852769,1.698251,-1.165909,0.530184,0.390720,0.919147,0.050070,0.000000,0.000000,0.000000,-1,-0.272121,-2.427500,0.196394,-0.493686,0.005231,0.250146
"2019-05-05 23:04:38.875 +0000",1557097478.875077,1.675018,-1.158788,0.557854,0.398277,0.916319,0.041660,0.000000,0.000000,0.000000,-1,-0.680283,-1.995453,0.308995,-0.460838,0.042269,0.418270
"2019-05-05 23:04:38.897 +0000",1557097478.897385,1.660303,-1.148578,0.594802,0.408144,0.912182,0.036630,0.000000,0.000000,0.000000,-1,-0.666178,-2.270532,0.430535,-0.450075,0.087284,0.144050
"2019-05-05 23:04:38.920 +0000",1557097478.919693,1.635785,-1.138485,0.615456,0.418086,0.908000,0.027209,0.000000,0.000000,0.000000,-1,-0.258308,-1.672696,0.380743,-0.634395,0.110265,-0.227969
"2019-05-05 23:04:38.942 +0000",1557097478.942000,1.612276,-1.131411,0.624979,0.425018,0.905013,0.017640,0.000000,0.000000,0.000000,-1,-0.189520,-1.444196,0.293147,-0.695754,0.275422,-0.072739
"2019-05-05 23:04:38.964 +0000",1557097478.964278,1.589198,-1.123108,0.640738,0.432809,0.901450,0.007965,0.000000,0.000000,0.000000,-1,-0.386291,-1.865797,0.403492,-0.498758,0.382211,0.230270
"2019-05-05 23:04:38.987 +0000",1557097478.986578,1.562225,-1.111437,0.667770,0.443357,0.896337,-0.003800,0.000000,0.000000,0.000000,-1,-0.655547,-2.512145,0.617525,-0.283125,0.509196,0.145417
"2019-05-05 23:04:39.009 +0000",1557097479.008893,1.526819,-1.098305,0.690103,0.454666,0.890437,-0.020008,0.000000,0.000000,0.000000,-1,-0.170177,-2.352183,0.575375,-0.407608,0.520940,-0.082852
"2019-05-05 23:04:39.031 +0000",1557097479.031185,1.469864,-1.085778,0.684401,0.463852,0.884666,-0.046977,0.000000,0.000000,0.000000,-1,0.261229,-2.374213,0.557147,-0.719620,0.439064,-0.282231
"2019-05-05 23:04:39.054 +0000",1557097479.053511,1.403952,-1.073724,0.672013,0.470232,0.878983,-0.079192,0.000000,0.000000,0.000000,-1,0.331022,-2.561472,0.478204,-0.906679,0.481979,0.015349
"2019-05-05 23:04:39.076 +0000",1557097479.075818,1.335852,-1.061378,0.672177,0.474272,0.873028,-0.113524,0.000000,0.000000,0.000000,-1,-0.067729,-3.409773,0.653037,-0.893248,0.626804,0.157134
"2019-05-05 23:04:39.098 +0000",1557097479.098095,1.265896,-1.045583,0.694535,0.478272,0.865217,-0.150519,0.000000,0.000000,0.000000,-1,-0.353471,-4.280044,0.860366,-0.676835,0.451983,0.231497
"2019-05-05 23:04:39.120 +0000",1557097479.120403,1.198328,-1.028466,0.728315,0.480743,0.856508,-0.187829,0.000000,0.000000,0.000000,-1,-0.690066,-4.372837,1.078140,-0.552856,0.070433,0.144540
"2019-05-05 23:04:39.143 +0000",1557097479.142703,1.151010,-1.017680,0.793031,0.479729,0.850892,-0.214111,0.000000,0.000000,0.000000,-1,-1.442252,-4.554658,0.904516,-0.418740,-0.479676,0.675613
"2019-05-05 23:04:39.165 +0000",1557097479.165021,1.130444,-1.021247,0.868566,0.472476,0.852760,-0.222636,0.000000,0.000000,0.000000,-1,-1.861042,-3.300696,0.425522,-0.420291,-0.568733,0.755915
"2019-05-05 23:04:39.187 +0000",1557097479.187327,1.151072,-1.042756,0.967430,0.460109,0.863796,-0.205320,0.000000,0.000000,0.000000,-1,-2.897905,-2.774430,-0.160167,-0.356334,-0.539699,0.782026
"2019-05-05 23:04:39.210 +0000",1557097479.209635,1.215539,-1.082572,1.107828,0.439769,0.883167,-0.163153,0.000000,0.000000,0.000000,-1,-3.793942,-2.374408,-0.641710,-0.205119,0.230694,0.591864
"2019-05-05 23:04:39.232 +0000",1557097479.231940,1.337123,-1.127597,1.272232,0.417177,0.903384,-0.099297,0.000000,0.000000,0.000000,-1,-3.546138,-0.195179,-1.144759,-0.181185,0.385785,0.350823
"2019-05-05 23:04:39.254 +0000",1557097479.254221,1.484859,-1.168309,1.412449,0.390262,0.920090,-0.033621,0.000000,0.000000,0.000000,-1,-2.432468,1.168469,-1.420622,-0.188938,0.566269,-0.245401
"2019-05-05 23:04:39.277 +0000",1557097479.276529,1.607585,-1.199287,1.526979,0.362777,0.931781,0.013352,0.000000,0.000000,0.000000,-1,-1.711182,0.546755,-1.306867,0.298967,0.751996,-0.986100
"2019-05-05 23:04:39.299 +0000",1557097479.298836,1.694101,-1.221159,1.599025,0.339956,0.939497,0.042132,0.000000,0.000000,0.000000,-1,-0.566886,1.019394,-1.038052,0.448877,0.728045,-0.444613
"2019-05-05 23:04:39.321 +0000",1557097479.321145,1.820736,-1.268891,1.705648,0.288101,0.954772,0.073546,0.000000,0.000000,0.000000,-1,-2.010214,0.584326,-3.322366,0.185868,1.056932,0.928423
"2019-05-05 23:04:39.343 +0000",1557097479.343452,2.088713,-1.321594,1.985859,0.214286,0.969109,0.122100,0.000000,0.000000,0.000000,-1,-2.065428,-0.027940,-3.225154,0.231499,1.071830,1.141160
"2019-05-05 23:04:39.366 +0000",1557097479.365728,2.379359,-1.337168,2.314678,0.159866,0.972833,0.167449,0.000000,0.000000,0.000000,-1,-2.435351,-2.404381,-2.490907,-0.056915,0.570685,0.061280
"2019-05-05 23:04:39.388 +0000",1557097479.388044,2.604545,-1.332526,2.607401,0.120749,0.971748,0.202796,0.000000,0.000000,0.000000,-1,-1.764277,-2.758195,-2.124001,-0.470023,0.382699,-0.141379
"2019-05-05 23:04:39.410 +0000",1557097479.410352,2.735545,-1.321634,2.819639,0.097399,0.969119,0.226541,0.000000,0.000000,0.000000,-1,-1.245180,-3.647034,-1.716434,-0.405917,0.115048,-0.243204
"2019-05-05 23:04:39.433 +0000",1557097479.432667,2.801175,-1.320804,2.975241,0.082601,0.968914,0.233200,0.000000,0.000000,0.000000,-1,-0.327610,-3.826752,-1.528364,0.268611,-0.606533,-0.268829
"2019-05-05 23:04:39.455 +0000",1557097479.454967,2.842315,-1.337356,3.095829,0.068202,0.972876,0.221044,0.000000,0.000000,0.000000,-1,0.735736,-3.052171,-1.434301,0.332463,-1.079657,-0.286779
"2019-05-05 23:04:39.477 +0000",1557097479.477276,2.858028,-1.377200,-3.115307,0.053827,0.981319,0.184707,0.000000,0.000000,0.000000,-1,1.932272,-2.033945,-1.017321,0.350211,-1.322856,-0.310408
"2019-05-05 23:04:39.500 +0000",1557097479.499555,2.851246,-1.434654,-3.106812,0.038855,0.990747,0.130041,0.000000,0.000000,0.000000,-1,2.679121,0.280423,-0.665383,0.289834,-1.631479,-0.261404
"2019-05-05 23:04:39.522 +0000",1557097479.521854,2.821103,-1.493895,3.114364,0.024203,0.997045,0.072914,0.000000,0.000000,0.000000,-1,2.453915,1.823676,-0.475729,0.187467,-1.556630,-0.252343
"2019-05-05 23:04:39.544 +0000",1557097479.544175,2.834690,-1.541891,3.086390,0.008731,0.999582,0.027551,0.000000,0.000000,0.000000,-1,1.809450,1.818783,-0.716627,0.147763,-1.200357,-0.152719
"2019-05-05 23:04:39.566 +0000",1557097479.566477,-2.031855,-1.560276,-1.819471,-0.009419,0.999945,0.004679,0.000000,0.000000,0.000000,-1,0.341457,1.584198,-0.777201,0.031834,-0.693029,0.203695
"2019-05-05 23:04:39.589 +0000",1557097479.588784,-1.986620,-1.547797,-1.726729,-0.021037,0.999736,0.009289,0.000000,0.000000,0.000000,-1,-0.030527,-3.374618,-0.114312,-0.422872,1.201558,1.517810
"2019-05-05 23:04:39.611 +0000",1557097479.611094,-2.167120,-1.552905,-1.916801,-0.014802,0.999840,0.010047,0.000000,0.000000,0.000000,-1,0.248270,2.299132,0.243581,0.461824,0.590401,-1.148124
"2019-05-05 23:04:39.633 +0000",1557097479.633369,-0.377425,-1.557713,-0.216752,-0.004822,0.999914,-0.012164,0.000000,0.000000,0.000000,-1,1.137157,4.417145,0.701529,0.888932,0.531320,-1.405820
"2019-05-05 23:04:39.656 +0000",1557097479.655677,0.353770,-1.523328,0.438281,0.016439,0.998874,-0.044512,0.000000,0.000000,0.000000,-1,1.724958,2.411851,0.919308,1.370936,0.344236,-0.639661
"2019-05-05 23:04:39.678 +0000",1557097479.677986,0.317133,-1.450855,0.446151,0.037314,0.992816,-0.113688,0.000000,0.000000,0.000000,-1,3.612650,-5.961702,1.380254,1.106897,0.165494,-0.317449
"2019-05-05 23:04:39.700 +0000",1557097479.700294,0.307316,-1.369719,0.573223,0.060417,0.979852,-0.190368,0.000000,0.000000,0.000000,-1,2.691604,-4.598008,2.294438,0.863106,0.130042,0.470886
"2019-05-05 23:04:39.723 +0000",1557097479.722579,0.459965,-1.308051,0.730672,0.115300,0.965680,-0.232738,0.000000,0.000000,0.000000,-1,1.749599,2.559942,2.631191,0.456737,0.274111,0.195125
"2019-05-05 23:04:39.745 +0000",1557097479.744909,0.665738,-1.248111,0.830136,0.195862,0.948387,-0.249398,0.000000,0.000000,0.000000,-1,1.619814,5.696608,2.267106,0.415329,0.625892,0.069848
"2019-05-05 23:04:39.767 +0000",1557097479.767188,0.698620,-1.178194,0.785984,0.246070,0.923916,-0.292964,0.000000,0.000000,0.000000,-1,3.764538,0.922744,1.172824,0.185952,1.970462,-0.623646
"2019-05-05 23:04:39.789 +0000",1557097479.789495,0.624095,-1.084885,0.741437,0.272906,0.884250,-0.378979,0.000000,0.000000,0.000000,-1,3.638926,-1.902664,2.527711,-0.228778,2.140683,0.077938
"2019-05-05 23:04:39.812 +0000",1557097479.811803,0.672046,-1.009003,0.763577,0.331656,0.846301,-0.416868,0.000000,0.000000,0.000000,-1,1.768328,3.182007,1.890036,-1.146139,1.138455,1.652006
"2019-05-05 23:04:39.834 +0000",1557097479.834111,0.713014,-0.965045,0.744623,0.372441,0.822075,-0.430676,0.000000,0.000000,0.000000,-1,1.798822,1.638524,0.706629,-1.566670,0.413720,0.483364
"2019-05-05 23:04:39.856 +0000",1557097479.856419,0.715939,-0.934248,0.729358,0.390135,0.804152,-0.448479,0.000000,0.000000,0.000000,-1,0.971233,0.202633,0.401441,-1.120635,-0.268126,1.083199
"2019-05-05 23:04:39.879 +0000",1557097479.878705,0.694863,-0.922663,0.719366,0.386536,0.797212,-0.463726,0.000000,0.000000,0.000000,-1,0.395587,-0.843617,-0.013783,-0.544938,-0.593019,1.224499
"2019-05-05 23:04:39.901 +0000",1557097479.901004,0.686757,-0.925748,0.714770,0.381204,0.799070,-0.464941,0.000000,0.000000,0.000000,-1,-0.392678,0.303763,-0.338162,-0.495752,-0.675840,1.327413
"2019-05-05 23:04:39.923 +0000",1557097479.923313,0.696912,-0.957664,0.715637,0.369343,0.817850,-0.441257,0.000000,0.000000,0.000000,-1,-1.569407,0.336439,-1.304097,-0.688221,-0.699670,1.063816
"2019-05-05 23:04:39.946 +0000",1557097479.945599,0.691717,-1.019014,0.712324,0.334370,0.851592,-0.403718,0.000000,0.000000,0.000000,-1,-2.156184,-0.606358,-2.005569,-0.609761,-0.828291,0.125123
"2019-05-05 23:04:39.968 +0000",1557097479.967916,0.676023,-1.074903,0.702045,0.297717,0.879544,-0.371169,0.000000,0.000000,0.000000,-1,-1.452123,0.838704,-1.541727,-0.437274,-0.886624,0.570968
"2019-05-05 23:04:39.990 +0000",1557097479.990235,0.726712,-1.123368,0.687474,0.287459,0.901563,-0.323346,0.000000,0.000000,0.000000,-1,-1.817409,3.263773,-1.708553,-0.037398,-0.520322,0.903409
"2019-05-05 23:04:40.013 +0000",1557097480.012545,0.791695,-1.204431,0.722158,0.254893,0.933636,-0.251703,0.000000,0.000000,0.000000,-1,-3.716008,-0.032314,-2.266884,0.226842,0.081806,0.628961
"2019-05-05 23:04:40.035 +0000",1557097480.034822,0.871694,-1.301879,0.855820,0.203363,0.964059,-0.170979,0.000000,0.000000,0.000000,-1,-4.508320,-3.060144,-1.651090,0.418616,0.869544,0.183140
"2019-05-05 23:04:40.057 +0000",1557097480.057130,1.077389,-1.373619,1.144066,0.172535,0.980624,-0.092785,0.000000,0.000000,0.000000,-1,-3.920850,-3.275974,-0.584538,0.479671,1.414594,-0.195545
"2019-05-05 23:04:40.079 +0000",1557097480.079441,1.347924,-1.394395,1.472472,0.171148,0.984482,-0.038788,0.000000,0.000000,0.000000,-1,-2.000867,-1.000229,0.467911,0.875270,1.790589,-0.029892
"2019-05-05 23:04:40.102 +0000",1557097480.101745,1.585881,-1.413377,1.660111,0.156752,0.987635,0.002365,0.000000,0.000000,0.000000,-1,-1.143226,3.693630,-1.326272,0.704012,1.438695,0.113770
"2019-05-05 23:04:40.124 +0000",1557097480.124054,1.848854,-1.443643,1.863338,0.121940,0.991927,0.034808,0.000000,0.000000,0.000000,-1,-1.471184,1.385527,-1.694213,0.058007,0.889512,0.068341
"2019-05-05 23:04:40.146 +0000",1557097480.146362,2.318567,-1.448213,2.368730,0.089654,0.992496,0.083149,0.000000,0.000000,0.000000,-1,-2.657651,-2.655693,-1.286687,-0.460839,1.170086,0.082745
"2019-05-05 23:04:40.169 +0000",1557097480.168656,2.547900,-1.415282,2.671441,0.086648,0.987932,0.128384,0.000000,0.000000,0.000000,-1,-2.034795,-2.947477,-0.142532,0.054419,0.131392,-0.160870
"2019-05-05 23:04:40.191 +0000",1557097480.190947,2.603435,-1.383234,2.791054,0.095573,0.982462,0.160108,0.000000,0.000000,0.000000,-1,-1.463324,-2.668697,-0.007062,0.216362,-0.126856,-0.185636
"2019-05-05 23:04:40.213 +0000",1557097480.213256,2.599627,-1.369845,2.832132,0.102959,0.979877,0.170998,0.000000,0.000000,0.000000,-1,-0.160263,-1.468529,0.048591,0.401314,-0.696811,-0.207955
"2019-05-05 23:04:40.236 +0000",1557097480.235563,2.503847,-1.382948,2.741378,0.111185,0.982408,0.150038,0.000000,0.000000,0.000000,-1,1.580254,0.605519,0.496129,0.392126,-1.301058,-0.409331
"2019-05-05 23:04:40.258 +0000",1557097480.257871,2.308022,-1.408706,2.499071,0.119476,0.986892,0.108486,0.000000,0.000000,0.000000,-1,2.308352,2.450368,0.635133,0.197159,-1.719879,-0.430996
"2019-05-05 23:04:40.280 +0000",1557097480.280170,2.019208,-1.422677,2.153909,0.132988,0.989050,0.063980,0.000000,0.000000,0.000000,-1,2.218029,2.178591,0.986098,-0.246392,-1.494711,-0.313126
"2019-05-05 23:04:40.302 +0000",1557097480.302457,1.751552,-1.416207,1.840669,0.151466,0.988075,0.027680,0.000000,0.000000,0.000000,-1,1.773851,1.701187,0.697092,-0.456931,-1.233635,-0.145142
"2019-05-05 23:04:40.325 +0000",1557097480.324763,1.647192,-1.425560,1.702800,0.144304,0.989472,0.011046,0.000000,0.000000,0.000000,-1,0.366973,1.411186,-0.978147,-0.928713,-0.345856,0.429735
"2019-05-05 23:04:40.347 +0000",1557097480.347072,1.603571,-1.452090,1.646788,0.118364,0.992963,0.003881,0.000000,0.000000,0.000000,-1,0.617790,-0.515118,-0.974587,-0.812028,-0.257016,1.140254
"2019-05-05 23:04:40.369 +0000",1557097480.369380,1.612387,-1.469339,1.648129,0.101196,0.994858,0.004211,0.000000,0.000000,0.000000,-1,-0.524888,1.156271,-0.632637,-0.612945,-0.456451,0.391190
"2019-05-05 23:04:40.392 +0000",1557097480.391672,1.813521,-1.473041,1.803068,0.094738,0.995226,0.023458,0.000000,0.000000,0.000000,-1,-0.260392,2.536665,0.016432,0.630039,-0.163149,-1.352346
"2019-05-05 23:04:40.414 +0000",1557097480.413996,1.488904,-1.456860,1.405677,0.113309,0.993516,-0.009300,0.000000,0.000000,0.000000,-1,2.644004,3.468861,1.541469,1.004244,0.411879,-1.926735
"2019-05-05 23:04:40.436 +0000",1557097480.436273,1.248968,-1.397051,1.090714,0.163997,0.984944,-0.054680,0.000000,0.000000,0.000000,-1,2.590328,2.735076,2.344387,1.798055,1.690333,-0.830345
"2019-05-05 23:04:40.459 +0000",1557097480.458581,1.059184,-1.313923,0.880069,0.221527,0.967189,-0.124382,0.000000,0.000000,0.000000,-1,3.836083,-0.620363,2.955279,1.030411,0.879964,-0.193641
"2019-05-05 23:04:40.481 +0000",1557097480.480894,0.929057,-1.216272,0.789669,0.278082,0.937812,-0.207797,0.000000,0.000000,0.000000,-1,2.541906,-2.285085,2.695342,0.394861,0.944024,0.202426
"2019-05-05 23:04:40.503 +0000",1557097480.503198,0.919230,-1.176463,0.849363,0.305485,0.923253,-0.232987,0.000000,0.000000,0.000000,-1,-0.710611,-3.392753,1.959456,0.241496,1.815090,0.197877
"2019-05-05 23:04:40.526 +0000",1557097480.525505,0.828191,-1.094824,0.866242,0.337563,0.888847,-0.309841,0.000000,0.000000,0.000000,-1,3.959165,-5.434243,3.187865,0.081688,1.674736,0.073498
"2019-05-05 23:04:40.548 +0000",1557097480.547813,0.722855,-1.010226,0.811663,0.351714,0.846952,-0.398710,0.000000,0.000000,0.000000,-1,2.536233,0.690733,0.803151,-0.908477,1.638201,1.811140
"2019-05-05 23:04:40.570 +0000",1557097480.570090,0.751735,-0.977554,0.761891,0.381781,0.829132,-0.408391,0.000000,0.000000,0.000000,-1,1.651074,2.864333,-0.077458,-1.011969,0.867248,1.083409
"2019-05-05 23:04:40.592 +0000",1557097480.592399,0.742257,-0.964539,0.746961,0.385155,0.821786,-0.419908,0.000000,0.000000,0.000000,-1,0.283864,-1.473350,0.351231,-0.809334,0.122000,1.013338
"2019-05-05 23:04:40.615 +0000",1557097480.614690,0.704480,-0.954582,0.747976,0.374302,0.816072,-0.440368,0.000000,0.000000,0.000000,-1,0.294545,-1.178874,0.152616,-0.638234,-0.816225,1.027908
"2019-05-05 23:04:40.637 +0000",1557097480.637014,0.710665,-0.956810,0.747439,0.375831,0.817358,-0.436665,0.000000,0.000000,0.000000,-1,-0.400380,0.734924,-0.173564,-0.571358,-0.994864,1.116459
"2019-05-05 23:04:40.659 +0000",1557097480.659322,0.728368,-0.977776,0.765308,0.372012,0.829256,-0.417062,0.000000,0.000000,0.000000,-1,-1.265916,-0.138279,-0.343581,-0.590701,-1.035235,1.058145
"2019-05-05 23:04:40.682 +0000",1557097480.681600,0.730998,-1.006899,0.778586,0.356828,0.845179,-0.397928,0.000000,0.000000,0.000000,-1,-1.126592,-0.698637,-0.842207,-0.806459,-0.855799,0.547601
"2019-05-05 23:04:40.704 +0000",1557097480.703908,0.712937,-1.044575,0.777407,0.328514,0.864711,-0.379939,0.000000,0.000000,0.000000,-1,-1.394033,-0.483822,-1.251126,-0.844139,-0.800945,0.623195
"2019-05-05 23:04:40.726 +0000",1557097480.726216,0.722923,-1.092784,0.777676,0.304337,0.887911,-0.344954,0.000000,0.000000,0.000000,-1,-1.808285,0.655317,-1.520688,-0.762726,-0.805071,0.584990
"2019-05-05 23:04:40.749 +0000",1557097480.748524,0.742663,-1.157312,0.797131,0.271720,0.915727,-0.295996,0.000000,0.000000,0.000000,-1,-2.785907,-0.456854,-1.760583,-0.199423,-0.443131,0.486441
"2019-05-05 23:04:40.771 +0000",1557097480.770832,0.755363,-1.238928,0.851510,0.223360,0.945435,-0.237197,0.000000,0.000000,0.000000,-1,-3.468975,-2.355895,-1.921416,0.104262,0.369628,0.108062
"2019-05-05 23:04:40.793 +0000",1557097480.793139,0.759073,-1.330362,0.917008,0.163889,0.971235,-0.172753,0.000000,0.000000,0.000000,-1,-3.632869,-2.759937,-2.364494,0.354956,1.119006,0.032845
"2019-05-05 23:04:40.815 +0000",1557097480.815417,0.868693,-1.417358,1.092709,0.116689,0.988251,-0.098706,0.000000,0.000000,0.000000,-1,-3.781808,-2.665194,-1.069034,0.574672,1.749114,0.030987
"2019-05-05 23:04:40.838 +0000",1557097480.837740,1.209033,-1.438390,1.465774,0.123475,0.991247,-0.046725,0.000000,0.000000,0.000000,-1,-1.515077,-0.075380,0.680440,1.555694,2.021921,-0.267942
"2019-05-05 23:04:40.860 +0000",1557097480.860033,1.549350,-1.457057,1.789667,0.113468,0.993539,-0.002434,0.000000,0.000000,0.000000,-1,-2.734180,0.464074,-0.611311,1.737301,1.710914,0.050819
"2019-05-05 23:04:40.882 +0000",1557097480.882339,1.996293,-1.461230,2.225391,0.099596,0.994004,0.045135,0.000000,0.000000,0.000000,-1,-1.622788,0.889982,-0.980575,0.517210,0.930694,0.363755
"2019-05-05 23:04:40.905 +0000",1557097480.904625,2.434919,-1.452370,2.668343,0.076716,0.992996,0.089856,0.000000,0.000000,0.000000,-1,-2.323906,-0.921100,-0.660867,-0.485010,0.362870,-0.058301
"2019-05-05 23:04:40.927 +0000",1557097480.926939,2.602717,-1.410221,2.879303,0.082049,0.987135,0.137229,0.000000,0.000000,0.000000,-1,-2.069842,-2.036682,0.310564,-0.160235,-0.118315,-0.199332
"2019-05-05 23:04:40.949 +0000",1557097480.949234,2.601672,-1.376343,2.915766,0.099334,0.981153,0.165743,0.000000,0.000000,0.000000,-1,-1.128645,-1.412627,0.620525,-0.034713,-0.347670,-0.251620
"2019-05-05 23:04:40.972 +0000",1557097480.971542,2.563797,-1.358800,2.899480,0.114923,0.977613,0.176256,0.000000,0.000000,0.000000,-1,-0.176721,-0.718985,0.473354,0.102988,-0.687711,-0.296983
"2019-05-05 23:04:40.994 +0000",1557097480.993850,2.462444,-1.364498,2.814773,0.128665,0.978796,0.159387,0.000000,0.000000,0.000000,-1,1.215390,-0.904232,0.452024,0.110791,-1.368444,-0.745690
"2019-05-05 23:04:41.016 +0000",1557097481.016158,2.275075,-1.389433,2.633436,0.137457,0.983599,0.116787,0.000000,0.000000,0.000000,-1,2.067290,0.116683,0.329197,0.041987,-1.760378,-0.571118
"2019-05-05 23:04:41.038 +0000",1557097481.038465,2.079709,-1.402687,2.416707,0.146115,0.985903,0.081522,0.000000,0.000000,0.000000,-1,1.529552,0.953963,0.588251,-0.049786,-1.682390,-0.277506
"2019-05-05 23:04:41.061 +0000",1557097481.060758,1.960936,-1.402165,2.265410,0.155222,0.985815,0.063830,0.000000,0.000000,0.000000,-1,0.353721,2.097516,0.271183,-0.927026,-0.428229,1.265195
"2019-05-05 23:04:41.083 +0000",1557097481.083076,2.230812,-1.403822,2.470307,0.131295,0.986092,0.101902,0.000000,0.000000,0.000000,-1,-1.609944,2.270882,-1.446865,-1.024224,0.135368,1.848827
"2019-05-05 23:04:41.105 +0000",1557097481.105353,2.382202,-1.405364,2.629136,0.113378,0.986347,0.119434,0.000000,0.000000,0.000000,-1,-0.753065,-0.441878,-0.335704,-0.559972,0.118710,0.972851
"2019-05-05 23:04:41.128 +0000",1557097481.127665,2.507502,-1.405671,2.723752,0.097384,0.986398,0.132423,0.000000,0.000000,0.000000,-1,0.305407,2.475648,-0.874733,0.026091,-0.837915,-2.309974
"2019-05-05 23:04:41.150 +0000",1557097481.149974,2.315323,-1.452505,2.481378,0.086790,0.993012,0.079970,0.000000,0.000000,0.000000,-1,3.543115,1.701353,0.545263,0.617358,-0.703339,-2.772017
"2019-05-05 23:04:41.172 +0000",1557097481.172283,1.803900,-1.454012,1.925335,0.113367,0.993189,0.026916,0.000000,0.000000,0.000000,-1,3.313593,3.337304,2.122257,1.867834,1.854269,-0.840880
"2019-05-05 23:04:41.195 +0000",1557097481.194590,1.360753,-1.399094,1.431213,0.167105,0.985295,-0.035625,0.000000,0.000000,0.000000,-1,3.001849,1.013016,2.657580,0.742502,0.879161,-0.356816
"2019-05-05 23:04:41.217 +0000",1557097481.216868,1.190038,-1.326740,1.269820,0.224335,0.970366,-0.089800,0.000000,0.000000,0.000000,-1,1.837691,-1.653988,2.459939,0.356537,0.965822,-0.183089
"2019-05-05 23:04:41.239 +0000",1557097481.239170,1.045578,-1.268039,1.208930,0.257966,0.954518,-0.149494,0.000000,0.000000,0.000000,-1,2.843820,-5.111485,2.153634,0.139968,1.967189,-0.322490
"2019-05-05 23:04:41.261 +0000",1557097481.261483,0.805030,-1.164114,1.052566,0.285143,0.918438,-0.274161,0.000000,0.000000,0.000000,-1,4.554094,-1.974103,1.772963,-0.527361,2.135257,1.468680
"2019-05-05 23:04:41.284 +0000",1557097481.283793,0.829077,-1.115643,0.996471,0.324121,0.898194,-0.296975,0.000000,0.000000,0.000000,-1,1.629198,4.881055,0.371075,-0.812356,1.052994,1.716195
"2019-05-05 23:04:41.306 +0000",1557097481.306082,0.808886,-1.079967,0.926409,0.341036,0.881942,-0.325381,0.000000,0.000000,0.000000,-1,2.061182,-0.739927,0.224007,-0.712252,0.535309,0.572863
"2019-05-05 23:04:41.328 +0000",1557097481.328408,0.739259,-1.057717,0.912147,0.330714,0.871237,-0.362731,0.000000,0.000000,0.000000,-1,0.542928,-2.618307,0.726322,-0.572077,0.300867,0.959945
"2019-05-05 23:04:41.351 +0000",1557097481.350686,0.700183,-1.043809,0.905030,0.324068,0.864326,-0.384604,0.000000,0.000000,0.000000,-1,0.547349,-0.820279,-0.030239,-0.805086,-0.395896,0.826926
"2019-05-05 23:04:41.373 +0000",1557097481.372993,0.689968,-1.043582,0.896926,0.320247,0.864212,-0.388046,0.000000,0.000000,0.000000,-1,-0.279407,-0.000782,-0.202860,-0.573940,-0.889389,0.941619
"2019-05-05 23:04:41.395 +0000",1557097481.395301,0.697640,-1.068351,0.910908,0.309366,0.876407,-0.369057,0.000000,0.000000,0.000000,-1,-1.386350,-0.250115,-0.617943,-0.577188,-1.093265,0.952659
"2019-05-05 23:04:41.418 +0000",1557097481.417609,0.700155,-1.100533,0.922912,0.291962,0.891449,-0.346521,0.000000,0.000000,0.000000,-1,-1.110003,-0.468412,-0.793284,-0.521973,-0.879410,0.499978
"2019-05-05 23:04:41.440 +0000",1557097481.439916,0.689940,-1.132195,0.916923,0.270301,0.905347,-0.327544,0.000000,0.000000,0.000000,-1,-1.074702,0.196897,-1.168855,-0.384177,-0.793012,0.818190
"2019-05-05 23:04:41.462 +0000",1557097481.462225,0.709475,-1.177933,0.926353,0.249392,0.923817,-0.290458,0.000000,0.000000,0.000000,-1,-2.180622,0.416876,-1.104293,0.014097,-0.778172,0.912300
"2019-05-05 23:04:41.485 +0000",1557097481.484503,0.776167,-1.237820,1.001479,0.228980,0.945074,-0.233247,0.000000,0.000000,0.000000,-1,-3.006789,-0.521050,-0.837048,0.275033,-0.588796,0.329637
"2019-05-05 23:04:41.507 +0000",1557097481.506811,0.871326,-1.301469,1.125051,0.203602,0.963950,-0.171308,0.000000,0.000000,0.000000,-1,-3.229514,-1.295036,-1.187549,-0.127858,0.021646,-0.246646
"2019-05-05 23:04:41.529 +0000",1557097481.529107,1.013186,-1.376436,1.306505,0.163883,0.981171,-0.102201,0.000000,0.000000,0.000000,-1,-3.573580,-1.647050,-1.835855,-0.212009,0.849334,-0.178072
"2019-05-05 23:04:41.551 +0000",1557097481.551426,1.347799,-1.451821,1.676950,0.115757,0.992931,-0.026250,0.000000,0.000000,0.000000,-1,-3.677415,-1.183323,-2.153873,-0.024646,1.514775,-0.145991
"2019-05-05 23:04:41.574 +0000",1557097481.573734,1.984550,-1.477391,2.310808,0.085400,0.995641,0.037499,0.000000,0.000000,0.000000,-1,-1.891416,1.574410,-0.510300,1.063755,2.717586,-0.279870
"2019-05-05 23:04:41.596 +0000",1557097481.596043,2.300611,-1.471647,2.551326,0.073775,0.995089,0.065998,0.000000,0.000000,0.000000,-1,-1.528536,3.744775,-1.091375,1.473070,1.575331,-0.103305
"2019-05-05 23:04:41.618 +0000",1557097481.618320,2.776700,-1.442179,3.048711,0.045771,0.991740,0.119819,0.000000,0.000000,0.000000,-1,-2.221576,-2.310585,-1.153291,1.100424,0.730687,-0.211143
"2019-05-05 23:04:41.641 +0000",1557097481.640629,2.985273,-1.406799,-2.974120,0.025418,0.986583,0.161273,0.000000,0.000000,0.000000,-1,-1.982250,-1.939459,-1.278056,-0.184124,0.633336,-0.125644
"2019-05-05 23:04:41.663 +0000",1557097481.662935,3.061781,-1.358247,-2.849872,0.016819,0.977496,0.210282,0.000000,0.000000,0.000000,-1,-2.408960,-2.380093,-0.337719,-0.310733,0.325879,-0.194290
"2019-05-05 23:04:41.685 +0000",1557097481.685245,3.001963,-1.315676,-2.850134,0.035123,0.967633,0.249906,0.000000,0.000000,0.000000,-1,-1.456340,-2.390297,0.419509,-0.097668,-0.193997,-0.140760
"2019-05-05 23:04:41.708 +0000",1557097481.707551,2.939400,-1.303071,-2.871690,0.053124,0.964375,0.259150,0.000000,0.000000,0.000000,-1,0.276149,-1.259561,0.287401,0.511680,-0.952504,-0.380411
"2019-05-05 23:04:41.730 +0000",1557097481.729829,2.893883,-1.335492,-2.929196,0.057162,0.972443,0.226023,0.000000,0.000000,0.000000,-1,2.192463,1.478634,0.361919,0.572675,-1.506913,-0.399927
"2019-05-05 23:04:41.752 +0000",1557097481.752136,2.809726,-1.390466,-3.069500,0.058435,0.983784,0.169568,0.000000,0.000000,0.000000,-1,2.886594,2.562402,0.604426,0.389044,-1.564122,-0.299268
"2019-05-05 23:04:41.774 +0000",1557097481.774445,2.604132,-1.434181,2.969957,0.069724,0.990683,0.116990,0.000000,0.000000,0.000000,-1,2.033048,0.932584,0.733898,-0.126456,-1.323904,-0.201142
"2019-05-05 23:04:41.797 +0000",1557097481.796753,2.489635,-1.446889,2.847390,0.074988,0.992333,0.098241,0.000000,0.000000,0.000000,-1,0.114108,0.053107,0.010204,-1.327841,-0.435204,0.072703
"2019-05-05 23:04:41.819 +0000",1557097481.819061,2.639029,-1.437106,2.993492,0.064204,0.991077,0.116811,0.000000,0.000000,0.000000,-1,-1.093209,0.360646,-0.813041,-0.679789,-0.508426,0.355616
"2019-05-05 23:04:41.841 +0000",1557097481.841368,2.810048,-1.437524,-3.125281,0.043252,0.991132,0.125642,0.000000,0.000000,0.000000,-1,0.171455,0.379888,-0.746921,-0.363962,-0.675596,0.539611
"2019-05-05 23:04:41.864 +0000",1557097481.863646,2.906010,-1.445970,-3.069260,0.029060,0.992219,0.121063,0.000000,0.000000,0.000000,-1,0.063195,2.668416,-0.303320,-0.281822,-0.570405,-0.054977
"2019-05-05 23:04:41.886 +0000",1557097481.885954,3.080113,-1.443429,-2.968377,0.007804,0.991900,0.126784,0.000000,0.000000,0.000000,-1,0.077365,3.301934,-0.626516,0.387780,-0.267077,-0.930723
"2019-05-05 23:04:41.908 +0000",1557097481.908262,-3.129835,-1.488252,-2.957604,-0.000969,0.996595,0.082444,0.000000,0.000000,0.000000,-1,3.036523,2.646731,0.444952,0.963631,0.132067,-1.493135
"2019-05-05 23:04:41.931 +0000",1557097481.930570,1.405620,-1.543644,1.527789,0.026781,0.999631,-0.004464,0.000000,0.000000,0.000000,-1,4.073342,1.735552,1.700228,1.722700,1.357165,-0.691230
"2019-05-05 23:04:41.953 +0000",1557097481.952872,0.669162,-1.463366,0.795771,0.066514,0.994235,-0.084100,0.000000,0.000000,0.000000,-1,3.444817,-1.177111,1.858551,0.737579,0.382001,-0.344138
"2019-05-05 23:04:41.975 +0000",1557097481.975167,0.592370,-1.375419,0.744648,0.108392,0.980974,-0.161060,0.000000,0.000000,0.000000,-1,3.235667,-0.979007,2.212739,0.319358,0.218855,0.008304
"2019-05-05 23:04:41.997 +0000",1557097481.997463,0.635696,-1.301220,0.799913,0.158126,0.963884,-0.214299,0.000000,0.000000,0.000000,-1,1.698799,-0.250967,2.325950,0.320176,0.877669,0.010976
"2019-05-05 23:04:42.020 +0000",1557097482.019771,0.680796,-1.260220,0.862161,0.192353,0.952158,-0.237479,0.000000,0.000000,0.000000,-1,1.114211,-0.999826,1.513590,-0.054673,2.263357,-0.413995
"2019-05-05 23:04:42.042 +0000",1557097482.042080,0.684024,-1.166661,0.823240,0.248485,0.919443,-0.304762,0.000000,0.000000,0.000000,-1,4.346682,4.294963,2.166399,-0.324595,1.712607,1.089797
"2019-05-05 23:04:42.064 +0000",1557097482.064387,0.750256,-1.096901,0.765362,0.311155,0.889797,-0.333831,0.000000,0.000000,0.000000,-1,2.452140,4.791765,0.734556,-0.674528,1.130604,0.898833
"2019-05-05 23:04:42.087 +0000",1557097482.086696,0.772400,-1.067240,0.729880,0.336746,0.875872,-0.345616,0.000000,0.000000,0.000000,-1,0.672697,0.581080,0.328297,-0.776871,0.296812,0.883443
"2019-05-05 23:04:42.109 +0000",1557097482.109004,0.745232,-1.056971,0.757132,0.333315,0.870871,-0.361227,0.000000,0.000000,0.000000,-1,-0.111818,-3.539347,0.886805,-0.733568,-0.069205,0.641531
"2019-05-05 23:04:42.131 +0000",1557097482.131280,0.692126,-1.044822,0.770544,0.320400,0.864835,-0.386528,0.000000,0.000000,0.000000,-1,0.199577,-1.860801,0.374581,-0.831310,-0.263135,0.690987
"2019-05-05 23:04:42.154 +0000",1557097482.153589,0.693986,-1.045144,0.773902,0.320940,0.864997,-0.385718,0.000000,0.000000,0.000000,-1,-0.150909,0.690701,-0.182891,-0.669908,-0.810660,0.664343
"2019-05-05 23:04:42.176 +0000",1557097482.175897,0.696734,-1.053503,0.755845,0.317348,0.869161,-0.379276,0.000000,0.000000,0.000000,-1,-0.047777,0.755015,-0.741661,-0.636821,-1.070424,0.586841
"2019-05-05 23:04:42.198 +0000",1557097482.198212,0.694250,-1.077546,0.733143,0.302944,0.880798,-0.363894,0.000000,0.000000,0.000000,-1,-0.851388,0.919895,-1.280623,-0.598568,-1.111130,0.749270
"2019-05-05 23:04:42.221 +0000",1557097482.220512,0.705550,-1.119790,0.714879,0.282642,0.900009,-0.331809,0.000000,0.000000,0.000000,-1,-1.337697,1.330693,-1.564840,-0.455508,-0.943344,0.831443
"2019-05-05 23:04:42.243 +0000",1557097482.242820,0.727046,-1.170168,0.716092,0.259218,0.920816,-0.291383,0.000000,0.000000,0.000000,-1,-2.058865,0.508026,-1.406500,-0.043672,-0.649530,0.610597
"2019-05-05 23:04:42.265 +0000",1557097482.265099,0.756250,-1.236833,0.758000,0.224929,0.944751,-0.238439,0.000000,0.000000,0.000000,-1,-2.888827,-1.000270,-1.666386,0.048493,-0.257037,0.391988
"2019-05-05 23:04:42.287 +0000",1557097482.287405,0.769591,-1.314074,0.803048,0.176682,0.967227,-0.182358,0.000000,0.000000,0.000000,-1,-2.888482,-1.325639,-2.142347,0.111694,0.223584,0.155625
"2019-05-05 23:04:42.310 +0000",1557097482.309715,0.787956,-1.397503,0.842150,0.122236,0.985022,-0.121612,0.000000,0.000000,0.000000,-1,-3.010950,-0.617066,-2.442633,0.322588,1.233316,-0.030960
"2019-05-05 23:04:42.332 +0000",1557097482.332021,0.894224,-1.477646,0.958087,0.072527,0.995665,-0.058240,0.000000,0.000000,0.000000,-1,-2.728862,-0.264337,-1.920895,0.675382,2.016146,-0.145724
"2019-05-05 23:04:42.354 +0000",1557097482.354324,1.320256,-1.515374,1.372168,0.053665,0.998465,-0.013734,0.000000,0.000000,0.000000,-1,-1.381196,1.341996,-0.222630,1.285889,2.441706,-0.170562
"2019-05-05 23:04:42.377 +0000",1557097482.376637,2.099249,-1.519632,2.107946,0.044166,0.998691,0.025786,0.000000,0.000000,0.000000,-1,-2.461395,1.313151,-0.884045,1.370736,1.219586,0.247636
"2019-05-05 23:04:42.399 +0000",1557097482.398915,2.801498,-1.478882,2.834794,0.030617,0.995779,0.086528,0.000000,0.000000,0.000000,-1,-2.880500,-1.599518,-0.431624,0.640525,0.822672,0.283391
"2019-05-05 23:04:42.421 +0000",1557097482.421242,2.928207,-1.414093,3.002450,0.033049,0.987747,0.152523,0.000000,0.000000,0.000000,-1,-2.972721,-1.787121,0.055054,-0.041320,0.568741,-0.086544
"2019-05-05 23:04:42.444 +0000",1557097482.443531,2.922767,-1.357436,3.027742,0.045967,0.977325,0.206696,0.000000,0.000000,0.000000,-1,-2.275527,-1.391267,0.549295,-0.336692,0.299515,-0.149537
"2019-05-05 23:04:42.466 +0000",1557097482.465839,2.853272,-1.315697,2.999163,0.071751,0.967638,0.241926,0.000000,0.000000,0.000000,-1,-1.381829,-1.998850,0.799458,0.248836,-0.364321,-0.259519
"2019-05-05 23:04:42.488 +0000",1557097482.488122,2.774414,-1.300676,2.955434,0.095794,0.963739,0.249061,0.000000,0.000000,0.000000,-1,0.173404,-1.139020,0.616335,0.284608,-0.660775,-0.501334
"2019-05-05 23:04:42.510 +0000",1557097482.510455,2.692468,-1.315039,2.869083,0.109837,0.967472,0.227890,0.000000,0.000000,0.000000,-1,1.372997,0.716961,0.719466,0.326671,-1.215870,-0.364914
"2019-05-05 23:04:42.533 +0000",1557097482.532731,2.603693,-1.340923,2.746905,0.116737,0.973695,0.195678,0.000000,0.000000,0.000000,-1,1.725275,1.609440,0.521892,-0.022453,-1.360918,-0.094405
"2019-05-05 23:04:42.555 +0000",1557097482.555040,2.548287,-1.367735,2.643341,0.112754,0.979454,0.167203,0.000000,0.000000,0.000000,-1,1.329932,2.254515,0.050794,-0.881705,-1.037239,-0.130536
"2019-05-05 23:04:42.577 +0000",1557097482.577341,2.543208,-1.372860,2.596908,0.110772,0.980475,0.162478,0.000000,0.000000,0.000000,-1,-0.190274,1.582702,0.178920,-1.156198,-0.766531,-0.099337
"2019-05-05 23:04:42.600 +0000",1557097482.599657,2.644569,-1.360102,2.671653,0.099720,0.977886,0.183834,0.000000,0.000000,0.000000,-1,-0.972696,1.087339,-0.589875,-0.181858,-0.801464,0.354420
"2019-05-05 23:04:42.622 +0000",1557097482.621965,2.733853,-1.358779,2.751303,0.083444,0.977608,0.193182,0.000000,0.000000,0.000000,-1,-0.099951,0.746911,-0.601366,-0.269311,-0.980569,0.502863
"2019-05-05 23:04:42.644 +0000",1557097482.644264,2.866768,-1.356722,2.806402,0.057652,0.977173,0.204471,0.000000,0.000000,0.000000,-1,-0.529343,4.944476,-0.483743,-0.248189,-0.937241,-0.065967
"2019-05-05 23:04:42.667 +0000",1557097482.666549,3.047111,-1.362433,2.867228,0.019515,0.978371,0.205936,0.000000,0.000000,0.000000,-1,1.415830,4.715108,-0.523052,0.556840,-0.488121,-1.305546
"2019-05-05 23:04:42.689 +0000",1557097482.688857,3.009679,-1.432774,2.790143,0.018097,0.990490,0.136389,0.000000,0.000000,0.000000,-1,4.020370,0.552782,0.919304,1.304123,0.428669,-1.173148
"2019-05-05 23:04:42.711 +0000",1557097482.711166,2.144575,-1.484887,1.883433,0.072063,0.996312,0.046575,0.000000,0.000000,0.000000,-1,3.816433,3.080416,3.083853,1.679204,1.778804,-0.625387
"2019-05-05 23:04:42.733 +0000",1557097482.733474,1.312893,-1.438098,0.984227,0.127933,0.991209,-0.033746,0.000000,0.000000,0.000000,-1,4.060406,2.069520,2.177412,0.384549,1.204623,-0.457847
"2019-05-05 23:04:42.756 +0000",1557097482.755781,1.029578,-1.367385,0.673779,0.173140,0.979383,-0.104073,0.000000,0.000000,0.000000,-1,2.752194,0.345518,2.177268,-0.039458,0.781649,-0.295052
"2019-05-05 23:04:42.778 +0000",1557097482.778059,1.040488,-1.296744,0.698243,0.233464,0.962682,-0.136887,0.000000,0.000000,0.000000,-1,0.528795,-1.002353,3.155902,-0.020619,1.558360,-0.464538
"2019-05-05 23:04:42.800 +0000",1557097482.800366,1.095691,-1.237803,0.804640,0.290670,0.945068,-0.149522,0.000000,0.000000,0.000000,-1,0.471052,-2.757857,2.825349,-0.293432,1.779343,-0.475996
"2019-05-05 23:04:42.823 +0000",1557097482.822675,0.932379,-1.151816,0.688169,0.326700,0.913504,-0.242440,0.000000,0.000000,0.000000,-1,4.297759,-2.117137,1.719701,-0.394342,1.537469,0.616478
"2019-05-05 23:04:42.845 +0000",1557097482.844981,0.902972,-1.104349,0.633043,0.353104,0.893172,-0.278500,0.000000,0.000000,0.000000,-1,0.652135,3.152339,0.712426,-0.290451,1.107332,2.384274
"2019-05-05 23:04:42.867 +0000",1557097482.867289,0.926232,-1.087901,0.636001,0.371179,0.885654,-0.279002,0.000000,0.000000,0.000000,-1,0.356315,-1.848491,0.681017,-0.365274,0.542751,0.879939
"2019-05-05 23:04:42.890 +0000",1557097482.889599,0.867257,-1.065801,0.661064,0.368928,0.875177,-0.312982,0.000000,0.000000,0.000000,-1,0.208286,-3.259913,1.221953,-0.471848,-0.104272,0.798898
"2019-05-05 23:04:42.912 +0000",1557097482.911876,0.855723,-1.045689,0.676009,0.378508,0.865270,-0.328693,0.000000,0.000000,0.000000,-1,0.338952,0.113701,0.707011,-0.781661,-0.592153,0.555270
"2019-05-05 23:04:42.934 +0000",1557097482.934178,0.881241,-1.031958,0.684137,0.395902,0.858306,-0.326456,0.000000,0.000000,0.000000,-1,0.195864,0.883131,0.554976,-0.739011,-0.842864,0.509867
"2019-05-05 23:04:42.956 +0000",1557097482.956491,0.904704,-1.023132,0.702863,0.409392,0.853743,-0.321747,0.000000,0.000000,0.000000,-1,-0.321545,-0.106076,0.569738,-0.669799,-1.092070,0.570526
"2019-05-05 23:04:42.979 +0000",1557097482.978798,0.914289,-1.023779,0.736173,0.412019,0.854080,-0.317471,0.000000,0.000000,0.000000,-1,-0.721988,-1.239962,0.377424,-0.819444,-1.150329,0.393658
"2019-05-05 23:04:43.001 +0000",1557097483.001107,0.902636,-1.032207,0.770121,0.402627,0.858433,-0.317779,0.000000,0.000000,0.000000,-1,-1.039895,-1.995407,0.060212,-0.860421,-1.125004,0.237319
"2019-05-05 23:04:43.023 +0000",1557097483.023415,0.911551,-1.055863,0.816984,0.389280,0.870326,-0.301652,0.000000,0.000000,0.000000,-1,-1.692868,-0.795277,-0.316680,-0.832609,-1.087748,0.498551
"2019-05-05 23:04:43.046 +0000",1557097483.045693,0.969066,-1.088279,0.873676,0.382510,0.885830,-0.262662,0.000000,0.000000,0.000000,-1,-1.967453,0.545947,-0.513544,-0.364795,-0.416943,0.607328
"2019-05-05 23:04:43.068 +0000",1557097483.068002,1.030877,-1.129712,0.961636,0.366191,0.904289,-0.219465,0.000000,0.000000,0.000000,-1,-2.811526,-1.748211,-0.718079,-0.313014,-0.039147,0.011824
"2019-05-05 23:04:43.090 +0000",1557097483.090324,1.086615,-1.187137,1.088695,0.331291,0.927301,-0.174238,0.000000,0.000000,0.000000,-1,-3.347288,-2.868405,-1.491146,-0.280357,0.399618,-0.287447
"2019-05-05 23:04:43.113 +0000",1557097483.112617,1.174641,-1.262717,1.229579,0.279744,0.952918,-0.117008,0.000000,0.000000,0.000000,-1,-3.631008,-1.591364,-2.379666,-0.067143,0.818689,-0.016506
"2019-05-05 23:04:43.135 +0000",1557097483.134925,1.426790,-1.336181,1.535054,0.230063,0.972604,-0.033362,0.000000,0.000000,0.000000,-1,-4.743417,-2.352662,-1.895777,-0.047675,1.037238,-0.078714
"2019-05-05 23:04:43.157 +0000",1557097483.157216,1.804384,-1.354634,1.966731,0.208658,0.976728,0.049646,0.000000,0.000000,0.000000,-1,-3.338864,-0.822066,-0.384137,0.345221,2.052951,0.036764
"2019-05-05 23:04:43.180 +0000",1557097483.179508,2.012109,-1.356299,2.124281,0.192462,0.977084,0.090916,0.000000,0.000000,0.000000,-1,-0.512616,4.134903,-1.475184,1.109967,2.851285,0.019633
"2019-05-05 23:04:43.202 +0000",1557097483.201818,2.402885,-1.394166,2.471264,0.118314,0.984441,0.129912,0.000000,0.000000,0.000000,-1,-2.242196,0.136832,-3.531987,-0.112454,1.575892,0.243852
"2019-05-05 23:04:43.224 +0000",1557097483.224126,2.856458,-1.379985,2.952969,0.053347,0.981851,0.181998,0.000000,0.000000,0.000000,-1,-2.477249,-1.230859,-2.806637,-0.378573,0.707755,0.381708
"2019-05-05 23:04:43.246 +0000",1557097483.246429,3.059515,-1.331433,-3.055463,0.019437,0.971489,0.236285,0.000000,0.000000,0.000000,-1,-2.599267,-3.943284,-1.819952,-0.531309,0.324836,0.061185
"2019-05-05 23:04:43.269 +0000",1557097483.268742,3.083790,-1.276552,-2.923438,0.016754,0.957022,0.289532,0.000000,0.000000,0.000000,-1,-2.675071,-4.920024,-1.173676,-0.080444,-0.114294,-0.237729
"2019-05-05 23:04:43.291 +0000",1557097483.291018,3.006957,-1.214837,-2.849597,0.046777,0.937313,0.345336,0.000000,0.000000,0.000000,-1,-2.598942,-7.079150,-0.597475,0.025244,-0.229045,-0.741683
"2019-05-05 23:04:43.313 +0000",1557097483.313328,2.924751,-1.178030,-2.806624,0.082347,0.923854,0.373783,0.000000,0.000000,0.000000,-1,-1.330227,-4.503853,-0.263715,0.113637,-0.861979,-0.597797
"2019-05-05 23:04:43.336 +0000",1557097483.335637,2.867587,-1.162800,-2.794634,0.107362,0.917918,0.381969,0.000000,0.000000,0.000000,-1,-0.374094,-2.313743,0.062124,0.435836,-1.042750,-0.593120
"2019-05-05 23:04:43.358 +0000",1557097483.357944,2.820686,-1.159965,-2.803962,0.125972,0.916789,0.378983,0.000000,0.000000,0.000000,-1,-0.000318,-1.620287,0.248413,0.392552,-0.883739,-0.376343
"2019-05-05 23:04:43.380 +0000",1557097483.380251,2.752866,-1.151732,-2.814617,0.154221,0.913470,0.376548,0.000000,0.000000,0.000000,-1,-0.421327,-3.407481,0.352175,0.120605,-0.698306,-0.072638
"2019-05-05 23:04:43.403 +0000",1557097483.402559,2.650340,-1.140465,-2.820334,0.196793,0.908828,0.367838,0.000000,0.000000,0.000000,-1,-0.387156,-4.653706,0.328517,-0.393143,-0.485762,0.265569
"2019-05-05 23:04:43.425 +0000",1557097483.424835,2.567666,-1.117722,-2.817293,0.237659,0.899105,0.367597,0.000000,0.000000,0.000000,-1,-1.242277,-3.243711,0.483108,-1.217777,-0.273861,0.154620
"2019-05-05 23:04:43.447 +0000",1557097483.447145,2.496699,-1.086022,-2.790370,0.280124,0.884780,0.372418,0.000000,0.000000,0.000000,-1,-1.651955,-5.107039,0.302226,-1.191608,-0.342116,-0.622784
"2019-05-05 23:04:43.469 +0000",1557097483.469452,2.434529,-1.054184,-2.735111,0.320863,0.869498,0.375527,0.000000,0.000000,0.000000,-1,-2.167049,-4.511747,-0.304941,-0.647417,-0.372534,-1.196862
"2019-05-05 23:04:43.492 +0000",1557097483.491771,2.433455,-1.022667,-2.638170,0.338929,0.853501,0.395808,0.000000,0.000000,0.000000,-1,-2.138520,-3.612107,-0.842625,0.247543,0.591461,0.278783
"2019-05-05 23:04:43.514 +0000",1557097483.514068,2.411121,-1.010091,-2.578093,0.354817,0.846880,0.396104,0.000000,0.000000,0.000000,-1,-1.161747,-2.731859,-0.771867,-0.065724,1.246336,-0.613679
"2019-05-05 23:04:43.536 +0000",1557097483.536377,2.435202,-1.009036,-2.520111,0.345756,0.846319,0.405212,0.000000,0.000000,0.000000,-1,-0.980518,-0.270038,-1.038028,0.068535,0.859309,-1.244171
"2019-05-05 23:04:43.559 +0000",1557097483.558678,2.475969,-0.998672,-2.469168,0.334354,0.840753,0.425844,0.000000,0.000000,0.000000,-1,-1.066922,-0.715047,-0.312120,0.469724,0.367011,-0.405549
"2019-05-05 23:04:43.581 +0000",1557097483.580956,2.457735,-0.984739,-2.442924,0.349430,0.833128,0.428715,0.000000,0.000000,0.000000,-1,-0.835536,-1.985508,-0.262287,-0.351154,0.523119,-0.148930
"2019-05-05 23:04:43.603 +0000",1557097483.603260,2.451165,-0.982603,-2.402987,0.353371,0.831945,0.427781,0.000000,0.000000,0.000000,-1,-0.604810,-1.718626,-0.940652,-0.437676,0.115718,-0.174424
"2019-05-05 23:04:43.626 +0000",1557097483.625645,2.449890,-0.994463,-2.358576,0.347598,0.838467,0.419702,0.000000,0.000000,0.000000,-1,-0.045304,-1.522816,-1.264691,-0.050601,-0.152218,-0.267694
"2019-05-05 23:04:43.648 +0000",1557097483.647886,2.453444,-1.019490,-2.329629,0.332670,0.851841,0.404596,0.000000,0.000000,0.000000,-1,0.659267,-0.656215,-1.193927,0.089251,-0.132969,-0.278711
"2019-05-05 23:04:43.670 +0000",1557097483.670193,2.459186,-1.045314,-2.315114,0.316360,0.865082,0.389294,0.000000,0.000000,0.000000,-1,0.654528,-0.226949,-0.890086,0.175446,0.084854,-0.491162
"2019-05-05 23:04:43.692 +0000",1557097483.692472,2.457342,-1.068360,-2.305150,0.304392,0.876412,0.373159,0.000000,0.000000,0.000000,-1,0.651878,-0.484020,-0.881602,0.181127,0.437095,-0.308630
"2019-05-05 23:04:43.715 +0000",1557097483.714778,2.481962,-1.089683,-2.274046,0.283595,0.886480,0.365687,0.000000,0.000000,0.000000,-1,0.064060,0.187448,-1.186785,0.433110,1.039042,0.947759
"2019-05-05 23:04:43.737 +0000",1557097483.737087,2.523856,-1.099391,-2.237854,0.263033,0.890931,0.370210,0.000000,0.000000,0.000000,-1,0.007664,0.396378,-0.594444,0.496442,0.512756,0.166457
"2019-05-05 23:04:43.759 +0000",1557097483.759395,2.516735,-1.114442,-2.242619,0.257789,0.897665,0.357411,0.000000,0.000000,0.000000,-1,1.017187,-0.420973,-0.204670,-0.032737,-0.048025,-0.642170
"2019-05-05 23:04:43.782 +0000",1557097483.781703,2.481773,-1.140240,-2.275680,0.255841,0.908734,0.329770,0.000000,0.000000,0.000000,-1,1.275826,-0.053054,-0.206584,-0.732770,0.047107,-0.356824
"2019-05-05 23:04:43.804 +0000",1557097483.804010,2.450561,-1.161991,-2.302444,0.253348,0.917596,0.306320,0.000000,0.000000,0.000000,-1,0.978064,-0.670774,-0.221077,-0.707465,0.378882,0.027329
"2019-05-05 23:04:43.826 +0000",1557097483.826304,2.404131,-1.176687,-2.314338,0.258197,0.923339,0.284218,0.000000,0.000000,0.000000,-1,0.400895,-1.997614,-0.347247,-0.557360,0.531373,0.027748
"2019-05-05 23:04:43.849 +0000",1557097483.848596,2.363849,-1.191086,-2.303836,0.260076,0.928772,0.264088,0.000000,0.000000,0.000000,-1,0.454377,-2.370475,-0.703671,-0.294347,0.243698,-0.058812
"2019-05-05 23:04:43.871 +0000",1557097483.870903,2.298639,-1.214144,-2.313069,0.260671,0.937071,0.232268,0.000000,0.000000,0.000000,-1,1.010858,-2.541587,-0.477376,0.024622,-0.244475,-0.084304
"2019-05-05 23:04:43.893 +0000",1557097483.893215,2.200233,-1.229390,-2.358635,0.270649,0.942285,0.197101,0.000000,0.000000,0.000000,-1,0.868915,-2.516104,0.084302,0.076031,-0.181573,0.015241
"2019-05-05 23:04:43.915 +0000",1557097483.915495,2.110962,-1.234996,-2.395155,0.282609,0.944147,0.169468,0.000000,0.000000,0.000000,-1,0.448566,-2.415610,0.032368,-0.128770,0.152808,0.001156
"2019-05-05 23:04:43.938 +0000",1557097483.937797,2.044177,-1.239228,-2.409649,0.289729,0.945533,0.148407,0.000000,0.000000,0.000000,-1,0.158457,-2.315261,-0.071612,-0.128413,0.214105,0.140442
"2019-05-05 23:04:43.960 +0000",1557097483.960105,2.001065,-1.239845,-2.413205,0.295325,0.945734,0.135539,0.000000,0.000000,0.000000,-1,0.065433,-1.395974,0.031837,-0.134666,0.057379,0.184316
"2019-05-05 23:04:43.982 +0000",1557097483.982413,1.966664,-1.240221,-2.424915,0.299485,0.945856,0.125164,0.000000,0.000000,0.000000,-1,0.223873,-0.964032,0.055362,-0.203080,-0.069742,-0.100353
"2019-05-05 23:04:44.005 +0000",1557097484.004722,1.922824,-1.241580,-2.447223,0.303476,0.946296,0.111475,0.000000,0.000000,0.000000,-1,0.371869,-1.083232,0.071370,-0.381463,-0.054526,-0.258951
"2019-05-05 23:04:44.027 +0000",1557097484.027023,1.866041,-1.241678,-2.476988,0.309224,0.946328,0.094045,0.000000,0.000000,0.000000,-1,0.392125,-1.434643,0.176223,-0.533635,0.058311,-0.337545
"2019-05-05 23:04:44.049 +0000",1557097484.049312,1.811863,-1.237862,-2.491482,0.317368,0.945087,0.078024,0.000000,0.000000,0.000000,-1,-0.022060,-2.038671,0.216142,-0.593842,0.226483,-0.305685
"2019-05-05 23:04:44.072 +0000",1557097484.071614,1.766703,-1.233601,-2.484865,0.324513,0.943686,0.064400,0.000000,0.000000,0.000000,-1,-0.100167,-2.409059,0.195826,-0.450612,0.295297,-0.129616
"2019-05-05 23:04:44.094 +0000",1557097484.093923,1.707390,-1.226412,-2.490022,0.334473,0.941283,0.045973,0.000000,0.000000,0.000000,-1,0.066167,-2.462361,0.391136,-0.281082,0.187104,0.090456
"2019-05-05 23:04:44.116 +0000",1557097484.116222,1.651187,-1.217391,-2.493312,0.344977,0.938200,0.027793,0.000000,0.000000,0.000000,-1,-0.039072,-2.361479,0.405082,-0.267935,0.115938,-0.007377
"2019-05-05 23:04:44.139 +0000",1557097484.138538,1.594808,-1.206543,-2.490443,0.356148,0.934390,0.008553,0.000000,0.000000,0.000000,-1,-0.097693,-2.836949,0.566826,-0.243188,0.051892,-0.054131
"2019-05-05 23:04:44.161 +0000",1557097484.160846,1.543254,-1.190432,-2.473689,0.371118,0.928529,-0.010224,0.000000,0.000000,0.000000,-1,-0.395478,-3.060108,0.788255,-0.246103,0.155486,0.077195
"2019-05-05 23:04:44.183 +0000",1557097484.183155,1.510029,-1.173465,-2.435190,0.386245,0.922097,-0.023500,0.000000,0.000000,0.000000,-1,-0.771794,-3.147563,0.800035,-0.286880,0.264259,0.145357
"2019-05-05 23:04:44.205 +0000",1557097484.205432,1.493384,-1.159497,-2.376659,0.398603,0.916602,-0.030919,0.000000,0.000000,0.000000,-1,-1.067339,-3.115227,0.604856,-0.277433,0.303964,0.297948
"2019-05-05 23:04:44.228 +0000",1557097484.227740,1.490722,-1.150166,-2.310420,0.407028,0.912832,-0.032662,0.000000,0.000000,0.000000,-1,-1.265718,-2.616374,0.473808,-0.115600,0.065135,0.498391
"2019-05-05 23:04:44.250 +0000",1557097484.250047,1.516720,-1.144793,-2.227564,0.412630,0.910625,-0.022335,0.000000,0.000000,0.000000,-1,-1.695171,-1.986337,0.253418,-0.070604,-0.147472,0.505062
"2019-05-05 23:04:44.272 +0000",1557097484.272338,1.589466,-1.143223,-2.109473,0.414591,0.909975,0.007741,0.000000,0.000000,0.000000,-1,-2.497171,-1.319583,0.025099,-0.171031,-0.235582,0.444667
"2019-05-05 23:04:44.295 +0000",1557097484.294664,1.701284,-1.142721,-1.955412,0.411591,0.909766,0.054014,0.000000,0.000000,0.000000,-1,-2.984118,-1.369168,-0.338148,-0.427949,-0.205055,0.080766
"2019-05-05 23:04:44.317 +0000",1557097484.316972,1.811384,-1.145281,-1.796945,0.400901,0.910826,0.098357,0.000000,0.000000,0.000000,-1,-2.742997,-1.485480,-0.854292,-0.532920,-0.014784,-0.152877
"2019-05-05 23:04:44.339 +0000",1557097484.339260,1.924358,-1.155188,-1.653627,0.378773,0.914871,0.139794,0.000000,0.000000,0.000000,-1,-2.123522,-0.319909,-1.400286,-0.563587,0.168534,-0.286141
"2019-05-05 23:04:44.362 +0000",1557097484.361558,2.051673,-1.178957,-1.528817,0.338579,0.924208,0.176645,0.000000,0.000000,0.000000,-1,-1.262527,1.066510,-2.123054,-0.443483,0.389894,-0.434748
"2019-05-05 23:04:44.384 +0000",1557097484.383856,2.206745,-1.213904,-1.409390,0.281066,0.936987,0.207502,0.000000,0.000000,0.000000,-1,-0.570534,2.386748,-2.444612,-0.085342,0.498270,-0.386243
"2019-05-05 23:04:44.406 +0000",1557097484.406163,2.372517,-1.250633,-1.284375,0.218880,0.949184,0.226145,0.000000,0.000000,0.000000,-1,-0.465965,1.697598,-2.524047,0.245735,0.661931,-0.305567
"2019-05-05 23:04:44.428 +0000",1557097484.428462,2.583625,-1.262108,-1.056814,0.160856,0.952733,0.257732,0.000000,0.000000,0.000000,-1,-1.798784,-1.032721,-2.852696,0.550722,1.048458,0.024098
"2019-05-05 23:04:44.451 +0000",1557097484.450780,2.792749,-1.255016,-0.812001,0.106152,0.950554,0.291853,0.000000,0.000000,0.000000,-1,-1.670872,-1.175302,-2.836489,0.330295,0.748039,0.259112
"2019-05-05 23:04:44.473 +0000",1557097484.473056,2.943329,-1.240986,-0.624377,0.063790,0.946104,0.317519,0.000000,0.000000,0.000000,-1,-1.160202,-1.215595,-2.177185,0.116736,0.506930,0.031450
"2019-05-05 23:04:44.495 +0000",1557097484.495364,3.038549,-1.220601,-0.477928,0.035290,0.939306,0.341262,0.000000,0.000000,0.000000,-1,-1.265601,-2.489285,-1.971159,-0.172436,0.380320,-0.206496
"2019-05-05 23:04:44.518 +0000",1557097484.517673,3.086536,-1.197441,-0.352512,0.020071,0.931109,0.364189,0.000000,0.000000,0.000000,-1,-1.084966,-3.425970,-1.811421,-0.243643,0.289610,-0.379921
"2019-05-05 23:04:44.540 +0000",1557097484.539981,3.080951,-1.183608,-0.265495,0.022884,0.925974,0.376892,0.000000,0.000000,0.000000,-1,-0.562371,-4.222897,-1.176409,0.113042,0.049840,-0.340301
"2019-05-05 23:04:44.562 +0000",1557097484.562277,3.026389,-1.179508,-0.209025,0.043839,0.924418,0.378852,0.000000,0.000000,0.000000,-1,-0.104952,-4.991489,-0.841888,0.193389,-0.323863,-0.337653
"2019-05-05 23:04:44.585 +0000",1557097484.584565,2.978584,-1.196514,-0.166484,0.059333,0.930770,0.360758,0.000000,0.000000,0.000000,-1,1.268810,-2.636492,-0.868407,0.083840,-0.840713,-0.380076
"2019-05-05 23:04:44.607 +0000",1557097484.606872,2.998044,-1.245862,-0.139441,0.045670,0.947672,0.315963,0.000000,0.000000,0.000000,-1,2.520321,0.720978,-0.590020,0.214996,-1.327722,-0.499527
"2019-05-05 23:04:44.629 +0000",1557097484.629182,2.998053,-1.307652,-0.163476,0.037209,0.965577,0.257443,0.000000,0.000000,0.000000,-1,2.847628,1.014735,0.264727,0.284675,-1.055939,-0.397809
"2019-05-05 23:04:44.651 +0000",1557097484.651488,2.922504,-1.363624,-0.257262,0.044705,0.978617,0.200776,0.000000,0.000000,0.000000,-1,2.356299,0.455524,0.450599,0.142535,-0.763635,-0.198808
"2019-05-05 23:04:44.674 +0000",1557097484.673798,2.944612,-1.389636,-0.240996,0.035261,0.983635,0.176687,0.000000,0.000000,0.000000,-1,0.084222,0.381767,-0.879579,-0.422621,-0.565514,0.524729
"2019-05-05 23:04:44.696 +0000",1557097484.696106,3.077665,-1.378617,-0.130725,0.012202,0.981590,0.190608,0.000000,0.000000,0.000000,-1,-0.384695,0.969358,-0.619520,-0.256007,-0.739235,0.659840
"2019-05-05 23:04:44.718 +0000",1557097484.718383,3.080099,-1.385828,-0.128735,0.011302,0.982942,0.183568,0.000000,0.000000,0.000000,-1,0.656430,-0.010066,0.164958,0.266148,-0.706941,-0.183202
"2019-05-05 23:04:44.741 +0000",1557097484.740690,3.028511,-1.422079,-0.189957,0.016720,0.988962,0.147224,0.000000,0.000000,0.000000,-1,2.444080,0.380549,0.457505,0.503712,-0.359155,-0.964775
"2019-05-05 23:04:44.763 +0000",1557097484.762999,2.755256,-1.469030,-0.478402,0.038279,0.994826,0.094103,0.000000,0.000000,0.000000,-1,2.076046,1.216937,1.422507,0.938665,0.517854,-0.791048
"2019-05-05 23:04:44.785 +0000",1557097484.785285,2.217609,-1.474506,-1.052093,0.076722,0.995368,0.057940,0.000000,0.000000,0.000000,-1,1.196251,0.249818,1.462969,1.653380,2.327066,-0.305849
"2019-05-05 23:04:44.808 +0000",1557097484.807614,2.140921,-1.463408,-1.095932,0.090230,0.994239,0.057851,0.000000,0.000000,0.000000,-1,-0.456365,-2.184220,0.483991,0.635920,1.328316,1.607295
"2019-05-05 23:04:44.830 +0000",1557097484.829922,1.930465,-1.456203,-1.289449,0.107026,0.993441,0.040244,0.000000,0.000000,0.000000,-1,1.862672,0.112839,0.959570,0.125930,-0.803836,-0.891090
"2019-05-05 23:04:44.852 +0000",1557097484.852208,1.383370,-1.428693,-1.884915,0.139145,0.989920,-0.026389,0.000000,0.000000,0.000000,-1,3.727381,3.140891,1.557482,0.344681,-0.311667,-0.989541
"2019-05-05 23:04:44.875 +0000",1557097484.874508,1.103958,-1.368090,-2.229713,0.179779,0.979525,-0.090608,0.000000,0.000000,0.000000,-1,2.875700,1.678844,1.808279,0.371948,0.497022,-1.136748
"2019-05-05 23:04:44.897 +0000",1557097484.896816,1.046877,-1.313287,-2.287261,0.220512,0.967027,-0.127407,0.000000,0.000000,0.000000,-1,0.946810,-0.984438,2.020897,0.224434,1.872298,-0.557880
"2019-05-05 23:04:44.919 +0000",1557097484.919124,0.993406,-1.224686,-2.310200,0.284247,0.940699,-0.185171,0.000000,0.000000,0.000000,-1,4.266246,-0.600542,3.909496,0.016107,1.831548,0.516623
"2019-05-05 23:04:44.941 +0000",1557097484.941432,0.983867,-1.143409,-2.404506,0.345127,0.910052,-0.229550,0.000000,0.000000,0.000000,-1,1.943372,5.083522,0.534636,-0.782963,1.466886,1.892728
"2019-05-05 23:04:44.964 +0000",1557097484.963741,1.041174,-1.144034,-2.411641,0.357218,0.910311,-0.209118,0.000000,0.000000,0.000000,-1,-0.098512,0.563849,0.418813,-0.599329,0.159834,0.347729
"2019-05-05 23:04:44.986 +0000",1557097484.986018,0.977535,-1.112812,-2.399372,0.366589,0.896945,-0.247187,0.000000,0.000000,0.000000,-1,0.595618,-5.001935,1.472114,-0.732891,0.118054,-0.000539
"2019-05-05 23:04:45.008 +0000",1557097485.008311,0.917047,-1.094493,-2.367177,0.363959,0.888696,-0.278842,0.000000,0.000000,0.000000,-1,-0.359881,-2.626884,0.841516,-0.875708,-0.133905,0.749988
"2019-05-05 23:04:45.031 +0000",1557097485.030634,0.909479,-1.089996,-2.349100,0.364989,0.886625,-0.284041,0.000000,0.000000,0.000000,-1,0.029797,-0.532254,0.077525,-0.819884,-0.466963,0.789824
"2019-05-05 23:04:45.053 +0000",1557097485.052942,0.901138,-1.096515,-2.351405,0.358068,0.889621,-0.283481,0.000000,0.000000,0.000000,-1,-0.413391,-0.047185,-0.410782,-0.616125,-0.838306,0.857899
"2019-05-05 23:04:45.075 +0000",1557097485.075249,0.926339,-1.121498,-2.332609,0.347217,0.900752,-0.260932,0.000000,0.000000,0.000000,-1,-1.281408,0.524131,-0.816919,-0.543339,-0.917491,0.800086
"2019-05-05 23:04:45.098 +0000",1557097485.097526,0.970260,-1.160900,-2.295380,0.328787,0.917162,-0.225194,0.000000,0.000000,0.000000,-1,-1.748066,0.337074,-1.103264,-0.568396,-0.879809,0.422887
"2019-05-05 23:04:45.120 +0000",1557097485.119834,1.021015,-1.202377,-2.243441,0.307070,0.932898,-0.188174,0.000000,0.000000,0.000000,-1,-1.670337,0.056776,-1.066008,-0.308551,-0.803931,0.249545
"2019-05-05 23:04:45.142 +0000",1557097485.142143,1.114819,-1.245918,-2.151829,0.286582,0.947690,-0.140554,0.000000,0.000000,0.000000,-1,-2.788847,0.593880,-1.066293,0.025567,-0.458829,0.579137
"2019-05-05 23:04:45.164 +0000",1557097485.164452,1.317310,-1.308876,-1.929371,0.250661,0.965895,-0.064936,0.000000,0.000000,0.000000,-1,-3.926714,-1.433810,-1.999035,0.085688,0.291796,0.215418
"2019-05-05 23:04:45.187 +0000",1557097485.186758,1.611347,-1.366656,-1.583102,0.202559,0.979236,0.008218,0.000000,0.000000,0.000000,-1,-3.731971,-1.900540,-2.149876,0.211397,0.888043,-0.414896
"2019-05-05 23:04:45.209 +0000",1557097485.209066,2.018552,-1.392013,-1.130870,0.160302,0.984061,0.076992,0.000000,0.000000,0.000000,-1,-3.182209,-1.553331,-1.812814,0.373801,1.359003,-0.317180
"2019-05-05 23:04:45.231 +0000",1557097485.231367,2.267016,-1.377016,-0.855294,0.147753,0.981283,0.123499,0.000000,0.000000,0.000000,-1,-1.707222,-0.460217,0.127004,0.823270,1.769602,-0.373240
"2019-05-05 23:04:45.254 +0000",1557097485.253662,2.373326,-1.348440,-0.760427,0.153243,0.975380,0.158586,0.000000,0.000000,0.000000,-1,-1.720369,1.468025,-0.037743,0.906571,1.160697,-0.063844
"2019-05-05 23:04:45.276 +0000",1557097485.275960,2.625144,-1.320465,-0.539376,0.122325,0.968830,0.215416,0.000000,0.000000,0.000000,-1,-2.625014,0.373476,-1.456277,0.399983,1.277920,-0.048958
"2019-05-05 23:04:45.298 +0000",1557097485.298249,2.829462,-1.281259,-0.307807,0.087676,0.958376,0.271713,0.000000,0.000000,0.000000,-1,-3.027268,-1.353447,-1.993160,-0.242141,1.178724,-0.144867
"2019-05-05 23:04:45.321 +0000",1557097485.320576,2.922291,-1.215756,-0.149757,0.075626,0.937632,0.339302,0.000000,0.000000,0.000000,-1,-3.298465,-3.076244,-0.835431,-0.553455,0.844960,-0.464714
"2019-05-05 23:04:45.343 +0000",1557097485.342883,2.906338,-1.160956,-0.096016,0.092878,0.917184,0.387488,0.000000,0.000000,0.000000,-1,-2.247887,-2.856404,-0.087646,-0.204969,-0.207086,-0.477026
"2019-05-05 23:04:45.365 +0000",1557097485.365160,2.844169,-1.118589,-0.083792,0.128052,0.899485,0.417768,0.000000,0.000000,0.000000,-1,-1.586270,-3.395308,0.452095,0.030502,-0.573343,-0.577481
"2019-05-05 23:04:45.387 +0000",1557097485.387469,2.781588,-1.102510,-0.094208,0.159004,0.892343,0.422424,0.000000,0.000000,0.000000,-1,0.020152,-1.586661,0.358574,0.125664,-0.841684,-0.520370
"2019-05-05 23:04:45.410 +0000",1557097485.409777,2.742870,-1.118893,-0.127021,0.169537,0.899618,0.402424,0.000000,0.000000,0.000000,-1,1.404879,0.254164,0.339105,0.168522,-1.269445,-0.650502
"2019-05-05 23:04:45.432 +0000",1557097485.432085,2.706039,-1.158065,-0.188055,0.169235,0.916029,0.363663,0.000000,0.000000,0.000000,-1,2.292318,0.997654,0.365140,0.062028,-1.430006,-0.653611
"2019-05-05 23:04:45.454 +0000",1557097485.454385,2.638703,-1.199592,-0.278659,0.174825,0.931891,0.317829,0.000000,0.000000,0.000000,-1,2.388368,0.618505,0.605490,-0.063009,-1.309806,-0.545184
"2019-05-05 23:04:45.477 +0000",1557097485.476701,2.583559,-1.234387,-0.358831,0.174794,0.943946,0.280023,0.000000,0.000000,0.000000,-1,1.438325,1.426585,0.038426,-0.456731,-1.040946,-0.443414
"2019-05-05 23:04:45.499 +0000",1557097485.498978,2.727393,-1.227820,-0.289625,0.135343,0.941758,0.307854,0.000000,0.000000,0.000000,-1,-1.849118,4.792718,-1.402117,-1.113752,-0.178025,1.620933
"2019-05-05 23:04:45.521 +0000",1557097485.521298,2.835264,-1.210171,-0.205697,0.106408,0.935676,0.336433,0.000000,0.000000,0.000000,-1,-0.908777,-0.182530,-0.360156,-0.389901,0.118859,1.238412
"2019-05-05 23:04:45.544 +0000",1557097485.543594,2.898195,-1.189221,-0.166400,0.089745,0.928079,0.361407,0.000000,0.000000,0.000000,-1,-0.981161,1.628630,-0.574750,0.268226,-0.455285,-1.291080
"2019-05-05 23:04:45.566 +0000",1557097485.565884,2.918971,-1.212916,-0.181717,0.077340,0.936641,0.341646,0.000000,0.000000,0.000000,-1,2.534005,1.648853,0.772563,0.865348,-0.110729,-1.961366
"2019-05-05 23:04:45.588 +0000",1557097485.588210,2.780438,-1.267461,-0.382089,0.105549,0.954345,0.279435,0.000000,0.000000,0.000000,-1,3.140898,2.686237,2.392445,1.604519,1.063172,-1.471116
"2019-05-05 23:04:45.610 +0000",1557097485.610488,2.541003,-1.315537,-0.660611,0.142693,0.967598,0.208310,0.000000,0.000000,0.000000,-1,3.705786,0.025452,2.023054,0.831855,0.710594,-1.178327
"2019-05-05 23:04:45.633 +0000",1557097485.632795,2.151016,-1.343407,-1.029319,0.188541,0.974258,0.123585,0.000000,0.000000,0.000000,-1,3.354244,-2.164406,1.696231,0.268002,0.692154,-0.594990
"2019-05-05 23:04:45.655 +0000",1557097485.655103,1.816963,-1.332726,-1.295140,0.228719,0.971795,0.057468,0.000000,0.000000,0.000000,-1,1.748645,-3.999278,1.688261,0.061809,1.675437,-0.725361
"2019-05-05 23:04:45.677 +0000",1557097485.677393,1.509631,-1.275299,-1.526704,0.290671,0.956657,-0.017801,0.000000,0.000000,0.000000,-1,4.686419,-2.777487,3.659817,-0.158255,2.009987,-0.398092
"2019-05-05 23:04:45.700 +0000",1557097485.699719,1.289975,-1.193586,-1.810535,0.353900,0.929696,-0.102080,0.000000,0.000000,0.000000,-1,3.164161,3.997516,1.416915,-0.928073,1.971046,1.501235
"2019-05-05 23:04:45.722 +0000",1557097485.722027,1.255381,-1.181974,-1.924937,0.360397,0.925356,-0.117601,0.000000,0.000000,0.000000,-1,1.816166,1.549992,-0.220540,-0.547043,0.894316,1.424608
"2019-05-05 23:04:45.744 +0000",1557097485.744295,1.177545,-1.164433,-1.963812,0.365100,0.918564,-0.151465,0.000000,0.000000,0.000000,-1,0.599957,-2.976577,0.972823,0.052396,0.567291,0.799705
"2019-05-05 23:04:45.767 +0000",1557097485.766613,1.118322,-1.136356,-1.981016,0.378546,0.907106,-0.184015,0.000000,0.000000,0.000000,-1,0.774809,-1.135684,0.785362,-0.285742,0.016676,0.386789
"2019-05-05 23:04:45.789 +0000",1557097485.788920,1.110712,-1.119958,-1.987175,0.390412,0.900082,-0.193470,0.000000,0.000000,0.000000,-1,0.278279,0.125608,0.620126,-0.680909,-0.657437,0.657948
"2019-05-05 23:04:45.811 +0000",1557097485.811229,1.107951,-1.109530,-1.980221,0.398254,0.895489,-0.198727,0.000000,0.000000,0.000000,-1,-0.104478,-0.636886,0.395990,-0.844467,-0.941724,0.665341
"2019-05-05 23:04:45.834 +0000",1557097485.833536,1.114144,-1.110740,-1.954211,0.398504,0.896027,-0.195780,0.000000,0.000000,0.000000,-1,-0.688197,-0.796103,0.005142,-0.991003,-0.931565,0.688501
"2019-05-05 23:04:45.856 +0000",1557097485.855845,1.130517,-1.126224,-1.912803,0.389057,0.902795,-0.183293,0.000000,0.000000,0.000000,-1,-1.258333,-1.128855,-0.408970,-0.842319,-0.817681,0.270986
"2019-05-05 23:04:45.878 +0000",1557097485.878122,1.159034,-1.154232,-1.857028,0.370802,0.914485,-0.161939,0.000000,0.000000,0.000000,-1,-1.543525,-0.615494,-0.914827,-0.721006,-0.908625,0.431135
"2019-05-05 23:04:45.900 +0000",1557097485.900446,1.229092,-1.197129,-1.781416,0.343928,0.930995,-0.122320,0.000000,0.000000,0.000000,-1,-2.275414,0.236839,-1.514445,-0.204783,-0.601283,0.493002
"2019-05-05 23:04:45.923 +0000",1557097485.922738,1.365001,-1.251777,-1.637118,0.307017,0.949543,-0.064090,0.000000,0.000000,0.000000,-1,-2.908320,-0.263183,-1.913453,0.278386,0.182765,0.143939
"2019-05-05 23:04:45.945 +0000",1557097485.945046,1.547201,-1.306275,-1.433339,0.261374,0.965218,-0.006168,0.000000,0.000000,0.000000,-1,-2.932182,-0.628299,-2.167014,0.391168,0.719078,-0.154873
"2019-05-05 23:04:45.967 +0000",1557097485.967351,1.843399,-1.340262,-1.116599,0.220061,0.973544,0.061521,0.000000,0.000000,0.000000,-1,-3.437326,-0.543390,-1.785898,0.405428,1.276715,-0.202954
"2019-05-05 23:04:45.990 +0000",1557097485.989661,2.164200,-1.334838,-0.764395,0.193809,0.972291,0.130724,0.000000,0.000000,0.000000,-1,-3.224187,-1.078289,-0.797309,0.598214,2.040618,-0.273408
"2019-05-05 23:04:46.012 +0000",1557097486.011939,2.296959,-1.299713,-0.624709,0.200223,0.963481,0.177804,0.000000,0.000000,0.000000,-1,-1.500008,0.662443,0.622043,1.093066,1.480748,-0.428995
"2019-05-05 23:04:46.034 +0000",1557097486.034247,2.414070,-1.273977,-0.495795,0.194506,0.956272,0.218431,0.000000,0.000000,0.000000,-1,-2.117841,-1.809235,-0.978909,0.427046,1.273892,-0.638918
"2019-05-05 23:04:46.057 +0000",1557097486.056550,2.568827,-1.263467,-0.323002,0.163950,0.953145,0.254234,0.000000,0.000000,0.000000,-1,-1.805660,-0.112692,-1.609143,-0.323038,0.921931,0.148552
"2019-05-05 23:04:46.079 +0000",1557097486.078864,2.686793,-1.230465,-0.170752,0.146632,0.942644,0.299868,0.000000,0.000000,0.000000,-1,-2.530539,-2.077426,-0.938249,-0.466441,0.389082,-0.397921
"2019-05-05 23:04:46.101 +0000",1557097486.101146,2.714539,-1.192747,-0.080095,0.152881,0.929386,0.335959,0.000000,0.000000,0.000000,-1,-1.900818,-2.415279,-0.256404,-0.339450,0.008205,-0.449423
"2019-05-05 23:04:46.123 +0000",1557097486.123449,2.690541,-1.162136,-0.051571,0.173223,0.917654,0.357638,0.000000,0.000000,0.000000,-1,-1.074388,-1.952949,0.236062,-0.024266,-0.471350,-0.547701
"2019-05-05 23:04:46.146 +0000",1557097486.145757,2.667105,-1.152860,-0.054686,0.185437,0.913929,0.361037,0.000000,0.000000,0.000000,-1,0.112023,-0.295506,0.215656,0.314822,-1.056751,-0.550505
"2019-05-05 23:04:46.168 +0000",1557097486.168063,2.639301,-1.166454,-0.086906,0.189404,0.919361,0.344820,0.000000,0.000000,0.000000,-1,1.245087,0.129470,0.239660,0.232700,-1.477604,-0.828951
"2019-05-05 23:04:46.190 +0000",1557097486.190373,2.588615,-1.197613,-0.155379,0.191487,0.931171,0.310246,0.000000,0.000000,0.000000,-1,1.960930,0.892794,0.323751,0.120098,-1.736896,-0.753453
"2019-05-05 23:04:46.213 +0000",1557097486.212853,2.538718,-1.230151,-0.231206,0.189436,0.942539,0.275197,0.000000,0.000000,0.000000,-1,1.812125,0.834202,0.139367,-0.128080,-1.570027,-0.694051
"2019-05-05 23:04:46.235 +0000",1557097486.234988,2.496794,-1.260898,-0.299241,0.183293,0.952365,0.243732,0.000000,0.000000,0.000000,-1,1.459898,1.435481,-0.209751,-0.768453,-0.744006,-0.134738
"2019-05-05 23:04:46.257 +0000",1557097486.257266,2.647345,-1.269446,-0.217063,0.140798,0.954936,0.261290,0.000000,0.000000,0.000000,-1,-1.697503,3.835047,-1.895969,-1.240193,-0.094692,1.361147
"2019-05-05 23:04:46.280 +0000",1557097486.279574,2.786316,-1.255247,-0.046855,0.107951,0.950626,0.290958,0.000000,0.000000,0.000000,-1,-1.318354,-3.052479,-1.270223,-0.659739,0.501309,1.579266
"2019-05-05 23:04:46.302 +0000",1557097486.301881,2.874948,-1.208660,0.041462,0.093350,0.935142,0.341753,0.000000,0.000000,0.000000,-1,-2.569056,2.359532,-0.671237,0.066685,-0.074318,-1.929247
"2019-05-05 23:04:46.324 +0000",1557097486.324190,2.980220,-1.201510,0.058034,0.057995,0.932585,0.356261,0.000000,0.000000,0.000000,-1,1.319550,4.379750,0.259036,0.957737,0.324388,-2.379668
"2019-05-05 23:04:46.346 +0000",1557097486.346492,3.016195,-1.262193,0.017559,0.037987,0.952759,0.301343,0.000000,0.000000,0.000000,-1,3.289545,2.488091,0.126566,1.632270,1.287155,-1.728788
"2019-05-05 23:04:46.369 +0000",1557097486.368805,2.875464,-1.341341,-0.137691,0.059818,0.973790,0.219441,0.000000,0.000000,0.000000,-1,4.073533,-0.789190,1.913839,0.845150,-0.205190,-0.676685
"2019-05-05 23:04:46.391 +0000",1557097486.391083,2.349697,-1.389971,-0.641344,0.127991,0.983696,0.126339,0.000000,0.000000,0.000000,-1,4.052175,-1.531928,3.261448,0.674331,0.308388,-0.353267
"2019-05-05 23:04:46.413 +0000",1557097486.413393,1.798145,-1.364934,-1.183115,0.199152,0.978885,0.046073,0.000000,0.000000,0.000000,-1,3.178200,-0.383748,2.835300,0.581045,0.935010,-0.305656
"2019-05-05 23:04:46.436 +0000",1557097486.435699,1.537250,-1.333114,-1.429375,0.235318,0.971886,-0.007897,0.000000,0.000000,0.000000,-1,1.557087,-1.428380,1.042613,0.263583,1.677421,-0.735847
"2019-05-05 23:04:46.458 +0000",1557097486.458006,1.377363,-1.292598,-1.555204,0.269502,0.961552,-0.052791,0.000000,0.000000,0.000000,-1,3.268707,-1.589442,2.470158,0.319335,1.808895,-0.133061
"2019-05-05 23:04:46.480 +0000",1557097486.480314,1.192001,-1.213131,-1.774624,0.325271,0.936717,-0.129463,0.000000,0.000000,0.000000,-1,2.322513,3.206673,1.868935,-0.396820,1.659398,2.271080
"2019-05-05 23:04:46.503 +0000",1557097486.502603,1.228543,-1.190048,-1.802603,0.350062,0.928387,-0.124718,0.000000,0.000000,0.000000,-1,1.103662,0.574707,0.556954,-0.779323,0.800251,1.075829
"2019-05-05 23:04:46.525 +0000",1557097486.524900,1.125174,-1.156625,-1.833628,0.363131,0.915450,-0.173456,0.000000,0.000000,0.000000,-1,0.813276,-4.267264,1.524014,-0.734393,-0.062316,0.731424
"2019-05-05 23:04:46.547 +0000",1557097486.547208,1.074124,-1.132037,-1.840527,0.373487,0.905280,-0.202426,0.000000,0.000000,0.000000,-1,0.534294,-0.391667,0.437513,-1.096937,-0.267981,0.914020
"2019-05-05 23:04:46.570 +0000",1557097486.569514,1.071343,-1.127134,-1.867903,0.376815,0.903186,-0.205588,0.000000,0.000000,0.000000,-1,0.449764,1.340041,-0.281282,-0.944411,-0.775927,0.717337
"2019-05-05 23:04:46.592 +0000",1557097486.591825,1.100200,-1.146669,-1.852108,0.366792,0.911398,-0.186593,0.000000,0.000000,0.000000,-1,-1.387129,0.084902,-0.815524,-0.755647,-1.243460,0.549249
"2019-05-05 23:04:46.614 +0000",1557097486.614132,1.139321,-1.182431,-1.796584,0.343970,0.925529,-0.158367,0.000000,0.000000,0.000000,-1,-1.393735,-0.687413,-1.075388,-0.786750,-1.182930,0.036754
"2019-05-05 23:04:46.636 +0000",1557097486.636425,1.167978,-1.206906,-1.769327,0.327425,0.934519,-0.139522,0.000000,0.000000,0.000000,-1,-0.652391,0.790529,-0.702381,-0.642748,-1.150645,0.491039
"2019-05-05 23:04:46.659 +0000",1557097486.658712,1.232047,-1.233854,-1.727121,0.311815,0.943770,-0.109862,0.000000,0.000000,0.000000,-1,-1.475366,0.842968,-1.049310,-0.282319,-0.693556,0.606688
"2019-05-05 23:04:46.681 +0000",1557097486.681025,1.357315,-1.276006,-1.578004,0.283944,0.956863,-0.061555,0.000000,0.000000,0.000000,-1,-2.989900,-1.733602,-1.363274,-0.032083,-0.269332,0.141297
"2019-05-05 23:04:46.703 +0000",1557097486.703332,1.537352,-1.321174,-1.337830,0.246900,0.969006,-0.008260,0.000000,0.000000,0.000000,-1,-3.132566,-2.285248,-1.805033,-0.086377,0.176883,-0.188242
"2019-05-05 23:04:46.726 +0000",1557097486.725639,1.839120,-1.355879,-0.996190,0.205635,0.976994,0.056540,0.000000,0.000000,0.000000,-1,-3.451957,-0.676941,-1.960868,0.070778,0.738567,-0.300910
"2019-05-05 23:04:46.748 +0000",1557097486.747949,2.233618,-1.361732,-0.589648,0.163599,0.978226,0.127711,0.000000,0.000000,0.000000,-1,-2.817456,-0.220811,-1.778564,0.496908,2.122467,-0.330882
"2019-05-05 23:04:46.770 +0000",1557097486.770226,2.371963,-1.352536,-0.450824,0.150678,0.976276,0.155506,0.000000,0.000000,0.000000,-1,-0.535607,0.913555,-0.075710,1.397189,2.721280,-0.500751
"2019-05-05 23:04:46.793 +0000",1557097486.792535,2.583480,-1.338496,-0.284323,0.121919,0.973139,0.195282,0.000000,0.000000,0.000000,-1,-2.667848,1.276849,-1.331554,1.250380,1.405034,0.474151
"2019-05-05 23:04:46.815 +0000",1557097486.814842,2.715112,-1.300155,-0.106197,0.110594,0.963600,0.243402,0.000000,0.000000,0.000000,-1,-2.195219,-2.059672,-0.834050,0.432344,0.845070,0.010199
"2019-05-05 23:04:46.837 +0000",1557097486.837151,2.792543,-1.261434,-0.004584,0.104124,0.952528,0.286092,0.000000,0.000000,0.000000,-1,-2.003715,-0.200088,-0.324486,0.089525,0.494341,-0.150625
"2019-05-05 23:04:46.859 +0000",1557097486.859441,2.818462,-1.221658,0.036859,0.108626,0.939668,0.324384,0.000000,0.000000,0.000000,-1,-1.676220,-1.329665,0.200506,-0.069563,0.109542,-0.390637
"2019-05-05 23:04:46.882 +0000",1557097486.881766,2.793138,-1.194023,0.039305,0.125625,0.929857,0.345810,0.000000,0.000000,0.000000,-1,-0.951505,-1.275590,0.426115,-0.102218,-0.198457,-0.404999
"2019-05-05 23:04:46.904 +0000",1557097486.904043,2.753457,-1.187956,0.024724,0.141377,0.927607,0.345770,0.000000,0.000000,0.000000,-1,0.368784,-0.899357,0.231057,-0.060506,-0.815303,-0.654364
"2019-05-05 23:04:46.926 +0000",1557097486.926358,2.716367,-1.209362,-0.010737,0.145876,0.935391,0.322125,0.000000,0.000000,0.000000,-1,1.459178,0.276716,0.123082,0.021009,-1.260143,-0.529645
"2019-05-05 23:04:46.949 +0000",1557097486.948659,2.696885,-1.241581,-0.050636,0.139082,0.946296,0.291855,0.000000,0.000000,0.000000,-1,1.517336,0.943528,-0.184264,-0.157377,-1.437416,-0.295472
"2019-05-05 23:04:46.971 +0000",1557097486.970967,2.689074,-1.266593,-0.081539,0.130966,0.954086,0.269385,0.000000,0.000000,0.000000,-1,0.919956,0.956463,0.044866,-0.974090,-0.997711,-0.454260
"2019-05-05 23:04:46.993 +0000",1557097486.993276,2.703177,-1.276392,-0.092591,0.123179,0.956975,0.262727,0.000000,0.000000,0.000000,-1,0.171415,1.324053,-0.250245,-0.892618,-0.775792,-0.079164
"2019-05-05 23:04:47.016 +0000",1557097487.015552,2.767923,-1.281463,-0.049395,0.104149,0.958434,0.265626,0.000000,0.000000,0.000000,-1,0.116257,0.254604,-0.677446,-0.414162,-0.685302,0.389144
"2019-05-05 23:04:47.038 +0000",1557097487.037861,2.800812,-1.285928,-0.012076,0.093927,0.959699,0.264870,0.000000,0.000000,0.000000,-1,-0.324104,0.614497,-0.451329,-0.160593,-0.769895,0.332207
"2019-05-05 23:04:47.060 +0000",1557097487.060169,2.929182,-1.267002,0.066399,0.063065,0.954208,0.292420,0.000000,0.000000,0.000000,-1,-1.385606,3.270382,-0.977778,0.069778,-0.560699,-0.374207
"2019-05-05 23:04:47.082 +0000",1557097487.082485,3.046799,-1.273166,0.131291,0.027757,0.956034,0.291939,0.000000,0.000000,0.000000,-1,1.436935,1.065126,-0.542653,0.854369,-0.106471,-1.179558
"2019-05-05 23:04:47.105 +0000",1557097487.104785,2.956110,-1.334332,0.015831,0.043204,0.972172,0.230249,0.000000,0.000000,0.000000,-1,3.591372,1.484414,1.718535,1.396570,0.396450,-1.516732
"2019-05-05 23:04:47.127 +0000",1557097487.127092,2.694168,-1.395387,-0.300018,0.075501,0.984655,0.157333,0.000000,0.000000,0.000000,-1,3.243228,1.824103,1.799727,1.332793,1.428614,-1.035003
"2019-05-05 23:04:47.149 +0000",1557097487.149374,2.234361,-1.423204,-0.762157,0.115851,0.989128,0.090576,0.000000,0.000000,0.000000,-1,2.961893,-1.152589,1.904184,0.518228,0.427422,-0.683503
"2019-05-05 23:04:47.172 +0000",1557097487.171678,1.647518,-1.402112,-1.316841,0.167391,0.985807,0.012868,0.000000,0.000000,0.000000,-1,3.444181,-1.804630,2.473384,0.267103,0.576770,-0.379872
"2019-05-05 23:04:47.194 +0000",1557097487.193986,1.304970,-1.337184,-1.639296,0.223362,0.972837,-0.060815,0.000000,0.000000,0.000000,-1,2.854394,-0.511867,2.503834,0.100628,1.938418,-0.089606
"2019-05-05 23:04:47.216 +0000",1557097487.216294,1.181724,-1.280365,-1.801994,0.264962,0.958121,-0.108627,0.000000,0.000000,0.000000,-1,2.431546,2.678093,1.319153,-0.266855,2.054071,0.697494
"2019-05-05 23:04:47.239 +0000",1557097487.238600,1.144832,-1.243202,-1.912901,0.293013,0.946819,-0.132953,0.000000,0.000000,0.000000,-1,1.863030,2.836199,0.911849,-0.321440,1.275242,0.516391
"2019-05-05 23:04:47.261 +0000",1557097487.260909,1.087711,-1.198354,-1.986871,0.322250,0.931441,-0.169032,0.000000,0.000000,0.000000,-1,1.907785,-1.192765,1.490989,-0.545837,0.622025,0.418071
"2019-05-05 23:04:47.283 +0000",1557097487.283188,0.982280,-1.154264,-2.030376,0.336526,0.914497,-0.224600,0.000000,0.000000,0.000000,-1,1.448187,-3.187374,1.086714,-0.638680,0.512856,0.753042
"2019-05-05 23:04:47.305 +0000",1557097487.305496,0.926712,-1.130458,-2.053254,0.340847,0.904608,-0.255946,0.000000,0.000000,0.000000,-1,0.796440,-0.526793,0.457434,-0.794430,-0.064703,1.016429
"2019-05-05 23:04:47.328 +0000",1557097487.327803,0.912048,-1.111581,-2.071694,0.350500,0.896401,-0.271322,0.000000,0.000000,0.000000,-1,0.808013,0.203726,0.410016,-0.709249,-0.740044,0.869406
"2019-05-05 23:04:47.350 +0000",1557097487.350111,0.915794,-1.104711,-2.071745,0.356389,0.893334,-0.273753,0.000000,0.000000,0.000000,-1,-0.431110,0.127185,0.157095,-0.645970,-0.987405,0.985529
"2019-05-05 23:04:47.372 +0000",1557097487.372403,0.961931,-1.121266,-2.022933,0.356454,0.900652,-0.248531,0.000000,0.000000,0.000000,-1,-1.389725,0.019589,-0.204599,-0.773980,-1.007387,0.755565
"2019-05-05 23:04:47.395 +0000",1557097487.394738,0.980448,-1.148555,-1.998867,0.340445,0.912173,-0.228119,0.000000,0.000000,0.000000,-1,-0.924243,-0.048821,-1.087057,-0.947257,-0.942477,0.268463
"2019-05-05 23:04:47.417 +0000",1557097487.417003,1.008916,-1.189817,-1.989584,0.314662,0.928301,-0.198103,0.000000,0.000000,0.000000,-1,-1.351970,1.595926,-1.670008,-0.829952,-0.747759,0.747434
"2019-05-05 23:04:47.439 +0000",1557097487.439312,1.093882,-1.246171,-1.930627,0.283364,0.947770,-0.146413,0.000000,0.000000,0.000000,-1,-2.599703,0.481966,-1.706554,-0.076592,-0.646714,0.648656
"2019-05-05 23:04:47.462 +0000",1557097487.461620,1.256048,-1.311588,-1.724983,0.243723,0.966593,-0.079349,0.000000,0.000000,0.000000,-1,-4.081750,-2.757376,-1.632535,0.300664,-0.259135,0.361088
"2019-05-05 23:04:47.484 +0000",1557097487.483928,1.576390,-1.358724,-1.313254,0.210483,0.977597,0.001177,0.000000,0.000000,0.000000,-1,-4.710553,-3.643174,-1.267665,0.278501,0.708011,-0.255648
"2019-05-05 23:04:47.506 +0000",1557097487.506237,2.000352,-1.361034,-0.814277,0.189310,0.978080,0.086720,0.000000,0.000000,0.000000,-1,-4.224205,-2.421392,-0.940875,0.285879,1.304650,-0.397541
"2019-05-05 23:04:47.529 +0000",1557097487.528527,2.274995,-1.328329,-0.491260,0.182986,0.970749,0.155445,0.000000,0.000000,0.000000,-1,-3.072442,-1.208625,-0.154720,0.474561,1.777802,-0.379765
"2019-05-05 23:04:47.551 +0000",1557097487.550840,2.450064,-1.279528,-0.343083,0.183131,0.957880,0.221197,0.000000,0.000000,0.000000,-1,-2.761187,3.276245,0.057433,1.364720,2.378927,0.233500
"2019-05-05 23:04:47.573 +0000",1557097487.573129,2.645986,-1.240369,-0.172808,0.154296,0.945904,0.285410,0.000000,0.000000,0.000000,-1,-2.785321,-0.614716,-1.208126,0.344071,1.636799,-0.749094
"2019-05-05 23:04:47.595 +0000",1557097487.595417,2.761711,-1.197607,-0.018187,0.135193,0.931169,0.338595,0.000000,0.000000,0.000000,-1,-2.807707,-1.564795,-1.308869,-0.511337,1.117781,-0.440264
"2019-05-05 23:04:47.618 +0000",1557097487.617746,2.797303,-1.144901,0.073640,0.139445,0.910669,0.388891,0.000000,0.000000,0.000000,-1,-2.551993,-2.593947,-0.255089,-0.520076,0.547461,-0.347235
"2019-05-05 23:04:47.640 +0000",1557097487.640053,2.758500,-1.102885,0.097759,0.168588,0.892512,0.418330,0.000000,0.000000,0.000000,-1,-1.553447,-2.945122,0.440678,-0.096613,-0.048167,-0.334437
"2019-05-05 23:04:47.662 +0000",1557097487.662331,2.715317,-1.087883,0.104166,0.192006,0.885646,0.422807,0.000000,0.000000,0.000000,-1,-0.104808,-1.307089,-0.174904,0.035137,-0.322642,-0.396424
"2019-05-05 23:04:47.685 +0000",1557097487.684639,2.710035,-1.104129,0.107651,0.188192,0.893073,0.408662,0.000000,0.000000,0.000000,-1,1.027982,-0.213603,-0.330509,0.117426,-0.847205,-0.598222
"2019-05-05 23:04:47.707 +0000",1557097487.706946,2.684135,-1.132607,0.078176,0.187400,0.905521,0.380673,0.000000,0.000000,0.000000,-1,1.397930,0.318703,0.174787,-0.103507,-1.534733,-0.571088
"2019-05-05 23:04:47.729 +0000",1557097487.729254,2.657082,-1.148883,0.039068,0.190738,0.912307,0.362374,0.000000,0.000000,0.000000,-1,0.806459,0.380471,0.306723,-0.460514,-1.380264,-0.755898
"2019-05-05 23:04:47.752 +0000",1557097487.751562,2.638618,-1.159795,0.008026,0.192586,0.916721,0.350047,0.000000,0.000000,0.000000,-1,0.767293,0.610078,0.199222,-0.477803,-1.132649,-0.741450
"2019-05-05 23:04:47.774 +0000",1557097487.773840,2.657092,-1.183903,-0.011803,0.175740,0.926086,0.333887,0.000000,0.000000,0.000000,-1,1.345196,2.310233,-0.480552,-0.037403,-1.069839,-0.143610
"2019-05-05 23:04:47.796 +0000",1557097487.796148,2.722468,-1.210486,-0.009049,0.143480,0.935788,0.322048,0.000000,0.000000,0.000000,-1,0.350762,2.763694,-0.492446,0.106230,-0.889843,0.502125
"2019-05-05 23:04:47.818 +0000",1557097487.818449,2.816416,-1.190277,0.038959,0.118654,0.928472,0.351939,0.000000,0.000000,0.000000,-1,-1.789732,1.754168,-0.464554,-0.063600,-0.273794,1.343969
"2019-05-05 23:04:47.841 +0000",1557097487.840764,2.869068,-1.156488,0.094939,0.108354,0.915395,0.387701,0.000000,0.000000,0.000000,-1,-1.194068,-0.505240,-0.429356,-0.101869,0.289287,-0.394323
"2019-05-05 23:04:47.863 +0000",1557097487.863071,2.889604,-1.149068,0.113123,0.102060,0.912383,0.396411,0.000000,0.000000,0.000000,-1,0.076743,1.013621,-0.030434,0.155203,0.357225,-1.979403
"2019-05-05 23:04:47.885 +0000",1557097487.885380,2.914301,-1.191505,0.066231,0.083435,0.928927,0.360739,0.000000,0.000000,0.000000,-1,3.339401,3.493357,0.500992,0.260590,0.228605,-1.969809
"2019-05-05 23:04:47.908 +0000",1557097487.907658,2.810872,-1.281874,-0.091260,0.092521,0.958552,0.269479,0.000000,0.000000,0.000000,-1,4.724654,1.261777,1.603146,0.479135,0.943258,-1.524194
"2019-05-05 23:04:47.930 +0000",1557097487.929965,2.525338,-1.355150,-0.417660,0.123676,0.976838,0.174617,0.000000,0.000000,0.000000,-1,4.226080,1.580592,1.710511,0.164532,1.260695,0.103642
"2019-05-05 23:04:47.952 +0000",1557097487.952272,2.145694,-1.375474,-0.819163,0.162883,0.980985,0.105532,0.000000,0.000000,0.000000,-1,2.735306,-0.195850,2.167274,0.248921,0.877490,-0.587099
"2019-05-05 23:04:47.975 +0000",1557097487.974564,1.819011,-1.346901,-1.127165,0.215225,0.975040,0.054547,0.000000,0.000000,0.000000,-1,1.743194,-1.666468,2.125319,0.328323,1.521145,-0.611737
"2019-05-05 23:04:47.997 +0000",1557097487.996889,1.512183,-1.316106,-1.402853,0.251513,0.967741,-0.014759,0.000000,0.000000,0.000000,-1,3.785000,-1.269924,1.377109,-0.047976,1.959047,0.854236
"2019-05-05 23:04:48.019 +0000",1557097488.019197,1.306667,-1.289434,-1.632485,0.268035,0.960678,-0.072489,0.000000,0.000000,0.000000,-1,1.600569,1.660631,0.425956,-0.220122,1.328201,1.624461
"2019-05-05 23:04:48.041 +0000",1557097488.041466,1.294308,-1.265322,-1.624102,0.289323,0.953704,-0.082097,0.000000,0.000000,0.000000,-1,0.214588,-3.177450,1.564947,-0.091218,0.494568,0.772084
