timestamp,timeIntervalSince1970,attitude.roll,attitude.pitch,attitude.yaw,gravity.x,gravity.y,gravity.z,magneticField.x,magneticField.y,magneticField.z,magneticField.accuracy,rotationRate.x,rotationRate.y,rotationRate.z,userAcceleration.x,userAcceleration.y,userAcceleration.z
"2019-03-29 08:51:20.480 +0000",1553849480.480387,-0.208155,0.240504,0.025406,-0.200707,-0.238192,-0.950253,0.000000,0.000000,0.000000,-1,0.156611,-0.815219,0.112785,-0.393196,-0.068601,-0.134158
"2019-03-29 08:51:20.503 +0000",1553849480.502665,-0.221922,0.238126,0.027928,-0.213894,-0.235882,-0.947950,0.000000,0.000000,0.000000,-1,-0.182108,-0.432690,0.127421,-0.249439,-0.023334,0.040220
"2019-03-29 08:51:20.525 +0000",1553849480.524972,-0.229003,0.230563,0.029590,-0.220999,-0.228525,-0.948122,0.000000,0.000000,0.000000,-1,-0.392541,-0.254240,0.170406,-0.197397,-0.075857,0.238756
"2019-03-29 08:51:20.547 +0000",1553849480.547261,-0.236025,0.220897,0.030993,-0.228158,-0.219105,-0.948650,0.000000,0.000000,0.000000,-1,-0.365230,-0.388498,0.123229,-0.284370,-0.069988,0.150432
"2019-03-29 08:51:20.570 +0000",1553849480.569567,-0.248525,0.215934,0.029611,-0.240262,-0.214260,-0.946767,0.000000,0.000000,0.000000,-1,-0.168045,-0.686868,-0.072525,-0.339435,-0.032582,0.185612
"2019-03-29 08:51:20.592 +0000",1553849480.591866,-0.267112,0.212536,0.023884,-0.258008,-0.210939,-0.942834,0.000000,0.000000,0.000000,-1,-0.303320,-0.893232,-0.297770,-0.341083,-0.033934,0.145395
"2019-03-29 08:51:20.614 +0000",1553849480.614172,-0.282872,0.201067,0.010242,-0.273492,-0.199715,-0.940912,0.000000,0.000000,0.000000,-1,-0.864810,-0.911434,-0.490133,-0.371162,-0.019996,0.093287
"2019-03-29 08:51:20.636 +0000",1553849480.636476,-0.303689,0.175788,-0.005169,-0.294434,-0.174884,-0.939534,0.000000,0.000000,0.000000,-1,-1.503615,-1.305465,-0.200344,-0.373290,0.047076,0.162877
"2019-03-29 08:51:20.659 +0000",1553849480.658756,-0.337549,0.138830,-0.015476,-0.327989,-0.138384,-0.934491,0.000000,0.000000,0.000000,-1,-1.857739,-1.667506,0.378329,-0.320555,0.115801,0.437176
"2019-03-29 08:51:20.681 +0000",1553849480.681064,-0.385387,0.084810,-0.009517,-0.374567,-0.084708,-0.923322,0.000000,0.000000,0.000000,-1,-2.351214,-2.709635,1.657682,-0.052847,0.041098,0.594145
"2019-03-29 08:51:20.703 +0000",1553849480.703371,-0.471603,0.015566,0.008809,-0.454260,-0.015566,-0.890733,0.000000,0.000000,0.000000,-1,-2.503234,-4.166760,2.150641,-0.042200,0.227434,0.606523
"2019-03-29 08:51:20.726 +0000",1553849480.725651,-0.561147,-0.058124,0.027058,-0.531259,0.058091,-0.845215,0.000000,0.000000,0.000000,-1,-2.516813,-3.838363,2.456614,0.118357,0.183105,0.673783
"2019-03-29 08:51:20.748 +0000",1553849480.747950,-0.642855,-0.146241,0.044085,-0.593084,0.145720,-0.791844,0.000000,0.000000,0.000000,-1,-2.963870,-3.764168,3.242267,0.208807,0.534883,0.839848
"2019-03-29 08:51:20.770 +0000",1553849480.770264,-0.726881,-0.254711,0.071057,-0.643101,0.251966,-0.723142,0.000000,0.000000,0.000000,-1,-2.954395,-4.180383,4.405871,0.299855,0.539371,0.814328
"2019-03-29 08:51:20.793 +0000",1553849480.792539,-0.821240,-0.374004,0.109564,-0.681390,0.365346,-0.634216,0.000000,0.000000,0.000000,-1,-2.427525,-5.225154,5.208077,0.466302,0.699184,0.594162
"2019-03-29 08:51:20.815 +0000",1553849480.814847,-0.933467,-0.494761,0.171797,-0.707311,0.474821,-0.523694,0.000000,0.000000,0.000000,-1,-0.918795,-6.686541,6.008198,0.446371,0.607271,0.362638
"2019-03-29 08:51:20.837 +0000",1553849480.837156,-1.042953,-0.620739,0.254975,-0.702734,0.581637,-0.409711,0.000000,0.000000,0.000000,-1,-0.224629,-6.553075,6.726825,0.372717,0.525251,0.055615
"2019-03-29 08:51:20.859 +0000",1553849480.859433,-1.093408,-0.755609,0.349609,-0.646478,0.685732,-0.334421,0.000000,0.000000,0.000000,-1,0.152308,-3.724835,6.714286,0.280451,0.495649,-0.301093
"2019-03-29 08:51:20.882 +0000",1553849480.881741,-1.051615,-0.859944,0.461075,-0.566500,0.757806,-0.323741,0.000000,0.000000,0.000000,-1,1.349214,-0.815258,5.057661,-0.317686,0.692359,-0.477010
"2019-03-29 08:51:20.904 +0000",1553849480.904049,-0.964994,-0.912283,0.583329,-0.503044,0.790903,-0.348453,0.000000,0.000000,0.000000,-1,1.581219,-0.309691,3.114307,-0.678658,0.824759,-0.165875
"2019-03-29 08:51:20.926 +0000",1553849480.926355,-0.895632,-0.940550,0.666227,-0.460044,0.807883,-0.368355,0.000000,0.000000,0.000000,-1,0.802363,0.635567,2.054844,-1.513848,0.696207,-0.169151
"2019-03-29 08:51:20.949 +0000",1553849480.948652,-0.797395,-0.954059,0.743217,-0.413851,0.815770,-0.404038,0.000000,0.000000,0.000000,-1,1.467372,1.985919,1.570497,-1.871794,0.270991,0.021210
"2019-03-29 08:51:20.971 +0000",1553849480.970936,-0.688345,-0.940995,0.827069,-0.374158,0.808145,-0.454872,0.000000,0.000000,0.000000,-1,2.082343,1.722274,1.083087,-1.580676,0.309119,0.247200
"2019-03-29 08:51:20.993 +0000",1553849480.993248,-0.608932,-0.926987,0.883427,-0.343336,0.799815,-0.492358,0.000000,0.000000,0.000000,-1,-0.267635,0.800019,0.478680,-1.502108,0.344304,0.169070
"2019-03-29 08:51:21.016 +0000",1553849481.015518,-0.665294,-0.961623,0.858051,-0.353207,0.820122,-0.450162,0.000000,0.000000,0.000000,-1,-1.147682,-1.224544,0.327561,-0.941211,0.201470,0.063321
"2019-03-29 08:51:21.038 +0000",1553849481.037831,-0.642432,-0.965233,0.872074,-0.341048,0.822181,-0.455745,0.000000,0.000000,0.000000,-1,1.098038,1.198614,0.335546,-1.100449,0.232811,0.522060
"2019-03-29 08:51:21.060 +0000",1553849481.060122,-0.601191,-0.944732,0.899849,-0.331434,0.810340,-0.483219,0.000000,0.000000,0.000000,-1,1.276487,0.401235,-0.064197,-0.797518,-0.033637,1.663517
"2019-03-29 08:51:21.082 +0000",1553849481.082416,-0.564101,-0.920350,0.927577,-0.323757,0.795813,-0.511725,0.000000,0.000000,0.000000,-1,1.365723,0.960797,-0.115026,-0.682164,0.268747,1.223853
"2019-03-29 08:51:21.105 +0000",1553849481.104724,-0.512544,-0.873834,0.951611,-0.314781,0.766795,-0.559409,0.000000,0.000000,0.000000,-1,1.227939,1.656781,-0.492185,-0.551873,0.286961,0.482169
"2019-03-29 08:51:21.127 +0000",1553849481.127032,-0.495667,-0.832480,0.959743,-0.320112,0.739603,-0.592044,0.000000,0.000000,0.000000,-1,3.367645,0.869511,-0.718742,-0.359957,0.117407,0.598101
"2019-03-29 08:51:21.149 +0000",1553849481.149338,-0.486262,-0.812528,0.963443,-0.321363,0.726028,-0.607955,0.000000,0.000000,0.000000,-1,-0.901316,-0.707539,-0.248812,-0.501010,0.025055,-0.392411
"2019-03-29 08:51:21.172 +0000",1553849481.171621,-0.494701,-0.801644,0.975293,-0.330214,0.718501,-0.612140,0.000000,0.000000,0.000000,-1,0.833487,-0.802739,0.392895,-0.021120,-0.012492,-0.868680
"2019-03-29 08:51:21.194 +0000",1553849481.193923,-0.531504,-0.811896,0.978575,-0.348762,0.725594,-0.593194,0.000000,0.000000,0.000000,-1,-0.259468,-1.344516,0.381109,0.433540,-1.285866,1.933847
"2019-03-29 08:51:21.216 +0000",1553849481.216230,-0.526681,-0.828629,0.993323,-0.339746,0.737006,-0.584291,0.000000,0.000000,0.000000,-1,-0.743936,0.305907,0.955508,0.395440,-0.046790,0.088411
"2019-03-29 08:51:21.239 +0000",1553849481.238519,-0.492802,-0.877456,1.000149,-0.302361,0.769116,-0.563062,0.000000,0.000000,0.000000,-1,-2.194072,1.704156,1.000780,0.116219,-0.502743,0.490614
"2019-03-29 08:51:21.261 +0000",1553849481.260815,-0.494159,-0.906393,0.978613,-0.292443,0.787285,-0.542826,0.000000,0.000000,0.000000,-1,-1.306892,-0.250831,-0.121543,0.000222,-0.580116,0.656046
"2019-03-29 08:51:21.284 +0000",1553849481.283636,-0.516809,-0.945722,0.963403,-0.289131,0.810919,-0.508736,0.000000,0.000000,0.000000,-1,-1.914887,-0.404538,0.916653,-0.017997,-0.674277,0.701302
"2019-03-29 08:51:21.306 +0000",1553849481.305913,-0.560767,-1.003392,0.943859,-0.285832,0.843299,-0.455134,0.000000,0.000000,0.000000,-1,-2.507724,-1.636077,0.623399,-0.552516,-0.737921,-0.219854
"2019-03-29 08:51:21.328 +0000",1553849481.328220,-0.638189,-1.045619,0.909040,-0.298685,0.865235,-0.402685,0.000000,0.000000,0.000000,-1,-1.426327,-2.444312,0.180720,-0.017889,0.080917,0.142676
"2019-03-29 08:51:21.351 +0000",1553849481.350528,-0.726291,-1.065554,0.857476,-0.321438,0.875057,-0.361874,0.000000,0.000000,0.000000,-1,-1.581511,-1.103959,-0.573088,-0.496677,-0.668453,0.559872
"2019-03-29 08:51:21.373 +0000",1553849481.372836,-0.812116,-1.070730,0.772877,-0.347983,0.877551,-0.329868,0.000000,0.000000,0.000000,-1,-1.204996,-0.835433,-1.797243,-0.341379,-0.141024,-0.175504
"2019-03-29 08:51:21.395 +0000",1553849481.395113,-0.899425,-1.041677,0.706577,-0.395222,0.863252,-0.314000,0.000000,0.000000,0.000000,-1,0.301516,-1.857540,-1.922743,-0.459575,-0.263169,0.609273
"2019-03-29 08:51:21.417 +0000",1553849481.417420,-0.998509,-1.025082,0.653573,-0.436329,0.854757,-0.281083,0.000000,0.000000,0.000000,-1,-1.028529,-2.604861,-0.981312,-0.558056,0.040141,0.291169
"2019-03-29 08:51:21.440 +0000",1553849481.439728,-1.033685,-1.020528,0.650754,-0.449284,0.852384,-0.267553,0.000000,0.000000,0.000000,-1,1.199609,-0.322044,0.275896,-0.279201,-0.077863,-0.046686
"2019-03-29 08:51:21.462 +0000",1553849481.462022,-0.902863,-1.003624,0.767283,-0.421796,0.843423,-0.332754,0.000000,0.000000,0.000000,-1,3.128720,2.427337,1.334068,-0.065295,0.452124,-0.236216
"2019-03-29 08:51:21.484 +0000",1553849481.484313,-0.741028,-1.019639,0.848849,-0.353504,0.851919,-0.386353,0.000000,0.000000,0.000000,-1,0.058307,5.082770,1.866184,-0.172009,0.648539,-0.869552
"2019-03-29 08:51:21.507 +0000",1553849481.506620,-0.620885,-1.034180,0.889317,-0.297411,0.859443,-0.415817,0.000000,0.000000,0.000000,-1,0.332752,2.397757,0.635855,-0.253217,0.811394,-0.736191
"2019-03-29 08:51:21.529 +0000",1553849481.528906,-0.592460,-1.022538,0.908239,-0.291041,0.853433,-0.432373,0.000000,0.000000,0.000000,-1,0.587366,0.453171,-0.272218,-0.353674,0.439276,0.835526
"2019-03-29 08:51:21.551 +0000",1553849481.551203,-0.580175,-1.004046,0.895643,-0.294309,0.843650,-0.449040,0.000000,0.000000,0.000000,-1,0.604884,1.569435,-0.778336,-0.088000,0.450372,0.594059
"2019-03-29 08:51:21.573 +0000",1553849481.573495,-0.541953,-0.983484,0.888067,-0.285824,0.832433,-0.474721,0.000000,0.000000,0.000000,-1,0.795246,2.183870,-0.647249,-0.543644,0.568004,0.515798
"2019-03-29 08:51:21.596 +0000",1553849481.595820,-0.485453,-0.962521,0.891024,-0.266645,0.820635,-0.505429,0.000000,0.000000,0.000000,-1,0.807196,2.485652,-0.228139,-0.377245,0.662443,0.114850
"2019-03-29 08:51:21.618 +0000",1553849481.618096,-0.442760,-0.952948,0.896462,-0.248185,0.815127,-0.523424,0.000000,0.000000,0.000000,-1,0.241714,1.305447,0.026482,-0.074951,0.453092,-0.014678
"2019-03-29 08:51:21.640 +0000",1553849481.640403,-0.407369,-0.937585,0.912899,-0.234443,0.806131,-0.543313,0.000000,0.000000,0.000000,-1,0.935214,0.832291,0.068195,-0.069771,0.426886,0.182748
"2019-03-29 08:51:21.663 +0000",1553849481.662706,-0.386944,-0.919408,0.915736,-0.228790,0.795243,-0.561466,0.000000,0.000000,0.000000,-1,-0.325067,0.240840,-0.365006,-0.304810,0.354843,0.391040
"2019-03-29 08:51:21.685 +0000",1553849481.685014,-0.406004,-0.907347,0.892171,-0.243220,0.787873,-0.565774,0.000000,0.000000,0.000000,-1,0.803223,-0.812747,-0.955592,-0.749654,0.281707,-0.431128
"2019-03-29 08:51:21.707 +0000",1553849481.707297,-0.439920,-0.866202,0.882341,-0.275845,0.761875,-0.586052,0.000000,0.000000,0.000000,-1,0.332587,-1.377463,-0.923489,-0.449055,-0.253040,0.645943
"2019-03-29 08:51:21.730 +0000",1553849481.729604,-0.490244,-0.839503,0.862799,-0.314443,0.744311,-0.589174,0.000000,0.000000,0.000000,-1,1.719209,-1.625856,-1.049706,-0.535776,-0.003192,-0.129240
"2019-03-29 08:51:21.752 +0000",1553849481.751971,-0.519225,-0.814967,0.866441,-0.340345,0.727703,-0.595494,0.000000,0.000000,0.000000,-1,-0.289023,-0.371720,-0.035772,-0.407305,-0.030254,-0.488688
"2019-03-29 08:51:21.774 +0000",1553849481.774188,-0.509650,-0.828402,0.867065,-0.329828,0.736852,-0.590138,0.000000,0.000000,0.000000,-1,-0.567119,-0.059315,0.617582,-0.011008,-0.272802,-0.177044
"2019-03-29 08:51:21.796 +0000",1553849481.796496,-0.520450,-0.843200,0.890241,-0.330723,0.746775,-0.577017,0.000000,0.000000,0.000000,-1,-0.035022,-1.600463,0.939144,0.346318,-0.700144,0.992224
"2019-03-29 08:51:21.819 +0000",1553849481.818803,-0.527934,-0.857240,0.911913,-0.329718,0.756039,-0.565413,0.000000,0.000000,0.000000,-1,-0.382056,-0.531900,0.862521,0.277868,-0.623898,0.362349
"2019-03-29 08:51:21.841 +0000",1553849481.841081,-0.512784,-0.879220,0.920287,-0.312884,0.770242,-0.555725,0.000000,0.000000,0.000000,-1,-0.969536,0.791447,0.530463,0.209262,-0.199594,0.422211
"2019-03-29 08:51:21.863 +0000",1553849481.863389,-0.504065,-0.911671,0.906139,-0.295794,0.790528,-0.536256,0.000000,0.000000,0.000000,-1,-1.972038,0.910007,0.442143,-0.038297,-0.246507,0.602204
"2019-03-29 08:51:21.886 +0000",1553849481.885696,-0.525441,-0.942221,0.872361,-0.294934,0.808866,-0.508674,0.000000,0.000000,0.000000,-1,-0.918255,-0.113394,0.031136,-0.028842,-0.303403,0.627937
"2019-03-29 08:51:21.908 +0000",1553849481.907985,-0.557721,-0.951733,0.855919,-0.307112,0.814422,-0.492340,0.000000,0.000000,0.000000,-1,-0.383726,0.056651,0.045982,-0.312670,0.111588,0.411102
"2019-03-29 08:51:21.930 +0000",1553849481.930279,-0.539407,-0.968230,0.859825,-0.291103,0.823884,-0.486287,0.000000,0.000000,0.000000,-1,-0.559238,0.666346,0.582611,0.331004,-0.286713,-0.321712
"2019-03-29 08:51:21.953 +0000",1553849481.952588,-0.523730,-0.993802,0.868563,-0.272816,0.838106,-0.472388,0.000000,0.000000,0.000000,-1,-1.138548,0.062675,0.732865,-0.284359,0.885619,0.129859
"2019-03-29 08:51:21.975 +0000",1553849481.974895,-0.544854,-1.029757,0.863162,-0.266935,0.857174,-0.440453,0.000000,0.000000,0.000000,-1,-1.702294,-0.946152,0.768870,-0.811327,0.264133,0.060738
"2019-03-29 08:51:21.997 +0000",1553849481.997173,-0.574308,-1.068413,0.853653,-0.261585,0.876438,-0.404265,0.000000,0.000000,0.000000,-1,0.132000,-0.601886,0.203395,-0.304211,-0.477359,0.555419
"2019-03-29 08:51:22.019 +0000",1553849482.019480,-0.645819,-1.099871,0.806222,-0.273067,0.891149,-0.362337,0.000000,0.000000,0.000000,-1,-2.444105,0.672174,0.068168,-0.239598,-0.231008,0.201265
"2019-03-29 08:51:22.042 +0000",1553849482.041787,-0.680009,-1.126210,0.733016,-0.270437,0.902789,-0.334419,0.000000,0.000000,0.000000,-1,-1.063133,0.959221,-0.611123,-0.110529,-0.730426,0.270393
"2019-03-29 08:51:22.064 +0000",1553849482.064083,-0.702159,-1.129606,0.724669,-0.275796,0.904244,-0.326005,0.000000,0.000000,0.000000,-1,0.138374,-1.067713,0.306776,-0.535301,-0.139809,0.257371
"2019-03-29 08:51:22.086 +0000",1553849482.086372,-0.698795,-1.134243,0.744577,-0.271997,0.906214,-0.323718,0.000000,0.000000,0.000000,-1,-0.198789,-0.328810,0.553143,0.130899,0.538793,0.228915
"2019-03-29 08:51:22.109 +0000",1553849482.108680,-0.683413,-1.148553,0.761610,-0.258770,0.912172,-0.317774,0.000000,0.000000,0.000000,-1,-0.240653,-0.149829,0.715287,0.026287,0.148818,0.290705
"2019-03-29 08:51:22.131 +0000",1553849482.130965,-0.674460,-1.165203,0.779772,-0.246395,0.918869,-0.308172,0.000000,0.000000,0.000000,-1,-0.508316,-0.363083,0.631468,-0.243107,0.182602,0.200719
"2019-03-29 08:51:22.153 +0000",1553849482.153264,-0.678535,-1.182264,0.781326,-0.237774,0.925466,-0.294917,0.000000,0.000000,0.000000,-1,-0.474319,-0.482151,0.375748,-0.143467,0.307566,0.134150
"2019-03-29 08:51:22.176 +0000",1553849482.175572,-0.687076,-1.184716,0.797650,-0.238845,0.926392,-0.291120,0.000000,0.000000,0.000000,-1,0.407944,-0.886992,0.248222,-0.110109,0.042099,0.438749
"2019-03-29 08:51:22.198 +0000",1553849482.197873,-0.655523,-1.186538,0.841653,-0.228512,0.927077,-0.297172,0.000000,0.000000,0.000000,-1,0.398436,0.019415,1.148248,0.036999,-0.195570,0.444694
"2019-03-29 08:51:22.220 +0000",1553849482.220156,-0.533458,-1.179786,0.959159,-0.193806,0.924525,-0.328167,0.000000,0.000000,0.000000,-1,1.296380,0.388401,1.352527,-0.046459,-0.521769,0.628002
"2019-03-29 08:51:22.242 +0000",1553849482.242464,-0.457756,-1.178289,1.035738,-0.169044,0.923953,-0.343126,0.000000,0.000000,0.000000,-1,0.369330,0.005679,0.779917,-0.088326,0.379590,0.827639
"2019-03-29 08:51:22.265 +0000",1553849482.264771,-0.461769,-1.186078,1.048607,-0.167208,0.926904,-0.335992,0.000000,0.000000,0.000000,-1,-0.497218,-0.984000,0.073779,-0.362196,0.550086,-0.240821
"2019-03-29 08:51:22.287 +0000",1553849482.287078,-0.509461,-1.206020,1.020226,-0.173985,0.934204,-0.311437,0.000000,0.000000,0.000000,-1,-1.272276,-1.478492,0.803553,-0.293407,0.343369,0.122671
"2019-03-29 08:51:22.309 +0000",1553849482.309356,-0.513653,-1.252145,1.086474,-0.153937,0.949659,-0.272858,0.000000,0.000000,0.000000,-1,-1.162864,-3.865713,2.198069,-0.224680,0.334933,0.212982
"2019-03-29 08:51:22.332 +0000",1553849482.331664,-0.490011,-1.289765,1.226676,-0.130529,0.960770,-0.244711,0.000000,0.000000,0.000000,-1,-0.096076,-4.956327,2.219372,-0.469141,0.331421,0.113928
"2019-03-29 08:51:22.354 +0000",1553849482.353953,-0.480912,-1.288532,1.305970,-0.128845,0.960427,-0.246938,0.000000,0.000000,0.000000,-1,0.558383,-1.629537,0.352880,-0.008286,-0.113595,0.296789
"2019-03-29 08:51:22.376 +0000",1553849482.376250,-0.474858,-1.293635,1.342181,-0.125105,0.961836,-0.243352,0.000000,0.000000,0.000000,-1,-0.335944,-1.468891,0.638877,-0.074007,-0.112608,0.495778
"2019-03-29 08:51:22.399 +0000",1553849482.398545,-0.502376,-1.308543,1.360858,-0.124835,0.965808,-0.227224,0.000000,0.000000,0.000000,-1,-0.444215,-2.213032,0.358871,0.024417,0.004651,0.343740
"2019-03-29 08:51:22.421 +0000",1553849482.420864,-0.535996,-1.314854,1.368132,-0.129287,0.967425,-0.217654,0.000000,0.000000,0.000000,-1,-0.194845,-1.390718,0.160635,0.014800,-0.207278,0.119739
"2019-03-29 08:51:22.443 +0000",1553849482.443141,-0.579952,-1.331344,1.349571,-0.129965,0.971468,-0.198390,0.000000,0.000000,0.000000,-1,-1.152364,-1.057208,0.301167,0.052802,0.045393,0.205135
"2019-03-29 08:51:22.465 +0000",1553849482.465449,-0.613284,-1.353096,1.313287,-0.124312,0.976397,-0.176625,0.000000,0.000000,0.000000,-1,-0.456267,0.155170,0.081052,0.126082,-0.055925,0.426091
"2019-03-29 08:51:22.488 +0000",1553849482.487756,-0.644032,-1.350685,1.301573,-0.131096,0.975873,-0.174601,0.000000,0.000000,0.000000,-1,0.053393,-1.074701,-0.538007,0.145775,-0.073194,0.195658
"2019-03-29 08:51:22.510 +0000",1553849482.510046,-0.667745,-1.348638,1.302245,-0.136435,0.975424,-0.173011,0.000000,0.000000,0.000000,-1,0.245246,-1.059897,0.736500,0.373404,-1.792716,0.212043
"2019-03-29 08:51:22.532 +0000",1553849482.532341,-0.509982,-1.384666,1.492002,-0.090338,0.982728,-0.161509,0.000000,0.000000,0.000000,-1,-0.392447,-1.599458,3.477649,0.271963,-1.723527,0.396235
"2019-03-29 08:51:22.555 +0000",1553849482.554648,-0.232538,-1.404098,1.800736,-0.038238,0.986138,-0.161462,0.000000,0.000000,0.000000,-1,0.277573,-1.569316,2.290471,0.232864,-0.916573,0.455025
"2019-03-29 08:51:22.577 +0000",1553849482.576933,-0.068379,-1.408822,2.047876,-0.011019,0.986911,-0.160890,0.000000,0.000000,0.000000,-1,0.249278,-5.123896,1.485887,0.654131,-1.194034,0.396257
"2019-03-29 08:51:22.599 +0000",1553849482.599242,0.022905,-1.408137,2.223629,0.003709,0.986800,-0.161901,0.000000,0.000000,0.000000,-1,-0.097175,-2.009091,0.899846,0.526977,-0.833846,0.458730
"2019-03-29 08:51:22.622 +0000",1553849482.621540,0.087974,-1.406637,2.310963,0.014358,0.986556,-0.162791,0.000000,0.000000,0.000000,-1,0.089528,-0.806885,0.649830,-0.353683,0.839066,0.210124
"2019-03-29 08:51:22.644 +0000",1553849482.643848,0.071881,-1.400308,2.318505,0.012185,0.985502,-0.169225,0.000000,0.000000,0.000000,-1,0.465040,-1.077851,-0.114258,-0.554147,1.831988,0.452734
"2019-03-29 08:51:22.666 +0000",1553849482.666156,-0.040546,-1.391559,2.205098,-0.007227,0.983980,-0.178133,0.000000,0.000000,0.000000,-1,0.125241,0.965402,-1.041857,0.159174,-0.627763,0.145693
"2019-03-29 08:51:22.688 +0000",1553849482.688430,-0.005936,-1.395615,2.232726,-0.001035,0.984695,-0.174284,0.000000,0.000000,0.000000,-1,-0.338725,-0.524806,0.474708,0.294431,-0.462112,0.292661
"2019-03-29 08:51:22.711 +0000",1553849482.710740,-0.025861,-1.391487,2.225943,-0.004612,0.983967,-0.178291,0.000000,0.000000,0.000000,-1,0.335479,0.176924,-0.414498,0.665256,-1.171848,0.559196
"2019-03-29 08:51:22.733 +0000",1553849482.733049,-0.068829,-1.399659,2.178435,-0.011713,0.985392,-0.169900,0.000000,0.000000,0.000000,-1,-0.828897,-0.028008,-0.156385,-0.147543,2.269735,0.295114
"2019-03-29 08:51:22.755 +0000",1553849482.755324,-0.076360,-1.415738,2.182662,-0.011781,0.988002,-0.153988,0.000000,0.000000,0.000000,-1,-0.502762,-0.994182,0.315053,-0.083189,1.647206,0.270062
"2019-03-29 08:51:22.778 +0000",1553849482.777632,-0.026415,-1.415238,2.266728,-0.004092,0.987925,-0.154878,0.000000,0.000000,0.000000,-1,0.547779,-1.680371,0.898445,0.227572,-0.874751,0.036867
"2019-03-29 08:51:22.800 +0000",1553849482.799925,0.016554,-1.378109,2.331273,0.003170,0.981493,-0.191471,0.000000,0.000000,0.000000,-1,1.382919,-0.168108,0.273792,0.430027,0.175611,0.158787
"2019-03-29 08:51:22.822 +0000",1553849482.822226,0.058014,-1.368533,2.378081,0.011648,0.979614,-0.200549,0.000000,0.000000,0.000000,-1,0.509464,0.030230,0.442852,0.419367,-0.132660,0.266040
"2019-03-29 08:51:22.845 +0000",1553849482.844523,0.086848,-1.359088,2.411285,0.018226,0.977673,-0.209338,0.000000,0.000000,0.000000,-1,0.261565,-0.388607,0.318688,0.427605,1.289188,0.416034
"2019-03-29 08:51:22.867 +0000",1553849482.866831,0.095492,-1.351006,2.432702,0.020788,0.975943,-0.217032,0.000000,0.000000,0.000000,-1,0.449082,-0.432156,0.170290,0.241648,-0.117423,0.482275
"2019-03-29 08:51:22.889 +0000",1553849482.889134,0.106308,-1.339661,2.430689,0.024307,0.973407,-0.227789,0.000000,0.000000,0.000000,-1,0.542073,1.276850,-0.075581,0.389984,0.425092,0.582342
"2019-03-29 08:51:22.911 +0000",1553849482.911416,0.139483,-1.325239,2.413528,0.033798,0.970002,-0.240736,0.000000,0.000000,0.000000,-1,0.751204,2.676809,-0.087918,-0.061600,0.048232,0.492201
"2019-03-29 08:51:22.934 +0000",1553849482.933725,0.164421,-1.306372,2.377247,0.042779,0.965243,-0.257829,0.000000,0.000000,0.000000,-1,0.915450,2.399015,-0.366985,-0.392907,-0.088656,0.449647
"2019-03-29 08:51:22.956 +0000",1553849482.956016,0.158360,-1.288252,2.328571,0.043967,0.960349,-0.275312,0.000000,0.000000,0.000000,-1,0.851765,1.578090,-0.466412,-0.205664,-0.021827,-0.076403
"2019-03-29 08:51:22.978 +0000",1553849482.978308,0.140190,-1.277596,2.283676,0.040385,0.957324,-0.286182,0.000000,0.000000,0.000000,-1,0.376958,0.743757,-0.488982,-0.146754,0.018125,-0.065701
"2019-03-29 08:51:23.001 +0000",1553849483.000615,0.120097,-1.276051,2.249836,0.034804,0.956876,-0.288403,0.000000,0.000000,0.000000,-1,0.017290,0.622211,-0.387573,-0.161452,0.121386,0.036832
"2019-03-29 08:51:23.023 +0000",1553849483.022908,0.121300,-1.277487,2.224211,0.034985,0.957292,-0.286997,0.000000,0.000000,0.000000,-1,-0.044555,1.505689,-0.322250,-0.110226,0.150358,0.223124
"2019-03-29 08:51:23.045 +0000",1553849483.045212,0.139485,-1.278929,2.199955,0.040006,0.957708,-0.284947,0.000000,0.000000,0.000000,-1,0.004771,2.013819,-0.308132,-0.210416,-0.074713,0.481190
"2019-03-29 08:51:23.068 +0000",1553849483.067509,0.169108,-1.277913,2.183503,0.048591,0.957416,-0.284595,0.000000,0.000000,0.000000,-1,0.145949,1.988717,-0.134172,-0.231407,-0.026767,0.439289
"2019-03-29 08:51:23.090 +0000",1553849483.089815,0.195960,-1.273645,2.173937,0.057010,0.956174,-0.287194,0.000000,0.000000,0.000000,-1,0.238588,1.302602,-0.063534,-0.255344,0.120898,0.310387
"2019-03-29 08:51:23.112 +0000",1553849483.112124,0.209308,-1.266422,2.163324,0.062272,0.954035,-0.293156,0.000000,0.000000,0.000000,-1,0.422753,1.019716,-0.070869,-0.155839,0.029867,0.231571
"2019-03-29 08:51:23.134 +0000",1553849483.134400,0.214626,-1.256709,2.148568,0.065801,0.951079,-0.301860,0.000000,0.000000,0.000000,-1,0.469922,0.707010,-0.140024,-0.237706,-0.031431,0.193584
"2019-03-29 08:51:23.157 +0000",1553849483.156709,0.213122,-1.247428,2.136010,0.067210,0.948171,-0.310572,0.000000,0.000000,0.000000,-1,0.433832,0.391320,-0.016905,-0.299251,0.082835,0.208583
"2019-03-29 08:51:23.179 +0000",1553849483.179019,0.220809,-1.237809,2.137301,0.071590,0.945070,-0.318931,0.000000,0.000000,0.000000,-1,0.414390,0.237007,0.163094,-0.092403,-0.051516,0.197441
"2019-03-29 08:51:23.201 +0000",1553849483.201321,0.230638,-1.227656,2.144731,0.076911,0.941703,-0.327537,0.000000,0.000000,0.000000,-1,0.407082,0.089688,0.241313,-0.028083,-0.142920,0.214424
"2019-03-29 08:51:23.224 +0000",1553849483.223601,0.247221,-1.214126,2.155986,0.085442,0.937065,-0.338540,0.000000,0.000000,0.000000,-1,0.681149,0.427234,0.336436,-0.035790,-0.034324,0.164743
"2019-03-29 08:51:23.246 +0000",1553849483.245919,0.264756,-1.196263,2.159042,0.095730,0.930679,-0.353091,0.000000,0.000000,0.000000,-1,0.762199,0.774720,0.159711,-0.034848,0.055558,0.296252
"2019-03-29 08:51:23.268 +0000",1553849483.268215,0.279108,-1.179103,2.156459,0.105173,0.924264,-0.366980,0.000000,0.000000,0.000000,-1,0.743596,0.656894,0.231460,-0.071039,0.142646,0.383918
"2019-03-29 08:51:23.290 +0000",1553849483.290491,0.296600,-1.162247,2.166009,0.116113,0.917698,-0.379931,0.000000,0.000000,0.000000,-1,0.637572,0.235745,0.448526,-0.087350,0.206081,0.461139
"2019-03-29 08:51:23.313 +0000",1553849483.312799,0.316183,-1.143480,2.181642,0.128863,0.910081,-0.393887,0.000000,0.000000,0.000000,-1,0.787283,0.334577,0.540753,-0.006274,0.110457,0.462109
"2019-03-29 08:51:23.335 +0000",1553849483.335108,0.335969,-1.122413,2.192022,0.142921,0.901149,-0.409273,0.000000,0.000000,0.000000,-1,0.824692,0.484365,0.461285,-0.084327,0.123296,0.329515
"2019-03-29 08:51:23.357 +0000",1553849483.357384,0.353485,-1.101468,2.201445,0.156568,0.891872,-0.424323,0.000000,0.000000,0.000000,-1,0.840075,0.393712,0.557618,-0.166440,0.204258,0.317725
"2019-03-29 08:51:23.380 +0000",1553849483.379692,0.377368,-1.079988,2.216422,0.173677,0.881952,-0.438174,0.000000,0.000000,0.000000,-1,0.713844,0.515799,0.649521,-0.271318,0.231253,0.391497
"2019-03-29 08:51:23.402 +0000",1553849483.402008,0.403687,-1.064269,2.234433,0.190570,0.874434,-0.446148,0.000000,0.000000,0.000000,-1,0.396178,0.386282,0.593470,-0.291721,0.261705,0.533718
"2019-03-29 08:51:23.424 +0000",1553849483.424307,0.420809,-1.050569,2.253415,0.203056,0.867706,-0.453712,0.000000,0.000000,0.000000,-1,0.417353,-0.239593,0.662302,-0.286247,0.249741,0.573341
"2019-03-29 08:51:23.447 +0000",1553849483.446584,0.432965,-1.036049,2.275588,0.213820,0.860398,-0.462598,0.000000,0.000000,0.000000,-1,0.356316,-0.245362,0.767773,-0.223708,0.230041,0.524808
"2019-03-29 08:51:23.469 +0000",1553849483.468894,0.448648,-1.024027,2.295331,0.225518,0.854209,-0.468475,0.000000,0.000000,0.000000,-1,0.243812,-0.000359,0.513720,-0.145273,0.082818,0.369918
"2019-03-29 08:51:23.491 +0000",1553849483.491198,0.456798,-1.019310,2.304641,0.231104,0.851747,-0.470232,0.000000,0.000000,0.000000,-1,-0.010785,0.008214,0.213324,-0.274378,0.396971,0.539339
"2019-03-29 08:51:23.513 +0000",1553849483.513477,0.464150,-1.018863,2.313273,0.234725,0.851512,-0.468861,0.000000,0.000000,0.000000,-1,-0.077530,0.028893,0.173637,-0.252303,0.329243,0.464741
"2019-03-29 08:51:23.536 +0000",1553849483.535783,0.468810,-1.020300,2.318056,0.236354,0.852265,-0.466670,0.000000,0.000000,0.000000,-1,-0.137317,-0.006342,-0.024562,-0.170269,-0.018540,0.372920
"2019-03-29 08:51:23.558 +0000",1553849483.558086,0.461989,-1.025117,2.317135,0.231333,0.854775,-0.464591,0.000000,0.000000,0.000000,-1,-0.204654,-0.383365,-0.171349,-0.547114,0.063468,0.465888
"2019-03-29 08:51:23.580 +0000",1553849483.580400,0.443664,-1.033698,2.310666,0.219624,0.859197,-0.462110,0.000000,0.000000,0.000000,-1,-0.351284,-0.738548,-0.387835,-0.589558,0.003596,0.489423
"2019-03-29 08:51:23.603 +0000",1553849483.602677,0.408903,-1.049820,2.298280,0.197898,0.867333,-0.456693,0.000000,0.000000,0.000000,-1,-0.675089,-1.269899,-0.651214,-0.523536,0.278617,0.449964
"2019-03-29 08:51:23.625 +0000",1553849483.624974,0.359409,-1.075698,2.283590,0.167109,0.879922,-0.444761,0.000000,0.000000,0.000000,-1,-1.178993,-1.893030,-0.769953,-0.533641,0.436881,0.485715
"2019-03-29 08:51:23.647 +0000",1553849483.647290,0.307626,-1.117619,2.272818,0.132572,0.899060,-0.417271,0.000000,0.000000,0.000000,-1,-2.009587,-1.695660,-0.856417,-0.407749,0.120074,0.498249
"2019-03-29 08:51:23.670 +0000",1553849483.669567,0.277715,-1.171613,2.263474,0.106556,0.921379,-0.373774,0.000000,0.000000,0.000000,-1,-2.356314,-0.544440,-0.871747,-0.391697,-0.114555,0.449442
"2019-03-29 08:51:23.692 +0000",1553849483.691876,0.259110,-1.228999,2.242559,0.085880,0.942154,-0.323992,0.000000,0.000000,0.000000,-1,-2.353982,0.274146,-1.052688,-0.322239,0.505096,0.425554
"2019-03-29 08:51:23.714 +0000",1553849483.714184,0.238611,-1.281397,2.226713,0.067450,0.958416,-0.277291,0.000000,0.000000,0.000000,-1,-2.216416,-0.710943,-0.680407,-0.023565,0.040715,0.399178
"2019-03-29 08:51:23.736 +0000",1553849483.736461,0.203853,-1.334358,2.216494,0.047421,0.972179,-0.229391,0.000000,0.000000,0.000000,-1,-2.221529,-1.270393,-0.609694,0.189152,0.346211,0.291326
"2019-03-29 08:51:23.759 +0000",1553849483.758769,0.144068,-1.378978,2.188094,0.027371,0.981659,-0.188669,0.000000,0.000000,0.000000,-1,-1.732664,-1.376224,-0.673053,0.405506,0.450836,0.093240
"2019-03-29 08:51:23.781 +0000",1553849483.781076,0.026805,-1.412225,2.091270,0.004232,0.987454,-0.157851,0.000000,0.000000,0.000000,-1,-1.265708,-0.613462,-1.025735,0.307505,0.336261,-0.100587
"2019-03-29 08:51:23.803 +0000",1553849483.803385,-0.185000,-1.432536,1.888241,-0.025351,0.990457,-0.135468,0.000000,0.000000,0.000000,-1,-0.924616,-0.575252,-1.362115,0.099296,0.182211,-0.125000
"2019-03-29 08:51:23.826 +0000",1553849483.825661,-0.493190,-1.442287,1.596496,-0.060674,0.991754,-0.112883,0.000000,0.000000,0.000000,-1,-1.036206,-1.196038,-1.553898,-0.089778,0.223029,-0.048722
"2019-03-29 08:51:23.848 +0000",1553849483.847968,-0.864151,-1.443712,1.265398,-0.096393,0.991936,-0.082292,0.000000,0.000000,0.000000,-1,-1.323010,-2.189061,-1.278490,-0.139355,0.153221,0.143587
"2019-03-29 08:51:23.870 +0000",1553849483.870276,-1.215812,-1.439996,0.966624,-0.122296,0.991458,-0.045333,0.000000,0.000000,0.000000,-1,-1.460806,-2.686879,-0.842422,-0.061481,0.097211,0.085678
"2019-03-29 08:51:23.893 +0000",1553849483.892554,-1.536525,-1.430069,0.708834,-0.140181,0.990114,-0.004806,0.000000,0.000000,0.000000,-1,-1.393975,-3.035656,-0.697875,0.130674,0.016661,-0.068726
"2019-03-29 08:51:23.915 +0000",1553849483.914860,-1.782480,-1.413609,0.529402,-0.153046,0.987672,0.032890,0.000000,0.000000,0.000000,-1,-1.162720,-3.090448,-0.576958,0.124497,-0.074586,-0.209999
"2019-03-29 08:51:23.937 +0000",1553849483.937170,-1.967408,-1.396739,0.413926,-0.159736,0.984890,0.066898,0.000000,0.000000,0.000000,-1,-0.951348,-3.254485,-0.391811,0.076927,-0.169293,-0.242756
"2019-03-29 08:51:23.959 +0000",1553849483.959476,-2.114303,-1.384333,0.341627,-0.158671,0.982666,0.095870,0.000000,0.000000,0.000000,-1,-0.664471,-3.495708,-0.133995,0.108561,-0.238861,-0.256072
"2019-03-29 08:51:23.982 +0000",1553849483.981754,-2.242676,-1.379080,0.291914,-0.149130,0.981679,0.118606,0.000000,0.000000,0.000000,-1,-0.373563,-3.548584,0.158126,0.185904,-0.286305,-0.275832
"2019-03-29 08:51:24.004 +0000",1553849484.004061,-2.363636,-1.379031,0.247242,-0.133762,0.981669,0.135768,0.000000,0.000000,0.000000,-1,-0.263823,-3.423792,0.287322,0.357029,-0.323283,-0.273356
"2019-03-29 08:51:24.026 +0000",1553849484.026368,-2.480927,-1.377203,0.202337,-0.118056,0.981319,0.151905,0.000000,0.000000,0.000000,-1,-0.350624,-3.204012,0.188571,0.403670,-0.321285,-0.183262
"2019-03-29 08:51:24.049 +0000",1553849484.048646,-2.575762,-1.371249,0.173079,-0.106272,0.980156,0.167331,0.000000,0.000000,0.000000,-1,-0.361269,-2.733750,-0.040145,0.380808,-0.278435,-0.044986
"2019-03-29 08:51:24.071 +0000",1553849484.070944,-2.630684,-1.363273,0.172129,-0.100746,0.978544,0.179726,0.000000,0.000000,0.000000,-1,-0.244960,-2.229991,-0.209559,0.250785,-0.177717,0.230125
"2019-03-29 08:51:24.093 +0000",1553849484.093261,-2.657307,-1.360347,0.190437,-0.097259,0.977937,0.184878,0.000000,0.000000,0.000000,-1,0.081436,-1.876776,-0.203871,0.275146,-0.074388,0.246656
"2019-03-29 08:51:24.116 +0000",1553849484.115568,-2.677327,-1.362643,0.207952,-0.092533,0.978414,0.184780,0.000000,0.000000,0.000000,-1,0.171521,-1.557363,-0.005700,0.240909,0.011561,0.200047
"2019-03-29 08:51:24.138 +0000",1553849484.137839,-2.719329,-1.365050,0.198499,-0.083726,0.978909,0.186353,0.000000,0.000000,0.000000,-1,-0.034727,-1.430145,0.149390,0.151369,-0.195629,0.288150
"2019-03-29 08:51:24.160 +0000",1553849484.160145,-2.758957,-1.361458,0.187017,-0.077590,0.978169,0.192784,0.000000,0.000000,0.000000,-1,-0.252431,-1.140773,-0.071607,0.247009,-0.260884,0.358378
"2019-03-29 08:51:24.182 +0000",1553849484.182461,-2.763704,-1.353545,0.203107,-0.079528,0.976494,0.200339,0.000000,0.000000,0.000000,-1,-0.264809,-0.785296,-0.398549,0.282165,-0.129005,0.421212
"2019-03-29 08:51:24.205 +0000",1553849484.204738,-2.733195,-1.344596,0.248994,-0.089069,0.974526,0.205832,0.000000,0.000000,0.000000,-1,-0.147821,-0.568523,-0.660936,0.196354,0.037819,0.442758
"2019-03-29 08:51:24.227 +0000",1553849484.227046,-2.677270,-1.337969,0.315677,-0.103325,0.973018,0.206301,0.000000,0.000000,0.000000,-1,0.121576,-0.279782,-0.779995,0.190086,-0.030574,0.420851
"2019-03-29 08:51:24.249 +0000",1553849484.249354,-2.598052,-1.335634,0.396631,-0.120501,0.972477,0.199421,0.000000,0.000000,0.000000,-1,0.425485,0.198905,-0.772949,0.226855,-0.144321,0.384639
"2019-03-29 08:51:24.272 +0000",1553849484.271638,-2.508173,-1.338005,0.481581,-0.136549,0.973026,0.185942,0.000000,0.000000,0.000000,-1,0.639693,0.383088,-0.566081,0.265776,-0.290379,0.333178
"2019-03-29 08:51:24.294 +0000",1553849484.293930,-2.448946,-1.343511,0.532657,-0.143892,0.974282,0.173407,0.000000,0.000000,0.000000,-1,0.371981,0.392219,-0.083707,0.408190,-0.152794,0.267633
"2019-03-29 08:51:24.316 +0000",1553849484.316244,-2.446985,-1.346955,0.525721,-0.142084,0.975052,0.170546,0.000000,0.000000,0.000000,-1,-0.084494,0.433884,0.243231,0.454950,0.014847,0.273592
"2019-03-29 08:51:24.339 +0000",1553849484.338553,-2.477898,-1.347908,0.485315,-0.136172,0.975263,0.174124,0.000000,0.000000,0.000000,-1,-0.289852,0.311197,0.350918,0.537646,0.333041,0.398294
"2019-03-29 08:51:24.361 +0000",1553849484.360830,-2.505113,-1.348280,0.448234,-0.131168,0.975345,0.177473,0.000000,0.000000,0.000000,-1,-0.075492,0.501712,0.286051,0.557895,0.415051,0.390215
"2019-03-29 08:51:24.383 +0000",1553849484.383138,-2.477397,-1.356415,0.450438,-0.131140,0.977108,0.167517,0.000000,0.000000,0.000000,-1,0.613450,1.750091,0.151211,0.535910,0.358249,0.266550
"2019-03-29 08:51:24.405 +0000",1553849484.405445,-2.325284,-1.378894,0.540425,-0.138967,0.981643,0.130631,0.000000,0.000000,0.000000,-1,1.697939,3.445298,0.046068,0.308706,0.110764,0.327621
"2019-03-29 08:51:24.428 +0000",1553849484.427722,-2.019614,-1.407036,0.764793,-0.146882,0.986621,0.070738,0.000000,0.000000,0.000000,-1,2.349293,3.878637,0.058628,0.086488,-0.336383,0.144166
"2019-03-29 08:51:24.450 +0000",1553849484.450030,-1.646189,-1.425789,1.057077,-0.144090,0.989505,0.010884,0.000000,0.000000,0.000000,-1,1.900406,3.603190,0.454132,0.023164,-0.591632,-0.431370
"2019-03-29 08:51:24.472 +0000",1553849484.472340,-1.365161,-1.440879,1.279393,-0.126823,0.991573,-0.026453,0.000000,0.000000,0.000000,-1,0.962968,2.031216,0.918000,-0.017892,-0.332225,-0.444067
"2019-03-29 08:51:24.495 +0000",1553849484.494645,-1.199558,-1.458598,1.424523,-0.104336,0.993712,-0.040617,0.000000,0.000000,0.000000,-1,0.344922,0.440536,0.962869,0.048168,0.017732,-0.240374
"2019-03-29 08:51:24.517 +0000",1553849484.516922,-1.057062,-1.469050,1.565692,-0.088460,0.994828,-0.049915,0.000000,0.000000,0.000000,-1,0.547207,0.023061,0.518962,-0.134517,0.209945,0.159580
"2019-03-29 08:51:24.539 +0000",1553849484.539230,-0.845318,-1.461636,1.774513,-0.081510,0.994048,-0.072283,0.000000,0.000000,0.000000,-1,1.217054,0.170934,0.192915,-0.197116,0.188676,0.181170
"2019-03-29 08:51:24.562 +0000",1553849484.561537,-0.666972,-1.440688,1.950556,-0.080259,0.991548,-0.101938,0.000000,0.000000,0.000000,-1,1.356988,0.245460,0.044689,-0.230776,0.079802,0.068155
"2019-03-29 08:51:24.584 +0000",1553849484.583815,-0.528568,-1.416557,2.085251,-0.077474,0.988129,-0.132663,0.000000,0.000000,0.000000,-1,1.362113,0.138610,0.089058,-0.042917,-0.015259,-0.095456
"2019-03-29 08:51:24.606 +0000",1553849484.606124,-0.433513,-1.392061,2.172528,-0.074681,0.984069,-0.161340,0.000000,0.000000,0.000000,-1,1.245676,0.699354,0.048055,0.157872,-0.093765,0.176126
"2019-03-29 08:51:24.628 +0000",1553849484.628430,-0.348819,-1.366853,2.237672,-0.069223,0.979276,-0.190335,0.000000,0.000000,0.000000,-1,1.261009,0.929516,0.078273,0.154276,-0.006772,0.137280
"2019-03-29 08:51:24.651 +0000",1553849484.650735,-0.273857,-1.342376,2.291114,-0.061240,0.974025,-0.218000,0.000000,0.000000,0.000000,-1,1.152675,1.163800,0.233695,0.109778,0.035420,0.187178
"2019-03-29 08:51:24.673 +0000",1553849484.673013,-0.199559,-1.320825,2.340887,-0.049039,0.968920,-0.242467,0.000000,0.000000,0.000000,-1,1.016201,1.127098,0.300952,0.150480,0.084868,0.248112
"2019-03-29 08:51:24.695 +0000",1553849484.695328,-0.134762,-1.299044,2.381767,-0.036063,0.963302,-0.265986,0.000000,0.000000,0.000000,-1,1.071430,1.068148,0.320107,0.139640,0.041932,0.362956
"2019-03-29 08:51:24.718 +0000",1553849484.717629,-0.075807,-1.275593,2.425614,-0.022034,0.956743,-0.290099,0.000000,0.000000,0.000000,-1,1.081975,0.538783,0.534462,0.070282,0.039381,0.365645
"2019-03-29 08:51:24.740 +0000",1553849484.739907,-0.020275,-1.252682,2.475566,-0.006341,0.949827,-0.312712,0.000000,0.000000,0.000000,-1,1.066042,0.373166,0.653776,0.125100,-0.107710,0.102675
"2019-03-29 08:51:24.762 +0000",1553849484.762214,0.038146,-1.227795,2.522046,0.012826,0.941750,-0.336071,0.000000,0.000000,0.000000,-1,1.131765,0.818692,0.700712,0.166434,-0.076729,0.137493
"2019-03-29 08:51:24.785 +0000",1553849484.784521,0.096922,-1.200554,2.562601,0.035015,0.932240,-0.360143,0.000000,0.000000,0.000000,-1,1.203406,0.907372,0.721045,0.045627,-0.014851,0.246954
"2019-03-29 08:51:24.807 +0000",1553849484.806799,0.143454,-1.171554,2.597756,0.055573,0.921356,-0.384727,0.000000,0.000000,0.000000,-1,1.205686,0.406808,0.749059,-0.021637,-0.002487,0.318016
"2019-03-29 08:51:24.829 +0000",1553849484.829107,0.170762,-1.145419,2.628229,0.070125,0.910883,-0.406663,0.000000,0.000000,0.000000,-1,0.960410,-0.239350,0.691422,0.019291,0.082617,0.385667
"2019-03-29 08:51:24.851 +0000",1553849484.851414,0.188633,-1.126722,2.651094,0.080561,0.903009,-0.422002,0.000000,0.000000,0.000000,-1,0.626187,0.102962,0.494716,0.052175,0.117408,0.429326
"2019-03-29 08:51:24.874 +0000",1553849484.873722,0.212380,-1.116262,2.664136,0.092545,0.898465,-0.429180,0.000000,0.000000,0.000000,-1,0.274434,0.688710,0.264828,-0.069168,0.219088,0.539379
"2019-03-29 08:51:24.896 +0000",1553849484.895995,0.231893,-1.113989,2.671668,0.101370,0.897465,-0.429278,0.000000,0.000000,0.000000,-1,-0.032381,0.453058,0.119164,-0.416342,0.312816,0.651889
"2019-03-29 08:51:24.918 +0000",1553849484.918307,0.239294,-1.116016,2.671605,0.104113,0.898358,-0.426748,0.000000,0.000000,0.000000,-1,-0.113691,0.345093,-0.115615,-0.396426,0.285450,0.539023
"2019-03-29 08:51:24.941 +0000",1553849484.940614,0.238354,-1.122052,2.661135,0.102430,0.900993,-0.421569,0.000000,0.000000,0.000000,-1,-0.298999,0.339227,-0.340180,-0.326169,0.277917,0.466338
"2019-03-29 08:51:24.963 +0000",1553849484.962895,0.225355,-1.135018,2.642766,0.094323,0.906542,-0.411443,0.000000,0.000000,0.000000,-1,-0.604978,0.013437,-0.573122,-0.429238,0.283827,0.581136
"2019-03-29 08:51:24.985 +0000",1553849484.985199,0.186793,-1.158067,2.612727,0.074490,0.916030,-0.394133,0.000000,0.000000,0.000000,-1,-1.088386,-0.841589,-0.856026,-0.437832,0.295594,0.573348
"2019-03-29 08:51:25.008 +0000",1553849485.007507,0.118475,-1.193928,2.567941,0.043498,0.929822,-0.365430,0.000000,0.000000,0.000000,-1,-1.709350,-1.325006,-1.097628,-0.463817,0.380084,0.532087
"2019-03-29 08:51:25.030 +0000",1553849485.029815,0.021168,-1.243754,2.495211,0.006800,0.946997,-0.321172,0.000000,0.000000,0.000000,-1,-2.425405,-1.230439,-1.377896,-0.480585,0.439966,0.396733
"2019-03-29 08:51:25.052 +0000",1553849485.052093,-0.114699,-1.302400,2.374681,-0.030350,0.964197,-0.263443,0.000000,0.000000,0.000000,-1,-2.777860,-0.674903,-1.467335,-0.355438,0.308737,0.278595
"2019-03-29 08:51:25.074 +0000",1553849485.074399,-0.294835,-1.354818,2.202771,-0.062273,0.976767,-0.205056,0.000000,0.000000,0.000000,-1,-2.582346,-0.756155,-1.186168,-0.066649,0.180414,0.440148
"2019-03-29 08:51:25.097 +0000",1553849485.096706,-0.532370,-1.396294,1.984370,-0.088124,0.984813,-0.149590,0.000000,0.000000,0.000000,-1,-2.345623,-0.988774,-0.924729,0.160726,0.176350,0.491082
"2019-03-29 08:51:25.119 +0000",1553849485.118985,-0.803836,-1.419855,1.711350,-0.108269,0.988630,-0.104348,0.000000,0.000000,0.000000,-1,-1.815316,0.482682,-0.933842,0.616051,0.377138,-0.187613
"2019-03-29 08:51:25.141 +0000",1553849485.141290,-1.037927,-1.421895,1.448130,-0.127783,0.988935,-0.075363,0.000000,0.000000,0.000000,-1,-1.235499,1.471623,-1.024247,0.827093,0.474704,-0.341415
"2019-03-29 08:51:25.164 +0000",1553849485.163599,-1.208138,-1.397488,1.261358,-0.161226,0.985020,-0.061176,0.000000,0.000000,0.000000,-1,-0.495800,-0.441123,-2.022954,0.603212,0.319378,-0.078167
"2019-03-29 08:51:25.186 +0000",1553849485.185870,-1.396273,-1.354495,1.096891,-0.211359,0.976698,-0.037266,0.000000,0.000000,0.000000,-1,-1.035170,-1.400210,-2.169740,0.019235,0.269243,-0.126872
"2019-03-29 08:51:25.208 +0000",1553849485.208184,-1.552449,-1.317912,0.976852,-0.250155,0.968195,-0.004590,0.000000,0.000000,0.000000,-1,-1.065783,-1.816310,-1.609057,-0.332075,0.394537,-0.349566
"2019-03-29 08:51:25.230 +0000",1553849485.230491,-1.679001,-1.285258,0.892301,-0.280027,0.959510,0.030419,0.000000,0.000000,0.000000,-1,-1.133741,-2.377178,-1.261718,-0.200961,0.327966,0.144431
"2019-03-29 08:51:25.253 +0000",1553849485.252800,-1.822954,-1.258819,0.811049,-0.297234,0.951729,0.076580,0.000000,0.000000,0.000000,-1,-1.293212,-3.213411,-0.854909,0.149300,0.051903,-0.233974
"2019-03-29 08:51:25.275 +0000",1553849485.275075,-1.951378,-1.234727,0.752145,-0.306182,0.944058,0.122500,0.000000,0.000000,0.000000,-1,-1.041718,-3.256970,-0.694385,0.274322,-0.141721,-0.380099
"2019-03-29 08:51:25.297 +0000",1553849485.297384,-2.053833,-1.215236,0.718557,-0.308287,0.937452,0.161689,0.000000,0.000000,0.000000,-1,-0.677036,-3.053099,-0.502514,0.277113,-0.246885,-0.438911
"2019-03-29 08:51:25.320 +0000",1553849485.319696,-2.122355,-1.204644,0.712727,-0.304934,0.933712,0.187611,0.000000,0.000000,0.000000,-1,-0.078809,-2.712447,-0.275782,0.380251,-0.329891,-0.424290
"2019-03-29 08:51:25.342 +0000",1553849485.341969,-2.163127,-1.205602,0.728974,-0.296291,0.934054,0.199385,0.000000,0.000000,0.000000,-1,0.391679,-2.375343,0.001790,0.579876,-0.439334,-0.286146
"2019-03-29 08:51:25.364 +0000",1553849485.364277,-2.191147,-1.215632,0.750984,-0.282951,0.937589,0.202151,0.000000,0.000000,0.000000,-1,0.603618,-2.071686,0.247293,0.605552,-0.441999,-0.248507
"2019-03-29 08:51:25.387 +0000",1553849485.386585,-2.214570,-1.229841,0.772917,-0.267455,0.942436,0.200705,0.000000,0.000000,0.000000,-1,0.654193,-1.937285,0.323035,0.619613,-0.420372,-0.125907
"2019-03-29 08:51:25.409 +0000",1553849485.408863,-2.234854,-1.242525,0.795792,-0.253895,0.946601,0.198705,0.000000,0.000000,0.000000,-1,0.588509,-1.785306,0.185199,0.434330,-0.345222,0.035258
"2019-03-29 08:51:25.431 +0000",1553849485.431169,-2.245785,-1.252081,0.817171,-0.244634,0.949639,0.195807,0.000000,0.000000,0.000000,-1,0.433164,-1.166821,0.128780,0.357305,-0.289177,0.079416
"2019-03-29 08:51:25.453 +0000",1553849485.453476,-2.267619,-1.257069,0.817787,-0.236665,0.951190,0.198058,0.000000,0.000000,0.000000,-1,-0.045673,-0.963874,0.173914,0.235979,-0.099612,0.199250
"2019-03-29 08:51:25.476 +0000",1553849485.475784,-2.302174,-1.256262,0.801549,-0.230253,0.950941,0.206629,0.000000,0.000000,0.000000,-1,-0.217820,-0.789663,0.070569,0.173200,0.069460,0.355382
"2019-03-29 08:51:25.498 +0000",1553849485.498062,-2.325492,-1.250918,0.792313,-0.229072,0.949274,0.215420,0.000000,0.000000,0.000000,-1,-0.296514,-0.531178,-0.199716,0.216285,0.145041,0.699604
"2019-03-29 08:51:25.520 +0000",1553849485.520364,-2.331556,-1.238818,0.795845,-0.236064,0.945399,0.224709,0.000000,0.000000,0.000000,-1,-0.316691,-0.386179,-0.543302,0.094019,0.199330,0.719643
"2019-03-29 08:51:25.543 +0000",1553849485.542676,-2.321145,-1.226798,0.817944,-0.246685,0.941414,0.229971,0.000000,0.000000,0.000000,-1,0.017877,-0.548637,-0.600022,0.040309,0.173882,0.655359
"2019-03-29 08:51:25.565 +0000",1553849485.564983,-2.303993,-1.225354,0.846603,-0.251602,0.940926,0.226616,0.000000,0.000000,0.000000,-1,0.389898,-0.204835,-0.169966,0.117951,-0.240914,0.363701
"2019-03-29 08:51:25.587 +0000",1553849485.587260,-2.287681,-1.228266,0.859241,-0.253199,0.941908,0.220681,0.000000,0.000000,0.000000,-1,0.015778,0.378603,-0.040086,0.260081,-0.356153,0.355094
"2019-03-29 08:51:25.610 +0000",1553849485.609579,-2.259287,-1.225122,0.860551,-0.261648,0.940847,0.215284,0.000000,0.000000,0.000000,-1,0.063966,1.658879,-0.127103,0.404943,0.029566,0.280382
"2019-03-29 08:51:25.632 +0000",1553849485.631868,-2.217418,-1.229703,0.866745,-0.266987,0.942389,0.201545,0.000000,0.000000,0.000000,-1,0.286406,1.535165,0.304558,0.534778,0.796121,0.334527
"2019-03-29 08:51:25.654 +0000",1553849485.654152,-2.160369,-1.250501,0.883157,-0.261694,0.949142,0.175057,0.000000,0.000000,0.000000,-1,1.070184,2.116722,0.776099,0.584265,0.531097,0.132484
"2019-03-29 08:51:25.676 +0000",1553849485.676461,-2.043315,-1.286510,0.956050,-0.249740,0.959862,0.127652,0.000000,0.000000,0.000000,-1,1.985267,2.132490,0.936381,0.745910,-0.175026,-0.006161
"2019-03-29 08:51:25.699 +0000",1553849485.698769,-1.840279,-1.322077,1.097567,-0.237279,0.969229,0.065537,0.000000,0.000000,0.000000,-1,2.101166,3.710276,0.793409,0.766102,-0.677114,-0.439819
"2019-03-29 08:51:25.721 +0000",1553849485.721050,-1.576152,-1.346336,1.276859,-0.222577,0.974914,0.001192,0.000000,0.000000,0.000000,-1,1.934756,3.722895,0.893709,0.340527,-0.406006,-0.402147
"2019-03-29 08:51:25.743 +0000",1553849485.743354,-1.347918,-1.365887,1.450135,-0.198445,0.979079,-0.044976,0.000000,0.000000,0.000000,-1,1.299943,2.032154,1.150351,0.028294,-0.088516,-0.401862
"2019-03-29 08:51:25.766 +0000",1553849485.765661,-1.151779,-1.381246,1.620533,-0.172117,0.982089,-0.076660,0.000000,0.000000,0.000000,-1,1.234769,0.912272,1.043653,-0.215045,0.402173,-0.401764
"2019-03-29 08:51:25.788 +0000",1553849485.787962,-0.950533,-1.381283,1.817469,-0.153290,0.982096,-0.109496,0.000000,0.000000,0.000000,-1,1.590378,0.134918,0.713278,-0.243301,0.196111,0.178909
"2019-03-29 08:51:25.810 +0000",1553849485.810246,-0.755566,-1.363818,2.012024,-0.140914,0.978656,-0.149582,0.000000,0.000000,0.000000,-1,1.891724,0.312402,0.450078,-0.282518,0.078503,0.097001
"2019-03-29 08:51:25.833 +0000",1553849485.832554,-0.604082,-1.338418,2.157999,-0.130808,0.973121,-0.189536,0.000000,0.000000,0.000000,-1,1.628312,0.493006,0.419829,-0.242178,-0.015663,-0.081140
"2019-03-29 08:51:25.855 +0000",1553849485.854840,-0.490229,-1.317000,2.262369,-0.118216,0.967966,-0.221509,0.000000,0.000000,0.000000,-1,1.346266,0.672546,0.434242,0.052969,-0.074091,0.079954
"2019-03-29 08:51:25.877 +0000",1553849485.877140,-0.381038,-1.290847,2.340622,-0.102754,0.961070,-0.256490,0.000000,0.000000,0.000000,-1,1.522300,2.128582,0.293617,0.129014,-0.019495,0.285298
"2019-03-29 08:51:25.899 +0000",1553849485.899447,-0.282649,-1.264560,2.398412,-0.084081,0.953475,-0.289510,0.000000,0.000000,0.000000,-1,1.263669,1.502507,0.341242,0.162084,0.060868,0.329701
"2019-03-29 08:51:25.922 +0000",1553849485.921753,-0.206569,-1.235491,2.445181,-0.067491,0.944310,-0.322062,0.000000,0.000000,0.000000,-1,1.530690,1.559023,0.293714,0.248063,0.089458,0.393168
"2019-03-29 08:51:25.944 +0000",1553849485.944038,-0.134409,-1.207865,2.491562,-0.047574,0.934860,-0.351814,0.000000,0.000000,0.000000,-1,1.115479,0.919520,0.703629,0.232571,0.028473,0.381553
"2019-03-29 08:51:25.966 +0000",1553849485.966338,-0.071656,-1.190989,2.545256,-0.026543,0.928736,-0.369790,0.000000,0.000000,0.000000,-1,0.771807,0.505099,0.777871,0.254220,-0.052882,0.347527
"2019-03-29 08:51:25.989 +0000",1553849485.988647,-0.011836,-1.174511,2.591943,-0.004568,0.922501,-0.385967,0.000000,0.000000,0.000000,-1,0.768154,0.877698,0.742308,0.203604,-0.196336,0.343822
"2019-03-29 08:51:26.011 +0000",1553849486.010937,0.039899,-1.155699,2.628782,0.016086,0.915077,-0.402958,0.000000,0.000000,0.000000,-1,0.879079,0.653327,0.605407,-0.166279,0.142662,0.364872
"2019-03-29 08:51:26.033 +0000",1553849486.033245,0.072256,-1.137162,2.654230,0.030333,0.907445,-0.419075,0.000000,0.000000,0.000000,-1,0.719095,0.373549,0.485008,-0.210296,0.189952,0.424324
"2019-03-29 08:51:26.056 +0000",1553849486.055538,0.098961,-1.124403,2.673904,0.042653,0.902010,-0.429603,0.000000,0.000000,0.000000,-1,0.411389,0.418535,0.381512,-0.204305,0.181425,0.458793
"2019-03-29 08:51:26.078 +0000",1553849486.077815,0.124284,-1.119757,2.689330,0.054036,0.899994,-0.432539,0.000000,0.000000,0.000000,-1,0.053557,0.576647,0.270788,-0.293034,0.293945,0.458998
"2019-03-29 08:51:26.100 +0000",1553849486.100123,0.141377,-1.120077,2.695367,0.061381,0.900134,-0.431267,0.000000,0.000000,0.000000,-1,-0.054337,0.458604,-0.022219,-0.347330,0.323194,0.461266
"2019-03-29 08:51:26.122 +0000",1553849486.122429,0.140077,-1.123832,2.681334,0.060348,0.901763,-0.427996,0.000000,0.000000,0.000000,-1,-0.207709,0.587341,-0.435287,-0.289153,0.324860,0.486437
"2019-03-29 08:51:26.145 +0000",1553849486.144736,0.131218,-1.138262,2.656638,0.054846,0.907906,-0.415570,0.000000,0.000000,0.000000,-1,-0.829381,0.562991,-0.620178,-0.225790,0.241859,0.529065
"2019-03-29 08:51:26.167 +0000",1553849486.167043,0.101559,-1.166619,2.622408,0.039871,0.919426,-0.391236,0.000000,0.000000,0.000000,-1,-1.445605,-0.348504,-0.857978,-0.155715,0.213081,0.674836
"2019-03-29 08:51:26.189 +0000",1553849486.189323,0.037812,-1.214720,2.570180,0.013178,0.937272,-0.348350,0.000000,0.000000,0.000000,-1,-2.456800,-0.704356,-1.152982,-0.191798,0.210296,0.677131
"2019-03-29 08:51:26.212 +0000",1553849486.211631,-0.066358,-1.271908,2.471163,-0.019525,0.955664,-0.293810,0.000000,0.000000,0.000000,-1,-2.554560,-0.380960,-1.495803,-0.345907,0.277749,0.601290
"2019-03-29 08:51:26.234 +0000",1553849486.233938,-0.232277,-1.323510,2.319568,-0.056345,0.969580,-0.238200,0.000000,0.000000,0.000000,-1,-2.548561,-1.353637,-1.399088,-0.364523,0.369592,0.365488
"2019-03-29 08:51:26.256 +0000",1553849486.256214,-0.456495,-1.366550,2.128792,-0.089408,0.979214,-0.182060,0.000000,0.000000,0.000000,-1,-2.385178,-1.588116,-0.973912,-0.212991,0.460071,0.203636
"2019-03-29 08:51:26.279 +0000",1553849486.278523,-0.704804,-1.400942,1.891901,-0.109518,0.985609,-0.128764,0.000000,0.000000,0.000000,-1,-2.360994,-0.236750,-0.807259,0.217794,0.615526,-0.179189
"2019-03-29 08:51:26.301 +0000",1553849486.300817,-1.004570,-1.415503,1.576142,-0.130530,0.987966,-0.082972,0.000000,0.000000,0.000000,-1,-1.931135,1.066189,-1.120092,0.757376,0.419672,-0.202031
"2019-03-29 08:51:26.323 +0000",1553849486.323133,-1.224016,-1.409947,1.312330,-0.150623,0.987092,-0.054433,0.000000,0.000000,0.000000,-1,-1.372556,2.280133,-0.919737,0.651584,0.373931,0.047093
"2019-03-29 08:51:26.345 +0000",1553849486.345409,-1.352107,-1.391946,1.135482,-0.173661,0.984049,-0.038595,0.000000,0.000000,0.000000,-1,-0.902048,1.518335,-1.375495,0.448152,0.381140,0.244085
"2019-03-29 08:51:26.368 +0000",1553849486.367717,-1.478893,-1.358520,1.011561,-0.209796,0.977554,-0.019336,0.000000,0.000000,0.000000,-1,-0.982091,-1.125699,-1.796173,0.516788,0.274018,0.116763
"2019-03-29 08:51:26.390 +0000",1553849486.390026,-1.621358,-1.324026,0.897419,-0.243961,0.969706,0.012346,0.000000,0.000000,0.000000,-1,-1.053575,-1.564639,-1.411461,0.153385,0.238561,-0.158326
"2019-03-29 08:51:26.412 +0000",1553849486.412303,-1.746540,-1.290577,0.816102,-0.272306,0.960995,0.048355,0.000000,0.000000,0.000000,-1,-1.262355,-2.680282,-1.360709,-0.170214,0.178486,-0.109619
"2019-03-29 08:51:26.435 +0000",1553849486.434610,-1.900736,-1.256930,0.745793,-0.292086,0.951147,0.100027,0.000000,0.000000,0.000000,-1,-1.177240,-4.344967,-1.125080,-0.074049,-0.064779,-0.180670
"2019-03-29 08:51:26.457 +0000",1553849486.456913,-1.997736,-1.230707,0.744541,-0.303629,0.942725,0.138127,0.000000,0.000000,0.000000,-1,-0.958870,-4.690304,-0.749747,-0.164831,-0.173575,-0.599431
"2019-03-29 08:51:26.479 +0000",1553849486.479226,-2.133220,-1.212254,0.714821,-0.296857,0.936409,0.187119,0.000000,0.000000,0.000000,-1,-0.682638,-4.756353,-0.363235,-0.005984,-0.240944,-0.684036
"2019-03-29 08:51:26.502 +0000",1553849486.501502,-2.249827,-1.203693,0.693826,-0.279300,0.933371,0.225411,0.000000,0.000000,0.000000,-1,-0.364596,-4.032742,-0.007284,0.294910,-0.450919,-0.705270
"2019-03-29 08:51:26.524 +0000",1553849486.523816,-2.328054,-1.206861,0.690783,-0.258680,0.934503,0.244516,0.000000,0.000000,0.000000,-1,0.344386,-2.919652,0.196589,0.619337,-0.543573,-0.566705
"2019-03-29 08:51:26.546 +0000",1553849486.546117,-2.350128,-1.222446,0.717253,-0.242829,0.939937,0.239901,0.000000,0.000000,0.000000,-1,1.003743,-1.665876,0.188223,0.724824,-0.525417,-0.209597
"2019-03-29 08:51:26.568 +0000",1553849486.568395,-2.332928,-1.239998,0.763527,-0.234947,0.945783,0.224261,0.000000,0.000000,0.000000,-1,0.970721,-0.996278,-0.024905,0.731011,-0.548872,-0.075458
"2019-03-29 08:51:26.591 +0000",1553849486.590703,-2.309243,-1.248207,0.806436,-0.234443,0.948418,0.213401,0.000000,0.000000,0.000000,-1,0.564029,-0.591031,-0.162655,0.551048,-0.502281,0.044747
"2019-03-29 08:51:26.613 +0000",1553849486.613004,-2.307593,-1.253876,0.821718,-0.230810,0.950200,0.209398,0.000000,0.000000,0.000000,-1,0.087333,-0.743756,0.159797,0.273107,-0.042378,0.255568
"2019-03-29 08:51:26.635 +0000",1553849486.635311,-2.368734,-1.248630,0.792088,-0.221061,0.948552,0.226675,0.000000,0.000000,0.000000,-1,-0.653982,-1.865198,0.041658,0.176993,0.177165,0.369623
"2019-03-29 08:51:26.658 +0000",1553849486.657595,-2.422069,-1.236871,0.774896,-0.215998,0.944763,0.246510,0.000000,0.000000,0.000000,-1,-0.486851,-1.321423,-0.283157,0.387324,0.164658,0.291011
"2019-03-29 08:51:26.680 +0000",1553849486.679909,-2.432908,-1.223586,0.777889,-0.221464,0.940326,0.258344,0.000000,0.000000,0.000000,-1,-0.399374,-0.323458,-0.531402,-0.019884,0.071988,0.624652
"2019-03-29 08:51:26.702 +0000",1553849486.702209,-2.421196,-1.210111,0.800795,-0.232813,0.935655,0.265232,0.000000,0.000000,0.000000,-1,-0.032752,-0.574945,-0.710132,-0.141989,0.035185,0.604138
"2019-03-29 08:51:26.724 +0000",1553849486.724488,-2.395041,-1.206652,0.846361,-0.241866,0.934429,0.261427,0.000000,0.000000,0.000000,-1,0.561084,-0.749990,-0.550775,-0.149339,-0.028728,0.438372
"2019-03-29 08:51:26.747 +0000",1553849486.746795,-2.362282,-1.212029,0.882249,-0.246763,0.936330,0.249786,0.000000,0.000000,0.000000,-1,0.443389,0.445015,-0.083825,0.169203,-0.371038,0.368317
"2019-03-29 08:51:26.769 +0000",1553849486.769106,-2.344348,-1.209351,0.885058,-0.252996,0.935387,0.247072,0.000000,0.000000,0.000000,-1,-0.255551,0.880886,-0.223212,0.409323,0.219856,0.343138
"2019-03-29 08:51:26.791 +0000",1553849486.791380,-2.304175,-1.202725,0.893438,-0.267314,0.933023,0.240855,0.000000,0.000000,0.000000,-1,-0.131336,1.573101,-0.331028,0.598552,0.603674,0.316731
"2019-03-29 08:51:26.814 +0000",1553849486.813686,-2.246218,-1.203144,0.904985,-0.280511,0.933174,0.224723,0.000000,0.000000,0.000000,-1,0.505710,2.669720,0.060205,0.853448,1.127099,0.453256
"2019-03-29 08:51:26.836 +0000",1553849486.835996,-2.126051,-1.222455,0.958337,-0.290059,0.939940,0.179940,0.000000,0.000000,0.000000,-1,1.646068,3.117795,0.330876,0.599049,0.360353,0.125281
"2019-03-29 08:51:26.858 +0000",1553849486.858303,-1.930864,-1.256252,1.094915,-0.289544,0.950937,0.109007,0.000000,0.000000,0.000000,-1,2.824715,3.164552,0.523250,0.749596,-0.547022,-0.253264
"2019-03-29 08:51:26.881 +0000",1553849486.880579,-1.655694,-1.282163,1.279583,-0.283617,0.958634,0.024136,0.000000,0.000000,0.000000,-1,2.326910,5.103158,0.546766,1.061998,-0.710724,-0.672910
"2019-03-29 08:51:26.903 +0000",1553849486.902872,-1.417573,-1.298821,1.422910,-0.265487,0.963242,-0.041000,0.000000,0.000000,0.000000,-1,1.438635,3.867050,1.013877,0.194397,-0.201279,-0.618240
"2019-03-29 08:51:26.925 +0000",1553849486.925195,-1.228470,-1.319041,1.542390,-0.234651,0.968477,-0.083619,0.000000,0.000000,0.000000,-1,1.006270,2.902185,1.270364,-0.174514,0.326964,-0.539046
"2019-03-29 08:51:26.947 +0000",1553849486.947471,-1.068363,-1.331218,1.669883,-0.207967,0.971438,-0.114271,0.000000,0.000000,0.000000,-1,1.038708,0.857696,0.956062,-0.274684,0.635724,-0.112627
"2019-03-29 08:51:26.970 +0000",1553849486.969779,-0.933551,-1.336940,1.809887,-0.186251,0.972780,-0.137876,0.000000,0.000000,0.000000,-1,1.234030,-0.315366,1.065801,-0.145139,0.217146,-0.163103
"2019-03-29 08:51:26.992 +0000",1553849486.992087,-0.777741,-1.332878,1.967353,-0.165370,0.971831,-0.167922,0.000000,0.000000,0.000000,-1,1.412969,0.614924,0.803309,0.040492,-0.034010,-0.047318
"2019-03-29 08:51:27.014 +0000",1553849487.014365,-0.620363,-1.321923,2.096978,-0.143189,0.969191,-0.200416,0.000000,0.000000,0.000000,-1,1.159046,1.699781,0.794811,0.178543,-0.158857,0.004875
"2019-03-29 08:51:27.037 +0000",1553849487.036672,-0.476089,-1.312693,2.199506,-0.116982,0.966876,-0.226862,0.000000,0.000000,0.000000,-1,0.899367,2.131149,0.715198,0.292351,-0.202487,0.157252
"2019-03-29 08:51:27.059 +0000",1553849487.058981,-0.356688,-1.296384,2.284747,-0.094619,0.962585,-0.253925,0.000000,0.000000,0.000000,-1,1.275775,1.449155,0.547737,0.259841,-0.013091,0.328510
"2019-03-29 08:51:27.081 +0000",1553849487.081288,-0.251313,-1.271102,2.355239,-0.073416,0.955427,-0.285954,0.000000,0.000000,0.000000,-1,1.259637,1.856225,0.520546,0.121848,0.129122,0.225987
"2019-03-29 08:51:27.104 +0000",1553849487.103566,-0.141637,-1.248844,2.418116,-0.044667,0.948619,-0.313250,0.000000,0.000000,0.000000,-1,1.105294,2.428943,0.717605,-0.050853,0.201329,0.156695
"2019-03-29 08:51:27.126 +0000",1553849487.125873,-0.041498,-1.228524,2.474684,-0.013924,0.941995,-0.335339,0.000000,0.000000,0.000000,-1,0.967052,1.836085,0.752581,-0.002708,-0.079980,0.419766
"2019-03-29 08:51:27.148 +0000",1553849487.148180,0.041943,-1.206926,2.529949,0.014923,0.934526,-0.355581,0.000000,0.000000,0.000000,-1,0.938176,1.032048,0.881279,-0.015533,-0.119875,0.254339
"2019-03-29 08:51:27.170 +0000",1553849487.170469,0.103216,-1.184163,2.583195,0.038851,0.926184,-0.375066,0.000000,0.000000,0.000000,-1,0.954331,0.339783,0.960623,-0.111773,-0.144247,0.175603
"2019-03-29 08:51:27.193 +0000",1553849487.192768,0.145313,-1.163298,2.627834,0.057387,0.918115,-0.392137,0.000000,0.000000,0.000000,-1,0.745240,-0.080340,0.817878,-0.087355,-0.064767,0.289277
"2019-03-29 08:51:27.215 +0000",1553849487.215072,0.176869,-1.145776,2.655882,0.072550,0.911030,-0.405907,0.000000,0.000000,0.000000,-1,0.681814,0.604945,0.528925,-0.277827,0.088390,0.592873
"2019-03-29 08:51:27.237 +0000",1553849487.237381,0.205918,-1.131537,2.670731,0.086953,0.905067,-0.416285,0.000000,0.000000,0.000000,-1,0.457750,0.602872,0.335323,-0.433480,0.165856,0.568918
"2019-03-29 08:51:27.260 +0000",1553849487.259657,0.220081,-1.124720,2.682956,0.094185,0.902147,-0.421023,0.000000,0.000000,0.000000,-1,0.162179,-0.145460,0.264925,-0.578972,0.337462,0.423983
"2019-03-29 08:51:27.282 +0000",1553849487.281965,0.222591,-1.122497,2.688675,0.095684,0.901186,-0.422740,0.000000,0.000000,0.000000,-1,0.002049,0.036863,0.031257,-0.434795,0.362242,0.386012
"2019-03-29 08:51:27.304 +0000",1553849487.304273,0.224842,-1.129699,2.685042,0.095185,0.904284,-0.416186,0.000000,0.000000,0.000000,-1,-0.508200,0.320926,-0.258048,-0.356767,0.359968,0.515414
"2019-03-29 08:51:27.327 +0000",1553849487.326550,0.213887,-1.150488,2.666428,0.086611,0.912963,-0.398744,0.000000,0.000000,0.000000,-1,-1.029481,0.088939,-0.705288,-0.316271,0.348832,0.606645
"2019-03-29 08:51:27.349 +0000",1553849487.348860,0.168774,-1.188177,2.633074,0.062713,0.927690,-0.368047,0.000000,0.000000,0.000000,-1,-1.881914,-1.003741,-1.008570,-0.424453,0.493041,0.683965
"2019-03-29 08:51:27.371 +0000",1553849487.371167,0.088448,-1.243010,2.570120,0.028439,0.946757,-0.320689,0.000000,0.000000,0.000000,-1,-2.558613,-0.838596,-1.492896,-0.449017,0.448628,0.522685
"2019-03-29 08:51:27.393 +0000",1553849487.393473,-0.048735,-1.308408,2.439627,-0.012636,0.965773,-0.259080,0.000000,0.000000,0.000000,-1,-2.983767,-0.496907,-1.840982,-0.454908,0.358949,0.404176
"2019-03-29 08:51:27.416 +0000",1553849487.415751,-0.274275,-1.364006,2.236372,-0.055611,0.978695,-0.197645,0.000000,0.000000,0.000000,-1,-2.643515,-1.782364,-1.545341,-0.392845,0.202900,0.260068
"2019-03-29 08:51:27.438 +0000",1553849487.438059,-0.559431,-1.402734,1.987562,-0.088772,0.985911,-0.141773,0.000000,0.000000,0.000000,-1,-2.285881,-1.387535,-0.960677,0.084942,0.358968,0.428592
"2019-03-29 08:51:27.460 +0000",1553849487.460365,-0.860778,-1.426783,1.688675,-0.108835,0.989648,-0.093550,0.000000,0.000000,0.000000,-1,-2.116457,0.295567,-0.914758,0.444223,0.394583,-0.320604
"2019-03-29 08:51:27.483 +0000",1553849487.482643,-1.183006,-1.430199,1.336084,-0.129729,0.990133,-0.052991,0.000000,0.000000,0.000000,-1,-1.853990,1.604007,-1.058998,0.807631,0.544551,-0.500506
"2019-03-29 08:51:27.505 +0000",1553849487.504951,-1.416078,-1.416172,1.072952,-0.152170,0.988069,-0.023733,0.000000,0.000000,0.000000,-1,-1.177608,0.583013,-1.124078,0.630609,0.361967,0.231558
"2019-03-29 08:51:27.527 +0000",1553849487.527259,-1.570167,-1.380720,0.933773,-0.188934,0.981990,-0.000119,0.000000,0.000000,0.000000,-1,-1.079492,-1.072465,-1.995021,0.541183,0.332540,0.302075
"2019-03-29 08:51:27.550 +0000",1553849487.549534,-1.722300,-1.336892,0.808163,-0.229122,0.972769,0.034981,0.000000,0.000000,0.000000,-1,-1.344643,-1.613994,-1.714928,0.419704,0.330560,-0.155388
"2019-03-29 08:51:27.572 +0000",1553849487.571848,-1.851979,-1.298237,0.717162,-0.258625,0.963085,0.074700,0.000000,0.000000,0.000000,-1,-1.449800,-1.932287,-1.302769,-0.174801,0.161274,0.035865
"2019-03-29 08:51:27.594 +0000",1553849487.594150,-1.994361,-1.263388,0.631066,-0.275850,0.953121,0.124368,0.000000,0.000000,0.000000,-1,-1.601158,-3.296541,-0.970665,0.017823,0.121006,-0.188119
"2019-03-29 08:51:27.616 +0000",1553849487.616459,-2.147293,-1.230699,0.566390,-0.279665,0.942722,0.181830,0.000000,0.000000,0.000000,-1,-1.534810,-4.421503,-0.815504,0.024507,-0.144672,-0.462272
"2019-03-29 08:51:27.639 +0000",1553849487.638736,-2.283817,-1.200918,0.523772,-0.273436,0.932371,0.236466,0.000000,0.000000,0.000000,-1,-1.191276,-4.212558,-0.581509,0.097121,-0.180479,-0.571015
"2019-03-29 08:51:27.661 +0000",1553849487.661043,-2.392066,-1.180300,0.505496,-0.259332,0.924720,0.278638,0.000000,0.000000,0.000000,-1,-0.595721,-3.991310,-0.374807,0.354120,-0.316459,-0.723462
"2019-03-29 08:51:27.683 +0000",1553849487.683351,-2.473283,-1.174739,0.506678,-0.239055,0.922589,0.302790,0.000000,0.000000,0.000000,-1,0.078211,-3.495305,-0.065064,0.494121,-0.553372,-0.676509
"2019-03-29 08:51:27.706 +0000",1553849487.705628,-2.533833,-1.183642,0.518716,-0.215595,0.925987,0.309946,0.000000,0.000000,0.000000,-1,0.660016,-3.058879,0.117392,0.628101,-0.556862,-0.586618
"2019-03-29 08:51:27.728 +0000",1553849487.727936,-2.570934,-1.201879,0.546193,-0.194794,0.932718,0.303466,0.000000,0.000000,0.000000,-1,1.044955,-2.669148,0.016095,0.620316,-0.616053,-0.292755
"2019-03-29 08:51:27.750 +0000",1553849487.750243,-2.584809,-1.222152,0.584603,-0.180534,0.939837,0.290025,0.000000,0.000000,0.000000,-1,1.142075,-1.828949,0.006197,0.473534,-0.593569,-0.156663
"2019-03-29 08:51:27.773 +0000",1553849487.772551,-2.586896,-1.243545,0.603121,-0.169299,0.946929,0.273245,0.000000,0.000000,0.000000,-1,0.652971,-0.417850,0.406562,0.288271,-0.579116,0.068857
"2019-03-29 08:51:27.795 +0000",1553849487.794842,-2.620290,-1.248431,0.584683,-0.157775,0.948489,0.274729,0.000000,0.000000,0.000000,-1,-0.188455,-0.949019,0.247165,0.243957,0.085981,0.420309
"2019-03-29 08:51:27.817 +0000",1553849487.817135,-2.647437,-1.242885,0.577649,-0.152752,0.946717,0.283537,0.000000,0.000000,0.000000,-1,-0.290393,-0.712073,-0.182968,0.316433,0.483306,0.821565
"2019-03-29 08:51:27.839 +0000",1553849487.839444,-2.641466,-1.232994,0.586185,-0.158925,0.943485,0.290824,0.000000,0.000000,0.000000,-1,-0.335922,0.194821,-0.426741,0.403295,0.555035,0.883569
"2019-03-29 08:51:27.862 +0000",1553849487.861722,-2.612643,-1.222050,0.618294,-0.172441,0.939802,0.295019,0.000000,0.000000,0.000000,-1,-0.025258,-0.358609,-0.742995,0.187547,0.485934,0.797128
"2019-03-29 08:51:27.884 +0000",1553849487.884028,-2.582551,-1.224403,0.653825,-0.180066,0.940603,0.287822,0.000000,0.000000,0.000000,-1,0.597322,0.418927,-0.154171,0.115247,0.069132,0.501179
"2019-03-29 08:51:27.906 +0000",1553849487.906337,-2.535667,-1.234577,0.669976,-0.187897,0.944009,0.271186,0.000000,0.000000,0.000000,-1,0.321953,1.845379,0.057587,0.280670,-0.214990,0.254342
"2019-03-29 08:51:27.929 +0000",1553849487.928613,-2.473478,-1.237045,0.682371,-0.202944,0.944820,0.257155,0.000000,0.000000,0.000000,-1,0.228810,2.425292,-0.118795,0.620272,0.024464,0.227861
"2019-03-29 08:51:27.951 +0000",1553849487.950922,-2.400772,-1.242444,0.696273,-0.217642,0.946575,0.237965,0.000000,0.000000,0.000000,-1,0.466252,2.816638,0.214019,0.879248,0.725742,0.388820
"2019-03-29 08:51:27.973 +0000",1553849487.973229,-2.306038,-1.266402,0.716581,-0.222290,0.954029,0.201039,0.000000,0.000000,0.000000,-1,1.325630,3.739078,0.711099,0.756515,0.635006,0.255321
"2019-03-29 08:51:27.996 +0000",1553849487.995530,-2.146468,-1.306668,0.800052,-0.218991,0.965320,0.142125,0.000000,0.000000,0.000000,-1,2.286555,3.268731,0.813688,0.495572,-0.172870,0.096751
"2019-03-29 08:51:28.018 +0000",1553849488.017825,-1.911956,-1.344180,0.969129,-0.211732,0.974432,0.075174,0.000000,0.000000,0.000000,-1,2.275600,3.463323,0.555164,0.726030,-0.677863,-0.949564
"2019-03-29 08:51:28.040 +0000",1553849488.040121,-1.634110,-1.366281,1.162268,-0.202686,0.979159,0.012850,0.000000,0.000000,0.000000,-1,1.901416,3.972939,0.681978,0.650791,-0.636752,-0.748568
"2019-03-29 08:51:28.062 +0000",1553849488.062429,-1.361853,-1.381812,1.369438,-0.183776,0.982195,-0.038968,0.000000,0.000000,0.000000,-1,1.688023,2.560172,0.881749,0.094878,-0.165804,-0.426670
"2019-03-29 08:51:28.085 +0000",1553849488.084706,-1.113365,-1.391138,1.583562,-0.160322,0.983905,-0.078919,0.000000,0.000000,0.000000,-1,1.343806,1.220757,0.977847,-0.353564,0.378537,-0.282043
"2019-03-29 08:51:28.107 +0000",1553849488.107013,-0.920807,-1.393848,1.764248,-0.140133,0.984385,-0.106528,0.000000,0.000000,0.000000,-1,1.219501,0.344097,0.787090,-0.360172,0.403035,-0.041040
"2019-03-29 08:51:28.129 +0000",1553849488.129321,-0.717824,-1.384155,1.962364,-0.122052,0.982633,-0.139771,0.000000,0.000000,0.000000,-1,1.549459,0.403307,0.792908,-0.342701,0.137988,0.059082
"2019-03-29 08:51:28.152 +0000",1553849488.151629,-0.532760,-1.370059,2.133599,-0.101274,0.979920,-0.171758,0.000000,0.000000,0.000000,-1,1.222501,0.883022,0.817042,-0.153899,0.006729,0.060567
"2019-03-29 08:51:28.174 +0000",1553849488.173906,-0.369306,-1.353343,2.274265,-0.077877,0.976450,-0.201198,0.000000,0.000000,0.000000,-1,1.317046,1.440405,0.838186,0.318050,-0.182322,0.031734
"2019-03-29 08:51:28.196 +0000",1553849488.196213,-0.224423,-1.328549,2.379710,-0.053385,0.970801,-0.233869,0.000000,0.000000,0.000000,-1,1.355611,2.108889,0.647428,0.472620,-0.168784,0.277235
"2019-03-29 08:51:28.218 +0000",1553849488.218497,-0.106877,-1.301743,2.454860,-0.028356,0.964023,-0.264302,0.000000,0.000000,0.000000,-1,1.396827,1.982114,0.625001,0.166005,-0.021732,0.278081
"2019-03-29 08:51:28.241 +0000",1553849488.240794,-0.002036,-1.267430,2.512248,-0.000608,0.954336,-0.298734,0.000000,0.000000,0.000000,-1,1.570361,2.315755,0.675457,-0.050249,0.086481,0.180539
"2019-03-29 08:51:28.263 +0000",1553849488.263106,0.091721,-1.237312,2.562692,0.029982,0.944907,-0.325962,0.000000,0.000000,0.000000,-1,1.198369,1.931329,0.874715,-0.048597,0.053017,0.256214
"2019-03-29 08:51:28.285 +0000",1553849488.285414,0.179110,-1.213120,2.621429,0.062371,0.936713,-0.344498,0.000000,0.000000,0.000000,-1,0.835964,0.990813,1.057825,-0.098382,-0.091284,0.230622
"2019-03-29 08:51:28.308 +0000",1553849488.307698,0.239231,-1.190184,2.672937,0.088027,0.928437,-0.360910,0.000000,0.000000,0.000000,-1,0.854187,0.382958,1.014847,-0.105971,-0.174928,0.280465
"2019-03-29 08:51:28.330 +0000",1553849488.330001,0.277487,-1.165549,2.709510,0.108000,0.919005,-0.379165,0.000000,0.000000,0.000000,-1,0.910768,0.091794,0.789197,-0.147062,0.049303,0.353148
"2019-03-29 08:51:28.352 +0000",1553849488.352307,0.302346,-1.144066,2.729051,0.123242,0.910324,-0.395122,0.000000,0.000000,0.000000,-1,0.764373,0.480595,0.505320,-0.430630,0.148987,0.543941
"2019-03-29 08:51:28.375 +0000",1553849488.374614,0.321181,-1.128983,2.735399,0.134982,0.903978,-0.405714,0.000000,0.000000,0.000000,-1,0.488651,0.585237,0.237557,-0.585146,0.198683,0.606123
"2019-03-29 08:51:28.397 +0000",1553849488.396896,0.329311,-1.121834,2.740425,0.140362,0.900898,-0.410709,0.000000,0.000000,0.000000,-1,0.144312,-0.132238,0.199119,-0.594463,0.391232,0.327045
"2019-03-29 08:51:28.419 +0000",1553849488.419199,0.329924,-1.124140,2.749399,0.139940,0.901896,-0.408656,0.000000,0.000000,0.000000,-1,-0.336827,-0.350723,0.058190,-0.497774,0.407247,0.375194
"2019-03-29 08:51:28.442 +0000",1553849488.441507,0.331521,-1.141228,2.753563,0.135556,0.909146,-0.393800,0.000000,0.000000,0.000000,-1,-1.033054,0.080467,-0.337947,-0.352048,0.395633,0.533220
"2019-03-29 08:51:28.464 +0000",1553849488.463782,0.325679,-1.175552,2.747837,0.123193,0.922902,-0.364794,0.000000,0.000000,0.000000,-1,-1.678341,-0.302617,-0.716909,-0.378197,0.329539,0.815371
"2019-03-29 08:51:28.486 +0000",1553849488.486093,0.297570,-1.229110,2.734036,0.098244,0.942191,-0.320350,0.000000,0.000000,0.000000,-1,-2.530789,-0.757276,-1.131301,-0.431785,0.388879,0.789390
"2019-03-29 08:51:28.508 +0000",1553849488.508399,0.233804,-1.299898,2.680313,0.061997,0.963531,-0.260316,0.000000,0.000000,0.000000,-1,-2.989733,-0.453597,-1.761907,-0.414383,0.476319,0.602968
"2019-03-29 08:51:28.531 +0000",1553849488.530707,0.078362,-1.370109,2.543360,0.015605,0.979930,-0.198731,0.000000,0.000000,0.000000,-1,-2.763907,-1.431994,-1.882084,-0.476603,0.385640,0.322984
"2019-03-29 08:51:28.553 +0000",1553849488.552985,-0.183439,-1.425419,2.325780,-0.026425,0.989451,-0.142435,0.000000,0.000000,0.000000,-1,-2.443503,-2.274723,-1.298855,-0.320880,0.336690,0.447947
"2019-03-29 08:51:28.575 +0000",1553849488.575291,-0.523272,-1.467401,2.016896,-0.051576,0.994659,-0.089400,0.000000,0.000000,0.000000,-1,-2.278990,-0.932094,-0.861627,0.104082,0.462570,-0.156098
"2019-03-29 08:51:28.598 +0000",1553849488.597600,-1.065292,-1.486433,1.473586,-0.073724,0.996444,-0.040804,0.000000,0.000000,0.000000,-1,-2.103263,0.534716,-1.079261,0.553949,0.426927,-0.717085
"2019-03-29 08:51:28.620 +0000",1553849488.619904,-1.519478,-1.475506,0.989613,-0.095021,0.995463,-0.004881,0.000000,0.000000,0.000000,-1,-1.435924,1.429953,-0.915728,0.551365,0.440892,0.200910
"2019-03-29 08:51:28.642 +0000",1553849488.642184,-1.710853,-1.447741,0.781654,-0.121543,0.992438,0.017135,0.000000,0.000000,0.000000,-1,-0.942292,0.121659,-1.453463,0.487937,0.434228,0.297471
"2019-03-29 08:51:28.664 +0000",1553849488.664492,-1.800892,-1.400867,0.710954,-0.164656,0.985597,0.038570,0.000000,0.000000,0.000000,-1,-0.947302,-1.455476,-2.109357,0.570509,0.316924,0.068471
"2019-03-29 08:51:28.687 +0000",1553849488.686787,-1.927264,-1.355239,0.629147,-0.200445,0.976857,0.074641,0.000000,0.000000,0.000000,-1,-1.322006,-2.355238,-1.565617,-0.284006,0.360240,-0.340464
"2019-03-29 08:51:28.709 +0000",1553849488.709090,-2.062885,-1.316435,0.547678,-0.221772,0.967824,0.118886,0.000000,0.000000,0.000000,-1,-1.585147,-2.823519,-1.112497,-0.227707,0.259181,-0.169011
"2019-03-29 08:51:28.731 +0000",1553849488.731385,-2.181930,-1.283990,0.516114,-0.231687,0.959152,0.162322,0.000000,0.000000,0.000000,-1,-1.552725,-4.602591,-0.869664,-0.005710,-0.013214,-0.343199
"2019-03-29 08:51:28.754 +0000",1553849488.753693,-2.339718,-1.250133,0.463609,-0.226519,0.949027,0.219175,0.000000,0.000000,0.000000,-1,-1.415260,-4.847702,-0.646613,-0.056974,-0.248709,-0.500196
"2019-03-29 08:51:28.776 +0000",1553849488.775970,-2.473312,-1.223184,0.434845,-0.211082,0.940189,0.267375,0.000000,0.000000,0.000000,-1,-1.000290,-4.742051,-0.410430,0.245887,-0.290348,-0.776988
"2019-03-29 08:51:28.798 +0000",1553849488.798278,-2.581374,-1.209563,0.425570,-0.187801,0.935462,0.299403,0.000000,0.000000,0.000000,-1,-0.344003,-4.211711,-0.127051,0.349087,-0.501044,-0.790858
"2019-03-29 08:51:28.821 +0000",1553849488.820569,-2.664586,-1.211614,0.424579,-0.161386,0.936184,0.312271,0.000000,0.000000,0.000000,-1,0.330014,-3.360343,0.143561,0.627328,-0.673474,-0.596497
"2019-03-29 08:51:28.843 +0000",1553849488.842862,-2.715650,-1.227860,0.439035,-0.138933,0.941771,0.306209,0.000000,0.000000,0.000000,-1,1.007482,-2.661667,0.055774,0.602388,-0.688445,-0.486446
"2019-03-29 08:51:28.865 +0000",1553849488.865169,-2.725390,-1.254365,0.481943,-0.125806,0.950352,0.284612,0.000000,0.000000,0.000000,-1,1.451111,-1.946381,-0.164999,0.514371,-0.686207,-0.261449
"2019-03-29 08:51:28.887 +0000",1553849488.887478,-2.699828,-1.283245,0.531233,-0.121251,0.958941,0.256379,0.000000,0.000000,0.000000,-1,1.352978,-0.281006,0.098057,0.385655,-0.653857,-0.059769
"2019-03-29 08:51:28.910 +0000",1553849488.909782,-2.690922,-1.296587,0.539395,-0.117946,0.962640,0.243749,0.000000,0.000000,0.000000,-1,0.042241,-0.177012,0.094091,0.128688,-0.032311,0.562327
"2019-03-29 08:51:28.932 +0000",1553849488.932063,-2.713284,-1.285596,0.535765,-0.116854,0.959605,0.255935,0.000000,0.000000,0.000000,-1,-0.587270,-1.128556,-0.319516,0.308413,0.261067,0.458970
"2019-03-29 08:51:28.954 +0000",1553849488.954370,-2.712861,-1.270180,0.552825,-0.123098,0.955154,0.269310,0.000000,0.000000,0.000000,-1,-0.521330,-0.325040,-0.587134,0.483281,0.795624,0.736275
"2019-03-29 08:51:28.977 +0000",1553849488.976679,-2.676778,-1.254942,0.588536,-0.139241,0.950531,0.277672,0.000000,0.000000,0.000000,-1,-0.262346,0.176017,-0.834616,0.450215,0.597946,0.832161
"2019-03-29 08:51:28.999 +0000",1553849488.998954,-2.624604,-1.250265,0.642278,-0.155728,0.949068,0.273894,0.000000,0.000000,0.000000,-1,0.417336,0.155199,-0.566184,0.030987,0.146253,0.596711
"2019-03-29 08:51:29.021 +0000",1553849489.021263,-2.572976,-1.262161,0.671188,-0.163564,0.952749,0.255961,0.000000,0.000000,0.000000,-1,0.653247,1.546896,0.146040,0.130193,-0.213537,0.374532
"2019-03-29 08:51:29.044 +0000",1553849489.043570,-2.510542,-1.269698,0.679897,-0.174974,0.955011,0.239452,0.000000,0.000000,0.000000,-1,0.367952,3.070608,0.060441,0.442262,-0.511133,0.328861
"2019-03-29 08:51:29.066 +0000",1553849489.065879,-2.461109,-1.279710,0.668978,-0.180567,0.957933,0.223071,0.000000,0.000000,0.000000,-1,-0.010550,2.194168,0.591567,0.743968,0.481963,0.298917
"2019-03-29 08:51:29.088 +0000",1553849489.088155,-2.440988,-1.296556,0.641473,-0.174589,0.962631,0.207026,0.000000,0.000000,0.000000,-1,0.846970,2.336666,0.764345,0.602156,0.691193,0.031210
"2019-03-29 08:51:29.110 +0000",1553849489.110456,-2.318729,-1.334406,0.703167,-0.171687,0.972190,0.159282,0.000000,0.000000,0.000000,-1,2.245536,2.987559,0.647517,0.902187,0.482049,-0.121364
"2019-03-29 08:51:29.133 +0000",1553849489.132766,-2.037763,-1.379442,0.913552,-0.169827,0.981748,0.085619,0.000000,0.000000,0.000000,-1,2.907174,3.695327,0.367359,0.635235,-0.631482,-0.715105
"2019-03-29 08:51:29.155 +0000",1553849489.155048,-1.642851,-1.402625,1.225357,-0.166945,0.985893,0.012050,0.000000,0.000000,0.000000,-1,2.469517,3.786217,0.378770,0.609663,-0.684379,-0.609722
"2019-03-29 08:51:29.177 +0000",1553849489.177355,-1.289521,-1.414164,1.509462,-0.149863,0.987758,-0.043301,0.000000,0.000000,0.000000,-1,1.741261,3.094233,0.930438,0.055197,-0.320125,-0.827030
"2019-03-29 08:51:29.200 +0000",1553849489.199664,-0.970429,-1.422323,1.767825,-0.122060,0.988998,-0.083572,0.000000,0.000000,0.000000,-1,1.212521,2.647085,1.151276,-0.373896,0.301621,-0.741715
"2019-03-29 08:51:29.222 +0000",1553849489.221971,-0.696372,-1.421312,2.005055,-0.095528,0.988848,-0.114254,0.000000,0.000000,0.000000,-1,1.253182,1.199497,0.907351,-0.235374,0.447141,0.171993
"2019-03-29 08:51:29.244 +0000",1553849489.244255,-0.500201,-1.409136,2.192420,-0.077195,0.986961,-0.141238,0.000000,0.000000,0.000000,-1,1.105130,0.150797,0.766491,-0.147673,0.075020,0.081835
"2019-03-29 08:51:29.267 +0000",1553849489.266556,-0.325556,-1.389890,2.363903,-0.057545,0.983681,-0.170470,0.000000,0.000000,0.000000,-1,1.455591,0.574316,0.817465,-0.126064,0.024681,-0.043778
"2019-03-29 08:51:29.289 +0000",1553849489.288864,-0.170535,-1.358538,2.490135,-0.035752,0.977558,-0.207612,0.000000,0.000000,0.000000,-1,1.670256,1.850643,0.644957,0.250993,-0.244190,0.038834
"2019-03-29 08:51:29.311 +0000",1553849489.311141,-0.054934,-1.329317,2.557363,-0.013130,0.970985,-0.238779,0.000000,0.000000,0.000000,-1,1.148227,2.321056,0.511542,0.318672,-0.155098,0.250543
"2019-03-29 08:51:29.333 +0000",1553849489.333449,0.039075,-1.302396,2.603292,0.010360,0.964196,-0.264986,0.000000,0.000000,0.000000,-1,1.399011,2.228880,0.506265,0.113511,0.033789,0.293719
"2019-03-29 08:51:29.356 +0000",1553849489.355750,0.122298,-1.268266,2.636014,0.036346,0.954586,-0.295711,0.000000,0.000000,0.000000,-1,1.413065,2.304120,0.556465,-0.010483,0.028782,0.207104
"2019-03-29 08:51:29.378 +0000",1553849489.378033,0.205049,-1.239394,2.669963,0.066250,0.945587,-0.318553,0.000000,0.000000,0.000000,-1,1.066518,2.175750,0.800602,-0.049557,-0.025909,0.161678
"2019-03-29 08:51:29.400 +0000",1553849489.400342,0.277237,-1.215417,2.713133,0.095232,0.937515,-0.334659,0.000000,0.000000,0.000000,-1,0.793874,0.881924,0.907492,-0.162844,-0.117263,0.298054
"2019-03-29 08:51:29.423 +0000",1553849489.422649,0.323098,-1.192423,2.756722,0.117289,0.929267,-0.350294,0.000000,0.000000,0.000000,-1,0.826209,-0.083371,1.001671,-0.157725,-0.123359,0.329313
"2019-03-29 08:51:29.445 +0000",1553849489.444956,0.350640,-1.166953,2.790469,0.134980,0.919557,-0.369046,0.000000,0.000000,0.000000,-1,0.875907,-0.069049,0.882474,-0.326325,0.119261,0.458554
"2019-03-29 08:51:29.467 +0000",1553849489.467234,0.376413,-1.146483,2.812812,0.151334,0.911322,-0.382872,0.000000,0.000000,0.000000,-1,0.597762,0.415545,0.571639,-0.428326,0.168955,0.530241
"2019-03-29 08:51:29.490 +0000",1553849489.489542,0.395421,-1.134542,2.823812,0.162764,0.906341,-0.389942,0.000000,0.000000,0.000000,-1,0.316904,0.290183,0.313359,-0.532210,0.219758,0.514804
"2019-03-29 08:51:29.512 +0000",1553849489.511849,0.405142,-1.130144,2.835766,0.168116,0.904474,-0.392000,0.000000,0.000000,0.000000,-1,-0.071209,-0.235408,0.274439,-0.597422,0.346869,0.384325
"2019-03-29 08:51:29.534 +0000",1553849489.534125,0.410881,-1.135210,2.848561,0.168531,0.906623,-0.386824,0.000000,0.000000,0.000000,-1,-0.436149,-0.192430,-0.010132,-0.453596,0.411142,0.409758
"2019-03-29 08:51:29.556 +0000",1553849489.556436,0.412008,-1.154785,2.851771,0.161828,0.914708,-0.370298,0.000000,0.000000,0.000000,-1,-1.087667,-0.068984,-0.464304,-0.299630,0.419551,0.575514
"2019-03-29 08:51:29.579 +0000",1553849489.578718,0.402953,-1.193288,2.852784,0.144544,0.929586,-0.339083,0.000000,0.000000,0.000000,-1,-1.947312,-0.764288,-0.757471,-0.462003,0.384562,0.708269
"2019-03-29 08:51:29.601 +0000",1553849489.601049,0.384598,-1.253599,2.851986,0.117022,0.950113,-0.289120,0.000000,0.000000,0.000000,-1,-2.827404,-0.655959,-1.278596,-0.438479,0.449774,0.705349
"2019-03-29 08:51:29.623 +0000",1553849489.623325,0.341502,-1.331643,2.813052,0.079332,0.971539,-0.223201,0.000000,0.000000,0.000000,-1,-3.054023,-0.120805,-1.881384,-0.405107,0.412525,0.585353
"2019-03-29 08:51:29.646 +0000",1553849489.645648,0.214363,-1.403908,2.704323,0.035337,0.986106,-0.162313,0.000000,0.000000,0.000000,-1,-2.733156,-1.505159,-1.708928,-0.475126,0.206902,0.306524
"2019-03-29 08:51:29.668 +0000",1553849489.667927,0.027732,-1.463787,2.558330,0.002962,0.994280,-0.106764,0.000000,0.000000,0.000000,-1,-2.457726,-1.753995,-0.872958,0.044203,0.502165,-0.119112
"2019-03-29 08:51:29.690 +0000",1553849489.690218,-0.248247,-1.516408,2.303234,-0.013357,0.998521,-0.052695,0.000000,0.000000,0.000000,-1,-2.426091,-0.589561,-0.693478,0.301443,0.471709,-0.508141
"2019-03-29 08:51:29.713 +0000",1553849489.712528,-1.440016,-1.536525,1.106127,-0.033972,0.999413,-0.004468,0.000000,0.000000,0.000000,-1,-1.926005,0.726915,-1.012604,0.802298,0.465568,-0.664721
"2019-03-29 08:51:29.735 +0000",1553849489.734824,-2.012816,-1.508070,0.501992,-0.056661,0.998033,0.026815,0.000000,0.000000,0.000000,-1,-1.180589,1.513107,-1.062682,0.409978,0.444792,0.310893
"2019-03-29 08:51:29.757 +0000",1553849489.757111,-2.024116,-1.468978,0.481961,-0.091376,0.994821,0.044514,0.000000,0.000000,0.000000,-1,-0.703526,-0.395328,-1.871738,0.427634,0.414710,0.231944
"2019-03-29 08:51:29.779 +0000",1553849489.779420,-2.042359,-1.419239,0.493878,-0.134500,0.988537,0.068586,0.000000,0.000000,0.000000,-1,-1.060831,-1.762308,-1.904416,0.483164,0.268863,-0.039106
"2019-03-29 08:51:29.802 +0000",1553849489.801706,-2.133344,-1.375581,0.449161,-0.164086,0.981006,0.103457,0.000000,0.000000,0.000000,-1,-1.360085,-2.363126,-1.364538,-0.280098,0.146725,-0.190340
"2019-03-29 08:51:29.824 +0000",1553849489.824034,-2.253772,-1.335084,0.388394,-0.181153,0.972348,0.147385,0.000000,0.000000,0.000000,-1,-1.590342,-3.255223,-1.081318,-0.110457,0.049106,-0.201539
"2019-03-29 08:51:29.846 +0000",1553849489.846312,-2.372849,-1.298603,0.360464,-0.186910,0.963183,0.193242,0.000000,0.000000,0.000000,-1,-1.561580,-4.639562,-0.874251,-0.109263,-0.099185,-0.481053
"2019-03-29 08:51:29.869 +0000",1553849489.868635,-2.507373,-1.262749,0.333265,-0.179660,0.952927,0.244237,0.000000,0.000000,0.000000,-1,-1.381658,-4.873770,-0.699660,0.149219,-0.247483,-0.749532
"2019-03-29 08:51:29.891 +0000",1553849489.890929,-2.616885,-1.235951,0.327048,-0.164627,0.944461,0.284414,0.000000,0.000000,0.000000,-1,-0.814835,-4.463102,-0.495892,0.234360,-0.342227,-0.804143
"2019-03-29 08:51:29.913 +0000",1553849489.913205,-2.705425,-1.223921,0.331679,-0.143623,0.940440,0.308133,0.000000,0.000000,0.000000,-1,-0.227589,-3.966033,-0.219690,0.398903,-0.516962,-0.762402
"2019-03-29 08:51:29.936 +0000",1553849489.935513,-2.773857,-1.226261,0.342572,-0.121426,0.941232,0.315178,0.000000,0.000000,0.000000,-1,0.380498,-3.255506,-0.097961,0.533764,-0.584040,-0.638802
"2019-03-29 08:51:29.958 +0000",1553849489.957800,-2.814758,-1.239470,0.367460,-0.104436,0.945612,0.308077,0.000000,0.000000,0.000000,-1,0.815726,-2.742709,-0.191646,0.517720,-0.668146,-0.299486
"2019-03-29 08:51:29.980 +0000",1553849489.980129,-2.839203,-1.256466,0.401835,-0.092075,0.951003,0.295152,0.000000,0.000000,0.000000,-1,0.987936,-2.229649,-0.188683,0.449222,-0.651977,-0.207688
"2019-03-29 08:51:30.002 +0000",1553849490.002405,-2.850156,-1.279228,0.415851,-0.082594,0.957794,0.275333,0.000000,0.000000,0.000000,-1,0.795312,-0.477463,0.265846,0.365706,-0.613770,0.055813
"2019-03-29 08:51:30.025 +0000",1553849490.024719,-2.873032,-1.280007,0.398707,-0.076076,0.958018,0.276431,0.000000,0.000000,0.000000,-1,-0.424493,-0.402308,0.110829,0.231731,0.125509,0.474607
"2019-03-29 08:51:30.047 +0000",1553849490.047020,-2.884919,-1.265621,0.403752,-0.076276,0.953794,0.290617,0.000000,0.000000,0.000000,-1,-0.646251,-0.778254,-0.377183,0.296048,0.464083,0.640062
"2019-03-29 08:51:30.069 +0000",1553849490.069309,-2.870582,-1.249491,0.424117,-0.084543,0.948824,0.304279,0.000000,0.000000,0.000000,-1,-0.564709,0.077422,-0.518722,0.406152,0.717375,0.791165
"2019-03-29 08:51:30.092 +0000",1553849490.091605,-2.834237,-1.238447,0.462208,-0.098708,0.945278,0.310975,0.000000,0.000000,0.000000,-1,-0.166849,-0.206130,-0.721964,0.293288,0.532093,0.676299
"2019-03-29 08:51:30.114 +0000",1553849490.113913,-2.810654,-1.239529,0.491631,-0.105681,0.945631,0.307593,0.000000,0.000000,0.000000,-1,0.386324,0.138247,-0.162819,0.184615,-0.144194,0.396737
"2019-03-29 08:51:30.136 +0000",1553849490.136221,-2.784805,-1.244477,0.496763,-0.111960,0.947229,0.300371,0.000000,0.000000,0.000000,-1,-0.105064,1.528699,-0.011621,0.312796,-0.367212,0.246397
"2019-03-29 08:51:30.158 +0000",1553849490.158500,-2.725781,-1.238296,0.488231,-0.131847,0.945229,0.298594,0.000000,0.000000,0.000000,-1,-0.170011,3.313921,0.064304,0.563289,-0.055794,0.340749
"2019-03-29 08:51:30.181 +0000",1553849490.180806,-2.676783,-1.248353,0.477561,-0.142044,0.948464,0.283266,0.000000,0.000000,0.000000,-1,0.760542,2.314643,0.497838,0.467865,0.916313,0.316450
"2019-03-29 08:51:30.203 +0000",1553849490.203113,-2.597815,-1.286084,0.505778,-0.145320,0.959742,0.240368,0.000000,0.000000,0.000000,-1,2.190532,2.396418,0.492763,0.593074,0.753606,-0.238445
"2019-03-29 08:51:30.225 +0000",1553849490.225390,-2.422875,-1.342518,0.617173,-0.149001,0.974058,0.170325,0.000000,0.000000,0.000000,-1,2.972589,3.629133,0.432534,0.748793,-0.440473,-0.917456
"2019-03-29 08:51:30.248 +0000",1553849490.247705,-2.124437,-1.388758,0.817178,-0.153990,0.983477,0.095185,0.000000,0.000000,0.000000,-1,2.569353,4.737242,0.408879,0.503798,-0.740694,-0.436448
"2019-03-29 08:51:30.270 +0000",1553849490.270006,-1.801505,-1.419767,1.064689,-0.146469,0.988617,0.034404,0.000000,0.000000,0.000000,-1,1.957162,2.847394,0.709476,0.114762,-0.541702,-0.371044
"2019-03-29 08:51:30.292 +0000",1553849490.292284,-1.516714,-1.445929,1.296911,-0.124361,0.992214,-0.006732,0.000000,0.000000,0.000000,-1,1.256458,2.382810,1.211997,-0.406889,0.403324,-0.785779
"2019-03-29 08:51:30.315 +0000",1553849490.314591,-1.209375,-1.466736,1.557189,-0.097162,0.994591,-0.036730,0.000000,0.000000,0.000000,-1,1.162892,1.890322,1.112123,-0.379309,0.620888,-0.455229
"2019-03-29 08:51:30.337 +0000",1553849490.336893,-0.812471,-1.467329,1.931869,-0.074982,0.994652,-0.071028,0.000000,0.000000,0.000000,-1,1.543573,0.661791,0.853994,-0.249557,0.236564,0.194579
"2019-03-29 08:51:30.359 +0000",1553849490.359206,-0.520918,-1.453267,2.221763,-0.058357,0.993101,-0.101706,0.000000,0.000000,0.000000,-1,1.337227,0.109123,0.791822,-0.105843,-0.003889,0.036475
"2019-03-29 08:51:30.381 +0000",1553849490.381489,-0.281078,-1.430420,2.449149,-0.038812,0.990163,-0.134425,0.000000,0.000000,0.000000,-1,1.518247,0.917260,0.752472,0.053887,-0.144567,-0.144704
"2019-03-29 08:51:30.404 +0000",1553849490.403791,-0.107632,-1.398720,2.590645,-0.018394,0.985231,-0.170237,0.000000,0.000000,0.000000,-1,1.567398,1.935408,0.638009,0.260170,-0.123262,0.243785
"2019-03-29 08:51:30.426 +0000",1553849490.426100,0.017089,-1.368809,2.672428,0.003428,0.979670,-0.200588,0.000000,0.000000,0.000000,-1,1.278813,1.844234,0.632492,0.176915,0.016180,0.300441
"2019-03-29 08:51:30.448 +0000",1553849490.448376,0.115741,-1.333438,2.731420,0.027154,0.971963,-0.233562,0.000000,0.000000,0.000000,-1,1.753536,1.971607,0.753138,0.041098,0.016746,0.302914
"2019-03-29 08:51:30.471 +0000",1553849490.470681,0.210223,-1.292921,2.784673,0.057243,0.961640,-0.268274,0.000000,0.000000,0.000000,-1,1.566143,1.848081,0.960084,-0.037620,-0.031236,0.212564
"2019-03-29 08:51:30.493 +0000",1553849490.492990,0.308115,-1.259429,2.845141,0.092908,0.951916,-0.291933,0.000000,0.000000,0.000000,-1,1.036377,1.513022,1.218383,-0.075543,-0.127865,0.162325
"2019-03-29 08:51:30.515 +0000",1553849490.515299,0.377978,-1.233537,2.906150,0.122117,0.943665,-0.307544,0.000000,0.000000,0.000000,-1,0.662631,0.070916,1.165275,-0.124863,-0.137330,0.277027
"2019-03-29 08:51:30.538 +0000",1553849490.537577,0.421554,-1.210432,2.951942,0.144283,0.935768,-0.321745,0.000000,0.000000,0.000000,-1,0.793365,0.001199,0.950143,-0.089442,-0.107109,0.362318
"2019-03-29 08:51:30.560 +0000",1553849490.559885,0.438260,-1.185368,2.969092,0.159542,0.926637,-0.340425,0.000000,0.000000,0.000000,-1,0.869761,0.143765,0.589153,-0.369870,0.112501,0.627916
"2019-03-29 08:51:30.582 +0000",1553849490.582193,0.447606,-1.167746,2.970690,0.169759,0.919869,-0.353586,0.000000,0.000000,0.000000,-1,0.617561,0.446049,0.211719,-0.466024,0.170860,0.442530
"2019-03-29 08:51:30.604 +0000",1553849490.604469,0.453811,-1.159011,2.967081,0.175465,0.916408,-0.359734,0.000000,0.000000,0.000000,-1,0.253187,0.219113,0.099447,-0.606755,0.268040,0.207543
"2019-03-29 08:51:30.627 +0000",1553849490.626764,0.455410,-1.157681,2.971851,0.176576,0.915875,-0.360548,0.000000,0.000000,0.000000,-1,-0.152286,-0.162462,0.085293,-0.496904,0.425968,0.498838
"2019-03-29 08:51:30.649 +0000",1553849490.649084,0.462093,-1.170608,2.981577,0.173689,0.920988,-0.348732,0.000000,0.000000,0.000000,-1,-0.889927,-0.097657,-0.254266,-0.422087,0.373309,0.521339
"2019-03-29 08:51:30.671 +0000",1553849490.671392,0.458850,-1.201315,2.985434,0.159952,0.932515,-0.323778,0.000000,0.000000,0.000000,-1,-1.504179,-0.503163,-0.708689,-0.321023,0.325801,0.630708
"2019-03-29 08:51:30.694 +0000",1553849490.693668,0.443229,-1.253150,2.985150,0.133946,0.949973,-0.282151,0.000000,0.000000,0.000000,-1,-2.433379,-0.669180,-1.229881,-0.517277,0.484475,0.666718
"2019-03-29 08:51:30.716 +0000",1553849490.715977,0.405960,-1.324920,2.958029,0.096121,0.969925,-0.223623,0.000000,0.000000,0.000000,-1,-2.927473,-0.439303,-1.854885,-0.516089,0.478928,0.572790
"2019-03-29 08:51:30.738 +0000",1553849490.738286,0.296377,-1.399499,2.861988,0.049784,0.985364,-0.163029,0.000000,0.000000,0.000000,-1,-2.774036,-1.059637,-1.958480,-0.557414,0.331362,0.321904
"2019-03-29 08:51:30.761 +0000",1553849490.760562,0.087138,-1.463513,2.692606,0.009319,0.994251,-0.106671,0.000000,0.000000,0.000000,-1,-2.494862,-2.094008,-1.302857,-0.412837,0.292798,0.437389
"2019-03-29 08:51:30.783 +0000",1553849490.782871,-0.257699,-1.515871,2.379736,-0.013991,0.998492,-0.053085,0.000000,0.000000,0.000000,-1,-2.365610,-1.076077,-0.845394,0.290846,0.453534,-0.196763
"2019-03-29 08:51:30.805 +0000",1553849490.805178,-1.497084,-1.534062,1.147864,-0.036624,0.999325,-0.002705,0.000000,0.000000,0.000000,-1,-2.138791,0.207261,-1.114722,0.755573,0.511203,-0.672237
"2019-03-29 08:51:30.827 +0000",1553849490.827455,-2.120653,-1.498353,0.498540,-0.061712,0.997377,0.037823,0.000000,0.000000,0.000000,-1,-1.747334,1.546251,-1.007348,1.028859,0.650618,-0.227307
"2019-03-29 08:51:30.850 +0000",1553849490.849782,-2.212210,-1.460817,0.382743,-0.087943,0.993958,0.065671,0.000000,0.000000,0.000000,-1,-0.977016,0.200656,-1.359792,0.479347,0.366805,0.196963
"2019-03-29 08:51:30.872 +0000",1553849490.872070,-2.161331,-1.414925,0.458003,-0.128950,0.987877,0.086439,0.000000,0.000000,0.000000,-1,-0.952524,-1.270084,-2.181610,0.552366,0.297158,0.082628
"2019-03-29 08:51:30.894 +0000",1553849490.894364,-2.187606,-1.366498,0.464011,-0.165495,0.979204,0.117353,0.000000,0.000000,0.000000,-1,-1.318099,-1.741696,-1.624300,-0.026858,0.324828,-0.533521
"2019-03-29 08:51:30.917 +0000",1553849490.916656,-2.259537,-1.323548,0.435443,-0.188948,0.969590,0.155546,0.000000,0.000000,0.000000,-1,-1.453035,-1.955198,-1.149816,0.013884,0.037613,-0.148375
"2019-03-29 08:51:30.939 +0000",1553849490.938964,-2.362616,-1.282507,0.399103,-0.199744,0.958732,0.202326,0.000000,0.000000,0.000000,-1,-1.649366,-3.878614,-0.986443,0.097037,-0.078696,-0.388834
"2019-03-29 08:51:30.961 +0000",1553849490.961270,-2.500579,-1.241990,0.361694,-0.193105,0.946429,0.258812,0.000000,0.000000,0.000000,-1,-1.682688,-4.821027,-0.694008,-0.046153,-0.289812,-0.439033
"2019-03-29 08:51:30.984 +0000",1553849490.983548,-2.621748,-1.209703,0.342721,-0.175499,0.935511,0.306625,0.000000,0.000000,0.000000,-1,-1.143366,-4.482813,-0.454874,0.073478,-0.215708,-0.786606
"2019-03-29 08:51:31.006 +0000",1553849491.005855,-2.725443,-1.192141,0.333173,-0.149437,0.929163,0.338121,0.000000,0.000000,0.000000,-1,-0.560834,-4.071515,-0.089834,0.368675,-0.501154,-0.848130
"2019-03-29 08:51:31.028 +0000",1553849491.028163,-2.812881,-1.190325,0.327249,-0.119883,0.928490,0.351476,0.000000,0.000000,0.000000,-1,0.205574,-3.407377,0.106807,0.480998,-0.608208,-0.713155
"2019-03-29 08:51:31.050 +0000",1553849491.050472,-2.866731,-1.207159,0.338567,-0.096535,0.934609,0.342326,0.000000,0.000000,0.000000,-1,1.107476,-2.598053,-0.022805,0.525765,-0.684930,-0.582163
"2019-03-29 08:51:31.073 +0000",1553849491.072770,-2.893198,-1.234698,0.366150,-0.081082,0.944049,0.319684,0.000000,0.000000,0.000000,-1,1.242809,-2.310456,-0.104694,0.401593,-0.770846,-0.240323
"2019-03-29 08:51:31.095 +0000",1553849491.095057,-2.914427,-1.262674,0.383886,-0.068301,0.952905,0.295478,0.000000,0.000000,0.000000,-1,1.285060,-1.059411,0.203038,0.324084,-0.769433,-0.123878
"2019-03-29 08:51:31.117 +0000",1553849491.117364,-2.934416,-1.272035,0.368724,-0.060544,0.955702,0.288043,0.000000,0.000000,0.000000,-1,-0.228206,-0.219708,0.240836,0.186002,-0.507429,0.326764
"2019-03-29 08:51:31.140 +0000",1553849491.139663,-2.953062,-1.260173,0.370873,-0.057284,0.952143,0.300236,0.000000,0.000000,0.000000,-1,-0.533614,-1.216103,-0.354594,0.137286,0.317678,0.582485
"2019-03-29 08:51:31.162 +0000",1553849491.161949,-2.941305,-1.245939,0.399490,-0.063500,0.947696,0.312793,0.000000,0.000000,0.000000,-1,-0.611503,-0.248746,-0.546814,0.305184,1.080044,1.094311
"2019-03-29 08:51:31.184 +0000",1553849491.184257,-2.909116,-1.231390,0.436355,-0.076703,0.942952,0.323971,0.000000,0.000000,0.000000,-1,-0.399181,-0.297468,-0.763385,0.344326,0.695552,0.739261
"2019-03-29 08:51:31.207 +0000",1553849491.206565,-2.888437,-1.228211,0.467578,-0.084135,0.941889,0.325217,0.000000,0.000000,0.000000,-1,0.230394,-0.151093,-0.198728,0.141905,0.103353,0.597970
"2019-03-29 08:51:31.229 +0000",1553849491.228842,-2.877223,-1.233036,0.463839,-0.086588,0.943499,0.319862,0.000000,0.000000,0.000000,-1,-0.095812,1.258687,0.160780,0.301295,-0.320544,0.172738
"2019-03-29 08:51:31.251 +0000",1553849491.251150,-2.837618,-1.232209,0.453287,-0.099419,0.943225,0.316927,0.000000,0.000000,0.000000,-1,0.148423,2.319340,0.201091,0.648186,0.034116,0.200011
"2019-03-29 08:51:31.273 +0000",1553849491.273457,-2.818733,-1.241625,0.429574,-0.102564,0.946310,0.306557,0.000000,0.000000,0.000000,-1,0.482345,1.771399,0.666339,0.724664,0.560983,0.447914
"2019-03-29 08:51:31.296 +0000",1553849491.295704,-2.789190,-1.272693,0.402513,-0.101374,0.955895,0.275658,0.000000,0.000000,0.000000,-1,1.612717,2.863699,0.840727,0.737956,0.103812,-0.280449
"2019-03-29 08:51:31.318 +0000",1553849491.318019,-2.704811,-1.326028,0.418855,-0.102512,0.970194,0.219581,0.000000,0.000000,0.000000,-1,2.605824,3.232609,0.696456,0.588352,-0.735971,-0.804771
"2019-03-29 08:51:31.340 +0000",1553849491.340320,-2.525087,-1.382887,0.513318,-0.108009,0.982397,0.152415,0.000000,0.000000,0.000000,-1,2.635188,4.194507,0.352984,0.521491,-0.825109,-0.883540
"2019-03-29 08:51:31.363 +0000",1553849491.362602,-2.258295,-1.429257,0.702365,-0.109022,0.990000,0.089522,0.000000,0.000000,0.000000,-1,2.293693,3.012654,0.474977,0.203810,-0.445643,-0.657668
"2019-03-29 08:51:31.385 +0000",1553849491.384905,-1.977681,-1.464716,0.935544,-0.097237,0.994379,0.041903,0.000000,0.000000,0.000000,-1,1.741019,1.967934,0.771820,-0.254676,0.271765,-0.705797
"2019-03-29 08:51:31.407 +0000",1553849491.407212,-1.584511,-1.487688,1.290088,-0.083005,0.996549,0.001138,0.000000,0.000000,0.000000,-1,1.594951,1.792770,0.662904,-0.316516,0.523853,-0.527216
"2019-03-29 08:51:31.430 +0000",1553849491.429521,-1.075323,-1.495016,1.762933,-0.066603,0.997130,-0.035995,0.000000,0.000000,0.000000,-1,1.573589,1.562835,0.692228,-0.245149,0.443834,-0.020554
"2019-03-29 08:51:31.452 +0000",1553849491.451797,-0.598791,-1.481683,2.215015,-0.050162,0.996032,-0.073512,0.000000,0.000000,0.000000,-1,1.690982,0.814947,0.691473,-0.135339,0.057587,0.020275
"2019-03-29 08:51:31.474 +0000",1553849491.474106,-0.272218,-1.452781,2.520406,-0.031657,0.993044,-0.113406,0.000000,0.000000,0.000000,-1,1.700460,1.484382,0.750043,0.031321,-0.128176,-0.162931
"2019-03-29 08:51:31.496 +0000",1553849491.496395,-0.064045,-1.419888,2.688171,-0.009622,0.988635,-0.150028,0.000000,0.000000,0.000000,-1,1.588882,1.972445,0.682395,0.136544,-0.125171,-0.078335
"2019-03-29 08:51:31.519 +0000",1553849491.518714,0.070335,-1.386275,2.776159,0.012894,0.983024,-0.183023,0.000000,0.000000,0.000000,-1,1.428541,2.358600,0.670215,0.265091,0.006768,0.379754
"2019-03-29 08:51:31.541 +0000",1553849491.540997,0.175554,-1.354918,2.831351,0.037412,0.976789,-0.210913,0.000000,0.000000,0.000000,-1,1.349216,2.165262,0.639688,0.154010,0.090075,0.343665
"2019-03-29 08:51:31.563 +0000",1553849491.563306,0.252567,-1.321114,2.860817,0.061747,0.968991,-0.239257,0.000000,0.000000,0.000000,-1,1.388095,2.187402,0.634546,0.022985,0.075992,0.274779
"2019-03-29 08:51:31.586 +0000",1553849491.585607,0.330047,-1.290551,2.893247,0.089640,0.960988,-0.261663,0.000000,0.000000,0.000000,-1,1.067823,2.018411,0.869130,-0.100168,-0.055348,0.124776
"2019-03-29 08:51:31.608 +0000",1553849491.607885,0.412818,-1.264542,2.938770,0.120955,0.953470,-0.276162,0.000000,0.000000,0.000000,-1,0.808339,1.550073,0.988547,-0.121703,-0.171945,0.178628
"2019-03-29 08:51:31.630 +0000",1553849491.630199,0.474750,-1.239016,2.978196,0.148895,0.945464,-0.289704,0.000000,0.000000,0.000000,-1,0.809109,0.772661,1.000410,-0.112945,-0.134124,0.260621
"2019-03-29 08:51:31.653 +0000",1553849491.652508,0.502509,-1.211611,3.002483,0.169297,0.936184,-0.308057,0.000000,0.000000,0.000000,-1,0.955892,-0.061946,0.839168,-0.168000,-0.031566,0.275891
"2019-03-29 08:51:31.675 +0000",1553849491.674784,0.513130,-1.188205,3.014058,0.183268,0.927700,-0.325246,0.000000,0.000000,0.000000,-1,0.705277,0.212377,0.547579,-0.392374,0.072162,0.462880
"2019-03-29 08:51:31.697 +0000",1553849491.697093,0.524571,-1.173724,3.013394,0.193686,0.922197,-0.334721,0.000000,0.000000,0.000000,-1,0.525881,0.649971,0.160291,-0.504767,0.132079,0.465871
"2019-03-29 08:51:31.719 +0000",1553849491.719404,0.531683,-1.166131,3.007692,0.199606,0.919234,-0.339361,0.000000,0.000000,0.000000,-1,0.191586,0.236161,0.073261,-0.704000,0.328294,0.358297
"2019-03-29 08:51:31.742 +0000",1553849491.741703,0.532414,-1.166634,3.017096,0.199619,0.919432,-0.338817,0.000000,0.000000,0.000000,-1,-0.261393,-0.523925,0.161690,-0.456622,0.411531,0.318172
"2019-03-29 08:51:31.764 +0000",1553849491.763983,0.538413,-1.176188,3.035754,0.197134,0.923147,-0.330056,0.000000,0.000000,0.000000,-1,-0.723874,-0.415542,-0.072692,-0.327749,0.410730,0.420373
"2019-03-29 08:51:31.786 +0000",1553849491.786291,0.546984,-1.200735,3.052373,0.188111,0.932305,-0.308904,0.000000,0.000000,0.000000,-1,-1.367525,-0.350779,-0.433299,-0.133408,0.337669,0.598134
"2019-03-29 08:51:31.809 +0000",1553849491.808587,0.567006,-1.244684,3.088908,0.172070,0.947295,-0.270230,0.000000,0.000000,0.000000,-1,-2.289557,-0.701577,-0.703499,-0.267986,0.351243,0.665463
"2019-03-29 08:51:31.831 +0000",1553849491.830878,0.600930,-1.310288,3.135034,0.145634,0.966259,-0.212448,0.000000,0.000000,0.000000,-1,-3.028512,-0.324531,-1.417993,-0.421436,0.526386,0.701431
"2019-03-29 08:51:31.853 +0000",1553849491.853184,0.606970,-1.385942,-3.124015,0.104838,0.982963,-0.150972,0.000000,0.000000,0.000000,-1,-2.814903,-1.126777,-1.807753,-0.510828,0.325112,0.436586
"2019-03-29 08:51:31.875 +0000",1553849491.875492,0.581999,-1.454391,-3.111801,0.063843,0.993233,-0.097021,0.000000,0.000000,0.000000,-1,-2.426595,-1.926247,-1.497798,-0.521988,0.154289,0.366675
"2019-03-29 08:51:31.898 +0000",1553849491.897768,0.602628,-1.509561,-3.056321,0.034687,0.998126,-0.050417,0.000000,0.000000,0.000000,-1,-2.062840,-1.063173,-1.028936,-0.045002,0.415372,-0.183333
"2019-03-29 08:51:31.920 +0000",1553849491.920088,0.905959,-1.557764,-2.746518,0.010261,0.999915,-0.008044,0.000000,0.000000,0.000000,-1,-1.801687,0.121044,-1.167112,0.559716,0.390359,-0.664274
"2019-03-29 08:51:31.942 +0000",1553849491.942385,-2.650072,-1.542610,-0.038999,-0.013301,0.999603,0.024847,0.000000,0.000000,0.000000,-1,-1.252818,1.330375,-0.886084,0.716716,0.485672,-0.438680
"2019-03-29 08:51:31.965 +0000",1553849491.964690,-2.426865,-1.513433,0.159143,-0.037576,0.998355,0.043302,0.000000,0.000000,0.000000,-1,-0.692109,0.526710,-1.362521,0.429941,0.394269,0.164081
"2019-03-29 08:51:31.987 +0000",1553849491.986970,-2.230211,-1.472652,0.376424,-0.077444,0.995188,0.060032,0.000000,0.000000,0.000000,-1,-0.820414,-1.602808,-2.016046,0.515295,0.296148,0.046673
"2019-03-29 08:51:32.009 +0000",1553849492.009278,-2.262051,-1.423858,0.395736,-0.112802,0.989224,0.093338,0.000000,0.000000,0.000000,-1,-1.470422,-2.455312,-1.627911,0.230737,0.325580,-0.255782
"2019-03-29 08:51:32.032 +0000",1553849492.031585,-2.362195,-1.377244,0.352916,-0.135191,0.981327,0.136823,0.000000,0.000000,0.000000,-1,-1.781988,-2.722759,-1.087276,-0.170458,0.460506,-0.265317
"2019-03-29 08:51:32.054 +0000",1553849492.053863,-2.507309,-1.330437,0.284302,-0.141069,0.971253,0.191750,0.000000,0.000000,0.000000,-1,-2.125287,-4.135065,-0.753587,0.081179,-0.000076,-0.330605
"2019-03-29 08:51:32.076 +0000",1553849492.076171,-2.657647,-1.284560,0.233666,-0.131368,0.959313,0.249921,0.000000,0.000000,0.000000,-1,-1.960289,-4.578151,-0.512640,-0.034663,-0.226998,-0.479826
"2019-03-29 08:51:32.098 +0000",1553849492.098478,-2.780722,-1.246401,0.208746,-0.112542,0.947844,0.298205,0.000000,0.000000,0.000000,-1,-1.497816,-4.354614,-0.335788,-0.038078,-0.279982,-0.728274
"2019-03-29 08:51:32.121 +0000",1553849492.120786,-2.886157,-1.221772,0.198507,-0.086407,0.939707,0.330885,0.000000,0.000000,0.000000,-1,-0.864613,-4.277167,-0.100501,0.262662,-0.505487,-0.750441
"2019-03-29 08:51:32.143 +0000",1553849492.143064,-2.985314,-1.213096,0.189241,-0.054494,0.936704,0.345855,0.000000,0.000000,0.000000,-1,-0.116961,-3.818284,0.145094,0.358586,-0.634077,-0.701278
"2019-03-29 08:51:32.165 +0000",1553849492.165370,-3.069873,-1.221951,0.178098,-0.024494,0.939768,0.340935,0.000000,0.000000,0.000000,-1,0.637752,-3.056188,0.225491,0.467395,-0.693399,-0.667625
"2019-03-29 08:51:32.188 +0000",1553849492.187670,3.139388,-1.243325,0.167494,0.000709,0.946859,0.321649,0.000000,0.000000,0.000000,-1,1.097823,-2.794399,0.114196,0.381173,-0.607625,-0.320856
"2019-03-29 08:51:32.210 +0000",1553849492.209955,3.095182,-1.268713,0.167306,0.013803,0.954719,0.297189,0.000000,0.000000,0.000000,-1,1.137045,-1.247532,-0.063269,0.307319,-0.573509,-0.186365
"2019-03-29 08:51:32.232 +0000",1553849492.232263,3.083154,-1.287562,0.154798,0.016322,0.960157,0.278986,0.000000,0.000000,0.000000,-1,0.467225,0.431405,0.270132,0.237935,-0.430402,0.112082
"2019-03-29 08:51:32.255 +0000",1553849492.254572,3.071225,-1.276217,0.150849,0.020413,0.956924,0.289618,0.000000,0.000000,0.000000,-1,-0.942814,-1.008830,-0.140712,-0.005811,-0.095596,0.613092
"2019-03-29 08:51:32.277 +0000",1553849492.276849,3.072318,-1.254721,0.182446,0.021516,0.950463,0.310094,0.000000,0.000000,0.000000,-1,-0.892792,-1.150288,-0.461975,0.587630,0.600044,0.507411
"2019-03-29 08:51:32.299 +0000",1553849492.299157,3.104519,-1.239914,0.229068,0.012042,0.945756,0.324654,0.000000,0.000000,0.000000,-1,-0.592142,-0.230974,-0.713153,0.407255,0.807952,0.694099
"2019-03-29 08:51:32.321 +0000",1553849492.321463,-3.127908,-1.234401,0.286874,-0.004517,0.943951,0.330056,0.000000,0.000000,0.000000,-1,0.026597,-0.267223,-0.929661,0.117524,0.271076,0.684578
"2019-03-29 08:51:32.344 +0000",1553849492.343764,-3.084942,-1.245801,0.336799,-0.018079,0.947652,0.318792,0.000000,0.000000,0.000000,-1,0.791631,0.203749,-0.422411,-0.090564,-0.149114,0.407404
"2019-03-29 08:51:32.366 +0000",1553849492.366049,-3.049750,-1.264707,0.339926,-0.027636,0.953519,0.300062,0.000000,0.000000,0.000000,-1,0.704819,2.021560,0.130824,0.025774,-0.617109,0.293108
"2019-03-29 08:51:32.388 +0000",1553849492.388357,-2.988921,-1.281704,0.336750,-0.043355,0.958503,0.281766,0.000000,0.000000,0.000000,-1,0.870269,2.874645,0.264744,0.454381,-0.512122,0.300830
"2019-03-29 08:51:32.411 +0000",1553849492.410666,-3.010265,-1.293018,0.284075,-0.035909,0.961667,0.271859,0.000000,0.000000,0.000000,-1,0.110135,0.656521,0.945316,0.706716,0.518497,-0.197289
"2019-03-29 08:51:32.433 +0000",1553849492.432942,-3.046648,-1.308081,0.208996,-0.024620,0.965688,0.258534,0.000000,0.000000,0.000000,-1,1.002890,2.421893,0.872963,0.933022,0.430048,-0.451771
"2019-03-29 08:51:32.455 +0000",1553849492.455250,-3.018099,-1.350645,0.168652,-0.026900,0.975864,0.216714,0.000000,0.000000,0.000000,-1,2.373073,3.346174,0.516754,0.950743,0.324276,0.095206
"2019-03-29 08:51:32.478 +0000",1553849492.477558,-2.905945,-1.414361,0.192207,-0.036375,0.987789,0.151492,0.000000,0.000000,0.000000,-1,2.975806,4.278936,0.211002,0.267713,-0.359447,-0.397448
"2019-03-29 08:51:32.500 +0000",1553849492.499865,-2.674311,-1.477012,0.337317,-0.042184,0.995605,0.083608,0.000000,0.000000,0.000000,-1,2.781043,3.499120,0.258779,0.253183,-0.552032,-0.736577
"2019-03-29 08:51:32.522 +0000",1553849492.522142,-2.361431,-1.523698,0.585490,-0.033117,0.998891,0.033465,0.000000,0.000000,0.000000,-1,1.741665,2.707383,0.816161,-0.153498,-0.187841,-1.024814
"2019-03-29 08:51:32.544 +0000",1553849492.544465,-1.568110,-1.555537,1.326911,-0.015256,0.999884,-0.000041,0.000000,0.000000,0.000000,-1,1.299639,2.094496,0.807809,-0.349932,0.411844,-0.027684
"2019-03-29 08:51:32.567 +0000",1553849492.566758,-0.018009,-1.539931,2.842436,-0.000556,0.999524,-0.030855,0.000000,0.000000,0.000000,-1,1.427207,1.367685,0.530231,-0.279809,0.392719,0.223925
"2019-03-29 08:51:32.589 +0000",1553849492.589034,0.175735,-1.508384,3.015056,0.010905,0.998053,-0.061411,0.000000,0.000000,0.000000,-1,1.345200,0.636963,0.536682,-0.188059,0.281396,0.145289
"2019-03-29 08:51:32.611 +0000",1553849492.611343,0.276937,-1.472712,3.107507,0.026774,0.995194,-0.094196,0.000000,0.000000,0.000000,-1,1.578835,0.344784,0.665911,-0.142207,-0.049530,-0.063153
"2019-03-29 08:51:32.634 +0000",1553849492.633645,0.307034,-1.430854,3.113021,0.042157,0.990224,-0.132962,0.000000,0.000000,0.000000,-1,1.811199,1.693781,0.515096,0.324771,-0.244664,0.101163
"2019-03-29 08:51:32.656 +0000",1553849492.655957,0.355818,-1.394937,3.111561,0.060946,0.984577,-0.163995,0.000000,0.000000,0.000000,-1,1.382750,2.397301,0.528516,0.265759,-0.147891,0.232049
"2019-03-29 08:51:32.678 +0000",1553849492.678235,0.396245,-1.360175,3.098816,0.080691,0.977901,-0.192868,0.000000,0.000000,0.000000,-1,1.621880,2.372388,0.422153,0.100492,-0.005703,0.392957
"2019-03-29 08:51:32.701 +0000",1553849492.700543,0.427206,-1.321600,3.077256,0.102184,0.969111,-0.224460,0.000000,0.000000,0.000000,-1,1.623467,2.231328,0.527611,-0.073162,0.046484,0.352268
"2019-03-29 08:51:32.723 +0000",1553849492.722850,0.479796,-1.286834,3.082473,0.129322,0.959953,-0.248528,0.000000,0.000000,0.000000,-1,1.168174,1.982797,0.885657,-0.181705,-0.030677,0.125039
"2019-03-29 08:51:32.745 +0000",1553849492.745135,0.537538,-1.257975,3.111296,0.157572,0.951469,-0.264344,0.000000,0.000000,0.000000,-1,0.842979,0.915275,0.986794,-0.162348,-0.210365,0.168442
"2019-03-29 08:51:32.767 +0000",1553849492.767435,0.569383,-1.230785,3.138877,0.179793,0.942751,-0.280883,0.000000,0.000000,0.000000,-1,0.854768,-0.035727,0.961746,-0.097930,-0.161150,0.214950
"2019-03-29 08:51:32.790 +0000",1553849492.789743,0.578286,-1.202930,-3.129019,0.196568,0.933097,-0.301151,0.000000,0.000000,0.000000,-1,0.929282,-0.274898,0.818758,-0.185383,0.020028,0.251911
"2019-03-29 08:51:32.812 +0000",1553849492.812021,0.588584,-1.180642,-3.119727,0.211154,0.924850,-0.316332,0.000000,0.000000,0.000000,-1,0.603826,0.335406,0.573777,-0.380160,0.104141,0.433016
"2019-03-29 08:51:32.834 +0000",1553849492.834329,0.605822,-1.168427,-3.116966,0.222992,0.920136,-0.321908,0.000000,0.000000,0.000000,-1,0.325523,0.755923,0.234978,-0.504013,0.272003,0.459283
"2019-03-29 08:51:32.857 +0000",1553849492.856618,0.621729,-1.163398,-3.108767,0.230776,0.918155,-0.322078,0.000000,0.000000,0.000000,-1,-0.023480,0.022800,0.285996,-0.644152,0.408216,0.297038
"2019-03-29 08:51:32.879 +0000",1553849492.878945,0.629592,-1.163335,-3.092701,0.233335,0.918130,-0.320300,0.000000,0.000000,0.000000,-1,-0.229954,-0.323458,0.157484,-0.542585,0.397910,0.325137
"2019-03-29 08:51:32.901 +0000",1553849492.901221,0.638874,-1.174211,-3.081045,0.230331,0.922385,-0.310086,0.000000,0.000000,0.000000,-1,-0.738332,0.100149,-0.311697,-0.247497,0.322381,0.416043
"2019-03-29 08:51:32.924 +0000",1553849492.923530,0.653919,-1.201999,-3.065710,0.219289,0.932762,-0.286126,0.000000,0.000000,0.000000,-1,-1.439927,-0.242261,-0.663753,-0.251760,0.289437,0.495751
"2019-03-29 08:51:32.946 +0000",1553849492.945837,0.678124,-1.249707,-3.027692,0.197987,0.948892,-0.245774,0.000000,0.000000,0.000000,-1,-2.383652,-0.491381,-1.041551,-0.456867,0.403632,0.686326
"2019-03-29 08:51:32.968 +0000",1553849492.968115,0.727138,-1.319152,-2.969218,0.165517,0.968504,-0.186021,0.000000,0.000000,0.000000,-1,-3.050801,-0.168103,-1.671180,-0.400640,0.514238,0.548966
"2019-03-29 08:51:32.990 +0000",1553849492.990457,0.784012,-1.394505,-2.899824,0.123840,0.984501,-0.124184,0.000000,0.000000,0.000000,-1,-2.790977,-0.914007,-1.810831,-0.527710,0.365047,0.296410
"2019-03-29 08:51:33.013 +0000",1553849493.012729,0.894782,-1.458971,-2.749209,0.087051,0.993754,-0.069822,0.000000,0.000000,0.000000,-1,-2.550001,-2.050968,-1.277127,-0.331252,0.330739,0.503416
"2019-03-29 08:51:33.035 +0000",1553849493.035038,1.299454,-1.502653,-2.310278,0.065599,0.997679,-0.018250,0.000000,0.000000,0.000000,-1,-2.379002,-0.994575,-0.739353,0.032149,0.420961,-0.193359
"2019-03-29 08:51:33.057 +0000",1553849493.057315,2.167360,-1.514121,-1.431434,0.046861,0.998394,0.031824,0.000000,0.000000,0.000000,-1,-2.172167,0.031901,-0.944381,0.497450,0.412922,-0.767724
"2019-03-29 08:51:33.080 +0000",1553849493.079606,2.810791,-1.492358,-0.808036,0.025451,0.996925,0.074110,0.000000,0.000000,0.000000,-1,-1.682724,1.448521,-0.814084,0.528367,0.383156,0.089587
"2019-03-29 08:51:33.102 +0000",1553849493.101930,3.116488,-1.465004,-0.532607,0.002651,0.994409,0.105561,0.000000,0.000000,0.000000,-1,-1.207598,0.957992,-1.106016,0.438450,0.377280,0.171264
"2019-03-29 08:51:33.124 +0000",1553849493.124208,-2.879913,-1.440321,-0.231924,-0.033659,0.991500,0.125676,0.000000,0.000000,0.000000,-1,-0.776703,-1.167786,-2.126535,0.482465,0.295838,0.066982
"2019-03-29 08:51:33.147 +0000",1553849493.146517,-2.686555,-1.401925,-0.007024,-0.073866,0.985775,0.150968,0.000000,0.000000,0.000000,-1,-1.287238,-1.438516,-1.776999,0.393141,0.275822,-0.201993
"2019-03-29 08:51:33.169 +0000",1553849493.168806,-2.653014,-1.356739,0.071628,-0.099707,0.977177,0.187572,0.000000,0.000000,0.000000,-1,-1.601948,-2.155282,-1.316733,-0.238977,0.180843,-0.243984
"2019-03-29 08:51:33.191 +0000",1553849493.191101,-2.711090,-1.309354,0.079733,-0.107868,0.966018,0.234890,0.000000,0.000000,0.000000,-1,-1.975276,-3.809713,-0.923842,0.034763,0.012253,-0.283779
"2019-03-29 08:51:33.213 +0000",1553849493.213408,-2.807495,-1.266637,0.086792,-0.098208,0.954099,0.282932,0.000000,0.000000,0.000000,-1,-1.830959,-4.859467,-0.733341,-0.055310,-0.082792,-0.515445
"2019-03-29 08:51:33.236 +0000",1553849493.235716,-2.901809,-1.230368,0.098180,-0.079296,0.942612,0.324338,0.000000,0.000000,0.000000,-1,-1.256798,-4.581743,-0.553201,0.075161,-0.163345,-0.856595
"2019-03-29 08:51:33.258 +0000",1553849493.258024,-2.987245,-1.211109,0.112842,-0.054112,0.936007,0.347798,0.000000,0.000000,0.000000,-1,-0.550643,-4.367617,-0.291805,0.185292,-0.355181,-0.855168
"2019-03-29 08:51:33.280 +0000",1553849493.280300,-3.068594,-1.208457,0.119580,-0.025852,0.935070,0.353519,0.000000,0.000000,0.000000,-1,0.209683,-3.598808,-0.066322,0.311131,-0.586483,-0.783557
"2019-03-29 08:51:33.303 +0000",1553849493.302619,-3.127930,-1.227302,0.127046,-0.004601,0.941584,0.336748,0.000000,0.000000,0.000000,-1,1.241256,-2.613182,-0.109365,0.423119,-0.769586,-0.447817
"2019-03-29 08:51:33.325 +0000",1553849493.324915,3.114135,-1.265136,0.133303,0.008262,0.953648,0.300810,0.000000,0.000000,0.000000,-1,1.822584,-1.845282,-0.099805,0.363351,-0.795979,-0.314985
"2019-03-29 08:51:33.347 +0000",1553849493.347193,3.078357,-1.302047,0.123390,0.016779,0.964104,0.264995,0.000000,0.000000,0.000000,-1,1.545972,-0.664690,0.156313,0.244955,-0.829491,-0.117504
"2019-03-29 08:51:33.370 +0000",1553849493.369503,3.041175,-1.320014,0.082363,0.024878,0.968719,0.246911,0.000000,0.000000,0.000000,-1,0.111647,0.172467,0.481973,0.178613,-0.734115,0.119696
"2019-03-29 08:51:33.392 +0000",1553849493.391810,3.023583,-1.298488,0.086870,0.031666,0.963153,0.267084,0.000000,0.000000,0.000000,-1,-1.325188,-1.649270,-0.284013,0.285458,0.472715,0.536718
"2019-03-29 08:51:33.414 +0000",1553849493.414118,3.038124,-1.275156,0.140280,0.030092,0.956616,0.289795,0.000000,0.000000,0.000000,-1,-0.875002,-1.328293,-0.676199,0.448805,0.814319,0.656601
"2019-03-29 08:51:33.436 +0000",1553849493.436395,3.084931,-1.263240,0.205742,0.017144,0.953076,0.302244,0.000000,0.000000,0.000000,-1,-0.462675,-0.455609,-0.909547,0.216728,1.075549,0.826891
"2019-03-29 08:51:33.459 +0000",1553849493.458690,3.138953,-1.262401,0.267701,0.000801,0.952822,0.303529,0.000000,0.000000,0.000000,-1,0.208499,-0.033605,-0.648770,-0.024483,0.105589,0.562087
"2019-03-29 08:51:33.481 +0000",1553849493.481010,-3.122566,-1.273991,0.274303,-0.005564,0.956276,0.292414,0.000000,0.000000,0.000000,-1,0.543769,1.049817,0.180362,-0.074941,-0.234138,0.407583
"2019-03-29 08:51:33.503 +0000",1553849493.503287,-3.091517,-1.272611,0.268375,-0.014706,0.955871,0.293418,0.000000,0.000000,0.000000,-1,-0.236534,2.346364,-0.062222,0.305065,-0.520019,0.320992
"2019-03-29 08:51:33.526 +0000",1553849493.525580,-3.038396,-1.272633,0.266870,-0.030262,0.955878,0.292202,0.000000,0.000000,0.000000,-1,0.121704,2.300510,0.129381,0.700641,0.914255,0.479389
"2019-03-29 08:51:33.548 +0000",1553849493.547903,-2.994069,-1.291252,0.254168,-0.040557,0.961181,0.272921,0.000000,0.000000,0.000000,-1,1.262813,2.604262,0.310814,0.485137,1.069184,0.233671
"2019-03-29 08:51:33.570 +0000",1553849493.570205,-2.942802,-1.338923,0.252000,-0.045382,0.973238,0.225275,0.000000,0.000000,0.000000,-1,2.601542,2.152748,0.470463,0.428927,-0.319154,-0.649149
"2019-03-29 08:51:33.592 +0000",1553849493.592487,-2.863034,-1.403953,0.274797,-0.045664,0.986114,0.159669,0.000000,0.000000,0.000000,-1,2.806674,3.299234,0.443007,0.600062,-0.813857,-0.913819
"2019-03-29 08:51:33.615 +0000",1553849493.614796,-2.717505,-1.458507,0.332153,-0.046109,0.993702,0.102127,0.000000,0.000000,0.000000,-1,2.255822,3.764702,0.624720,0.706219,-0.914646,-0.692352
"2019-03-29 08:51:33.637 +0000",1553849493.637103,-2.634599,-1.507221,0.354235,-0.030848,0.997980,0.055541,0.000000,0.000000,0.000000,-1,1.769878,2.323163,1.049167,-0.002568,-0.357324,-0.663100
"2019-03-29 08:51:33.659 +0000",1553849493.659381,-2.730841,-1.546128,0.205099,-0.009850,0.999696,0.022615,0.000000,0.000000,0.000000,-1,1.294079,2.329959,0.949660,-0.327553,0.524413,-0.805193
"2019-03-29 08:51:33.682 +0000",1553849493.681683,0.582852,-1.560957,-2.803681,0.005413,0.999952,-0.008212,0.000000,0.000000,0.000000,-1,1.458598,1.303787,0.555663,-0.296887,0.480349,0.118121
"2019-03-29 08:51:33.704 +0000",1553849493.703995,0.392511,-1.527167,-3.007961,0.016683,0.999048,-0.040298,0.000000,0.000000,0.000000,-1,1.396169,0.166920,0.509904,-0.292806,0.292257,0.158340
"2019-03-29 08:51:33.726 +0000",1553849493.726274,0.394431,-1.491557,-3.010167,0.030419,0.996862,-0.073079,0.000000,0.000000,0.000000,-1,1.584886,0.413406,0.607040,-0.147286,-0.009054,-0.131664
"2019-03-29 08:51:33.749 +0000",1553849493.748566,0.389375,-1.451978,-3.041686,0.044999,0.992949,-0.109666,0.000000,0.000000,0.000000,-1,1.694428,1.627220,0.504512,0.241912,-0.235946,0.037858
"2019-03-29 08:51:33.771 +0000",1553849493.770888,0.412359,-1.417917,-3.066809,0.061031,0.988337,-0.139520,0.000000,0.000000,0.000000,-1,1.294486,2.308299,0.437509,0.188206,-0.106394,0.165246
"2019-03-29 08:51:33.793 +0000",1553849493.793196,0.439192,-1.386506,-3.086418,0.077919,0.983067,-0.165858,0.000000,0.000000,0.000000,-1,1.527613,1.975071,0.449250,0.002281,0.038342,0.328989
"2019-03-29 08:51:33.815 +0000",1553849493.815474,0.457050,-1.347771,-3.115999,0.097608,0.975233,-0.198478,0.000000,0.000000,0.000000,-1,1.594570,2.054229,0.552782,-0.070691,0.018282,0.296730
"2019-03-29 08:51:33.838 +0000",1553849493.837782,0.504251,-1.315058,-3.113186,0.122218,0.967477,-0.221476,0.000000,0.000000,0.000000,-1,1.073909,2.007150,0.842023,-0.076014,-0.033944,0.168528
"2019-03-29 08:51:33.860 +0000",1553849493.860089,0.564408,-1.288342,-3.085695,0.149088,0.960374,-0.235487,0.000000,0.000000,0.000000,-1,0.779933,1.115308,0.879586,-0.142084,-0.099184,0.231229
"2019-03-29 08:51:33.882 +0000",1553849493.882381,0.603616,-1.264737,-3.057207,0.171027,0.953528,-0.248060,0.000000,0.000000,0.000000,-1,0.666552,0.259163,0.903264,-0.099997,-0.139319,0.261900
"2019-03-29 08:51:33.905 +0000",1553849493.904674,0.616004,-1.239430,-3.037926,0.187972,0.945599,-0.265537,0.000000,0.000000,0.000000,-1,0.801176,-0.560333,0.833683,-0.349867,0.040851,0.291583
"2019-03-29 08:51:33.927 +0000",1553849493.926982,0.622453,-1.218339,-3.024331,0.201265,0.938527,-0.280462,0.000000,0.000000,0.000000,-1,0.535997,-0.007718,0.615291,-0.373949,0.093257,0.424658
"2019-03-29 08:51:33.949 +0000",1553849493.949290,0.635611,-1.205197,-3.020094,0.212242,0.933910,-0.287691,0.000000,0.000000,0.000000,-1,0.403420,0.683529,0.285317,-0.476143,0.163060,0.428133
"2019-03-29 08:51:33.972 +0000",1553849493.971565,0.648630,-1.198304,-3.019160,0.219853,0.931423,-0.290027,0.000000,0.000000,0.000000,-1,0.125408,0.252378,0.161249,-0.683629,0.362324,0.233279
"2019-03-29 08:51:33.994 +0000",1553849493.993887,0.651299,-1.196550,-3.011100,0.221617,0.930783,-0.290738,0.000000,0.000000,0.000000,-1,-0.144818,-0.401038,0.138401,-0.476087,0.361697,0.250927
"2019-03-29 08:51:34.016 +0000",1553849494.016181,0.654842,-1.205765,-2.996287,0.217412,0.934113,-0.283136,0.000000,0.000000,0.000000,-1,-0.669504,-0.432302,-0.254798,-0.371038,0.356781,0.305230
"2019-03-29 08:51:34.038 +0000",1553849494.038460,0.658932,-1.232147,-2.981228,0.203405,0.943204,-0.262663,0.000000,0.000000,0.000000,-1,-1.378728,-0.504354,-0.677486,-0.189688,0.279620,0.401411
"2019-03-29 08:51:34.061 +0000",1553849494.060760,0.676481,-1.277768,-2.953349,0.180837,0.957374,-0.225241,0.000000,0.000000,0.000000,-1,-2.101749,-0.255548,-1.153891,-0.363286,0.434304,0.630393
"2019-03-29 08:51:34.083 +0000",1553849494.083069,0.718777,-1.342975,-2.908471,0.148718,0.974161,-0.169982,0.000000,0.000000,0.000000,-1,-2.838576,0.065777,-1.644592,-0.380179,0.536414,0.549331
"2019-03-29 08:51:34.105 +0000",1553849494.105353,0.807619,-1.415380,-2.819272,0.111859,0.987947,-0.106995,0.000000,0.000000,0.000000,-1,-2.828519,-0.041153,-1.621309,-0.454388,0.417265,0.324890
"2019-03-29 08:51:34.128 +0000",1553849494.127661,1.041338,-1.474450,-2.568582,0.083026,0.995362,-0.048586,0.000000,0.000000,0.000000,-1,-2.583339,-1.036318,-1.003264,0.099912,0.314315,0.359423
"2019-03-29 08:51:34.150 +0000",1553849494.149968,1.621358,-1.502101,-1.966971,0.068553,0.997641,0.003469,0.000000,0.000000,0.000000,-1,-2.328709,-0.580204,-0.465088,0.323460,0.314462,0.005518
"2019-03-29 08:51:34.172 +0000",1553849494.172276,2.322382,-1.492239,-1.263144,0.057335,0.996916,0.053583,0.000000,0.000000,0.000000,-1,-2.182939,0.342127,-0.555088,0.775581,0.332018,-0.523737
"2019-03-29 08:51:34.195 +0000",1553849494.194565,2.730188,-1.463402,-0.871535,0.042864,0.994239,0.098245,0.000000,0.000000,0.000000,-1,-1.817844,0.931219,-0.634593,0.575818,0.309487,0.152885
"2019-03-29 08:51:34.217 +0000",1553849494.216861,2.986121,-1.438449,-0.621069,0.020434,0.991255,0.130370,0.000000,0.000000,0.000000,-1,-1.351631,-0.089249,-1.177376,0.433225,0.293917,0.258165
"2019-03-29 08:51:34.239 +0000",1553849494.239169,-3.085410,-1.403723,-0.389106,-0.009338,0.986076,0.166035,0.000000,0.000000,0.000000,-1,-1.684977,-1.121673,-1.542998,0.276443,0.271966,-0.001210
