timestamp,timeIntervalSince1970,attitude.roll,attitude.pitch,attitude.yaw,gravity.x,gravity.y,gravity.z,magneticField.x,magneticField.y,magneticField.z,magneticField.accuracy,rotationRate.x,rotationRate.y,rotationRate.z,userAcceleration.x,userAcceleration.y,userAcceleration.z
"2019-05-06 15:52:36.302 +0000",1557157956.301626,-1.114684,1.263210,0.854492,-0.271809,-0.953067,-0.133354,0.000000,0.000000,0.000000,-1,0.093824,-0.183485,-0.090635,-0.072430,0.023273,0.061668
"2019-05-06 15:52:36.322 +0000",1557157956.321614,-1.119527,1.266230,0.857152,-0.269860,-0.953977,-0.130780,0.000000,0.000000,0.000000,-1,0.101081,-0.082311,-0.141268,-0.068809,0.029523,0.054669
"2019-05-06 15:52:36.342 +0000",1557157956.341603,-1.121646,1.270252,0.858223,-0.266678,-0.955175,-0.128541,0.000000,0.000000,0.000000,-1,0.119821,-0.038562,-0.188932,-0.061844,0.010946,0.012894
"2019-05-06 15:52:36.362 +0000",1557157956.361562,-1.125991,1.274575,0.862660,-0.263504,-0.956446,-0.125603,0.000000,0.000000,0.000000,-1,0.178431,0.018495,-0.151039,-0.054062,-0.005620,0.007027
"2019-05-06 15:52:36.382 +0000",1557157956.381550,-1.134441,1.278462,0.872219,-0.261185,-0.957574,-0.121800,0.000000,0.000000,0.000000,-1,0.222926,0.043648,-0.100583,-0.044235,0.000878,-0.016842
"2019-05-06 15:52:36.402 +0000",1557157956.401539,-1.146389,1.282154,0.886109,-0.259397,-0.958631,-0.117214,0.000000,0.000000,0.000000,-1,0.287986,0.079508,-0.077689,-0.063540,0.015653,-0.025319
"2019-05-06 15:52:36.421 +0000",1557157956.421496,-1.165318,1.286571,0.907799,-0.257676,-0.959879,-0.110611,0.000000,0.000000,0.000000,-1,0.407654,0.106842,-0.078020,-0.081207,0.007578,-0.019439
"2019-05-06 15:52:36.441 +0000",1557157956.441483,-1.181909,1.290430,0.927440,-0.256047,-0.960954,-0.104916,0.000000,0.000000,0.000000,-1,0.297609,0.109181,-0.065766,-0.076031,0.025987,0.022671
"2019-05-06 15:52:36.461 +0000",1557157956.461443,-1.197871,1.293134,0.946131,-0.255267,-0.961699,-0.099869,0.000000,0.000000,0.000000,-1,0.279903,0.094038,-0.000896,-0.057736,0.064665,-0.049728
"2019-05-06 15:52:36.481 +0000",1557157956.481431,-1.188520,1.284688,0.939946,-0.261849,-0.959349,-0.105278,0.000000,0.000000,0.000000,-1,0.326338,0.135093,0.062535,-0.037818,0.052703,-0.069832
"2019-05-06 15:52:36.501 +0000",1557157956.501419,-1.211681,1.285733,0.967465,-0.263279,-0.959644,-0.098833,0.000000,0.000000,0.000000,-1,0.345400,0.178435,0.100162,-0.111935,0.080951,-0.092527
"2019-05-06 15:52:36.521 +0000",1557157956.521377,-1.231062,1.268782,0.992610,-0.280443,-0.954739,-0.099119,0.000000,0.000000,0.000000,-1,0.418239,0.283416,0.106707,-0.130735,0.059323,-0.022951
"2019-05-06 15:52:36.541 +0000",1557157956.541366,-1.257198,1.271253,1.028841,-0.280693,-0.955471,-0.091028,0.000000,0.000000,0.000000,-1,0.597272,0.534203,0.012903,-0.125237,0.036328,0.012949
"2019-05-06 15:52:36.561 +0000",1557157956.561323,-1.289747,1.271049,1.076165,-0.283694,-0.955411,-0.081900,0.000000,0.000000,0.000000,-1,0.600120,0.755659,-0.083934,-0.118650,0.054898,0.064993
"2019-05-06 15:52:36.581 +0000",1557157956.581312,-1.309158,1.275167,1.113348,-0.281426,-0.956619,-0.075359,0.000000,0.000000,0.000000,-1,0.574331,0.828789,-0.030391,-0.026664,0.048553,-0.008106
"2019-05-06 15:52:36.601 +0000",1557157956.601301,-1.329414,1.278124,1.150564,-0.280148,-0.957476,-0.068968,0.000000,0.000000,0.000000,-1,0.575880,0.731982,-0.008477,-0.000202,0.041262,-0.051104
"2019-05-06 15:52:36.621 +0000",1557157956.621258,-1.355687,1.281100,1.191701,-0.279078,-0.958331,-0.060976,0.000000,0.000000,0.000000,-1,0.639667,0.658523,-0.012789,-0.102758,0.044512,0.003130
"2019-05-06 15:52:36.641 +0000",1557157956.641245,-1.381627,1.284307,1.237140,-0.277545,-0.959242,-0.053138,0.000000,0.000000,0.000000,-1,0.670565,1.093237,-0.048845,-0.131635,-0.003725,0.104194
"2019-05-06 15:52:36.661 +0000",1557157956.661205,-1.398274,1.287243,1.282500,-0.275616,-0.960067,-0.048027,0.000000,0.000000,0.000000,-1,0.667412,1.469196,-0.002207,-0.135181,-0.063004,0.276741
"2019-05-06 15:52:36.681 +0000",1557157956.681195,-1.410069,1.288112,1.326864,-0.275339,-0.960310,-0.044640,0.000000,0.000000,0.000000,-1,0.562519,1.566847,0.075584,-0.041601,-0.079500,0.167534
"2019-05-06 15:52:36.701 +0000",1557157956.701181,-1.400918,1.288519,1.348033,-0.274535,-0.960423,-0.047091,0.000000,0.000000,0.000000,-1,0.124151,1.481177,-0.004864,-0.070421,-0.073665,-0.009488
"2019-05-06 15:52:36.721 +0000",1557157956.721138,-1.365422,1.289012,1.341375,-0.272227,-0.960561,-0.056708,0.000000,0.000000,0.000000,-1,-0.176844,1.415136,-0.038684,-0.040411,-0.171352,0.016837
"2019-05-06 15:52:36.741 +0000",1557157956.741128,-1.321787,1.287326,1.318138,-0.271063,-0.960091,-0.068928,0.000000,0.000000,0.000000,-1,-0.460445,0.835358,0.019905,0.123892,-0.021599,-0.009335
"2019-05-06 15:52:36.761 +0000",1557157956.761117,-1.278947,1.284000,1.282786,-0.270919,-0.959155,-0.081392,0.000000,0.000000,0.000000,-1,-0.613470,0.157900,-0.006632,0.216109,0.221545,0.018770
"2019-05-06 15:52:36.781 +0000",1557157956.781074,-1.237717,1.283259,1.238162,-0.268005,-0.958945,-0.092722,0.000000,0.000000,0.000000,-1,-0.529477,-0.165878,-0.118706,0.146256,0.227317,0.180048
"2019-05-06 15:52:36.801 +0000",1557157956.801063,-1.221048,1.280176,1.222168,-0.269199,-0.958066,-0.098189,0.000000,0.000000,0.000000,-1,-0.222865,0.306871,0.194367,0.078388,-0.107531,0.593367
"2019-05-06 15:52:36.821 +0000",1557157956.821020,-1.182353,1.271035,1.202658,-0.273293,-0.955407,-0.111841,0.000000,0.000000,0.000000,-1,-0.421456,1.345462,0.437373,-0.076042,-0.361091,0.629404
"2019-05-06 15:52:36.841 +0000",1557157956.841010,-1.157335,1.263251,1.203877,-0.277211,-0.953080,-0.121627,0.000000,0.000000,0.000000,-1,-0.061839,1.088506,0.208670,0.201131,-0.460464,0.162429
"2019-05-06 15:52:36.861 +0000",1557157956.860998,-1.134057,1.265839,1.188279,-0.272069,-0.953860,-0.127003,0.000000,0.000000,0.000000,-1,-0.310509,0.076090,-0.389334,0.333242,-0.313550,0.081089
"2019-05-06 15:52:36.881 +0000",1557157956.880956,-1.100293,1.268635,1.148581,-0.265249,-0.954696,-0.134905,0.000000,0.000000,0.000000,-1,-0.510899,-0.285979,-0.346300,0.302114,-0.339204,0.265505
"2019-05-06 15:52:36.901 +0000",1557157956.900945,-1.061367,1.265283,1.101064,-0.262591,-0.953693,-0.146686,0.000000,0.000000,0.000000,-1,-0.827639,-0.238489,-0.113098,0.319979,-0.328641,0.311679
"2019-05-06 15:52:36.921 +0000",1557157956.920904,-1.024417,1.262025,1.064751,-0.259646,-0.952708,-0.157900,0.000000,0.000000,0.000000,-1,-0.517208,0.115938,-0.170545,0.204089,-0.004812,0.153993
"2019-05-06 15:52:36.941 +0000",1557157956.940879,-0.994672,1.259188,1.031962,-0.257100,-0.951842,-0.167023,0.000000,0.000000,0.000000,-1,-0.421649,-0.195824,-0.134309,0.134236,-0.085146,0.032258
"2019-05-06 15:52:36.961 +0000",1557157956.960867,-0.982583,1.260757,1.014099,-0.253820,-0.952322,-0.169290,0.000000,0.000000,0.000000,-1,-0.067538,-0.239740,-0.244701,0.124578,-0.003352,0.124613
"2019-05-06 15:52:36.981 +0000",1557157956.980826,-0.975517,1.265047,1.003374,-0.249232,-0.953622,-0.168787,0.000000,0.000000,0.000000,-1,-0.033378,-0.086560,-0.296006,0.080546,0.011758,0.195582
"2019-05-06 15:52:37.001 +0000",1557157957.000815,-0.957438,1.268266,0.985744,-0.243629,-0.954586,-0.171498,0.000000,0.000000,0.000000,-1,-0.176775,0.130479,-0.276449,0.018516,0.005535,0.167744
"2019-05-06 15:52:37.021 +0000",1557157957.020772,-0.931304,1.269381,0.961354,-0.238210,-0.954917,-0.177170,0.000000,0.000000,0.000000,-1,-0.315934,0.122127,-0.235608,0.129048,0.011878,0.147186
"2019-05-06 15:52:37.041 +0000",1557157957.040761,-0.905562,1.267979,0.934531,-0.234623,-0.954500,-0.184068,0.000000,0.000000,0.000000,-1,-0.359008,-0.061984,-0.155716,0.211979,0.075975,0.079240
"2019-05-06 15:52:37.061 +0000",1557157957.060749,-0.892867,1.266993,0.919097,-0.233001,-0.954206,-0.187622,0.000000,0.000000,0.000000,-1,-0.117541,-0.119235,-0.085495,0.241012,0.052488,0.077988
"2019-05-06 15:52:37.081 +0000",1557157957.080710,-0.890932,1.268488,0.914490,-0.231528,-0.954652,-0.187176,0.000000,0.000000,0.000000,-1,0.037551,-0.125810,-0.124199,0.194617,-0.028655,0.061902
"2019-05-06 15:52:37.101 +0000",1557157957.100697,-0.889427,1.272428,0.911191,-0.228323,-0.955817,-0.185154,0.000000,0.000000,0.000000,-1,0.110086,-0.061817,-0.210940,0.199057,-0.071984,0.166935
"2019-05-06 15:52:37.121 +0000",1557157957.120684,-0.878442,1.275138,0.898951,-0.224280,-0.956611,-0.185996,0.000000,0.000000,0.000000,-1,-0.198281,-0.031300,-0.211264,0.135169,-0.028588,0.129615
"2019-05-06 15:52:37.141 +0000",1557157957.140643,-0.858725,1.273432,0.877713,-0.221805,-0.956112,-0.191448,0.000000,0.000000,0.000000,-1,-0.299800,-0.045476,-0.082840,0.113895,-0.041080,0.182522
"2019-05-06 15:52:37.161 +0000",1557157957.160631,-0.848484,1.269752,0.864474,-0.222471,-0.955027,-0.196034,0.000000,0.000000,0.000000,-1,-0.266308,-0.162075,0.061739,0.163297,0.008647,0.046452
"2019-05-06 15:52:37.181 +0000",1557157957.180591,-0.846228,1.265545,0.858337,-0.225035,-0.953771,-0.199197,0.000000,0.000000,0.000000,-1,-0.157907,-0.180629,0.108033,0.158735,0.052984,0.078469
"2019-05-06 15:52:37.201 +0000",1557157957.200578,-0.850458,1.262392,0.859342,-0.228134,-0.952819,-0.200226,0.000000,0.000000,0.000000,-1,-0.058832,-0.150233,0.144929,0.154114,0.040100,0.107116
"2019-05-06 15:52:37.221 +0000",1557157957.220567,-0.857305,1.259817,0.863784,-0.231354,-0.952034,-0.200264,0.000000,0.000000,0.000000,-1,-0.025338,-0.112169,0.140473,0.135422,0.080254,0.150063
"2019-05-06 15:52:37.241 +0000",1557157957.240524,-0.867337,1.257524,0.871793,-0.235015,-0.951330,-0.199345,0.000000,0.000000,0.000000,-1,0.072292,-0.147713,0.189826,0.128723,0.068823,0.138813
"2019-05-06 15:52:37.261 +0000",1557157957.260513,-0.885331,1.256684,0.887999,-0.239183,-0.951071,-0.195590,0.000000,0.000000,0.000000,-1,0.187694,-0.126728,0.186243,0.135591,-0.012247,0.094241
"2019-05-06 15:52:37.280 +0000",1557157957.280471,-0.902072,1.256565,0.903115,-0.242513,-0.951034,-0.191629,0.000000,0.000000,0.000000,-1,0.184047,-0.098812,0.127727,0.155675,-0.109543,0.183511
"2019-05-06 15:52:37.300 +0000",1557157957.300459,-0.915848,1.257305,0.915662,-0.244571,-0.951263,-0.187841,0.000000,0.000000,0.000000,-1,0.162182,-0.086794,0.070106,0.176181,-0.158951,0.188558
"2019-05-06 15:52:37.320 +0000",1557157957.320448,-0.926131,1.258767,0.924661,-0.245378,-0.951712,-0.184480,0.000000,0.000000,0.000000,-1,0.159467,-0.104546,0.006036,0.191331,-0.065621,0.201204
"2019-05-06 15:52:37.340 +0000",1557157957.340407,-0.938194,1.260218,0.933260,-0.246471,-0.952157,-0.180690,0.000000,0.000000,0.000000,-1,0.142508,-0.248160,0.047880,0.170192,-0.022239,0.157313
"2019-05-06 15:52:37.360 +0000",1557157957.360395,-0.954106,1.259233,0.943376,-0.250080,-0.951855,-0.177288,0.000000,0.000000,0.000000,-1,0.060983,-0.343124,0.171735,0.086247,0.075711,0.163723
"2019-05-06 15:52:37.380 +0000",1557157957.380382,-0.967982,1.256620,0.951795,-0.254564,-0.951051,-0.175210,0.000000,0.000000,0.000000,-1,0.048587,-0.237899,0.173265,0.076845,0.074617,0.161844
"2019-05-06 15:52:37.400 +0000",1557157957.400342,-0.981897,1.256432,0.963564,-0.257126,-0.950993,-0.171751,0.000000,0.000000,0.000000,-1,0.178269,-0.077250,0.065970,0.067810,0.018269,0.157026
"2019-05-06 15:52:37.420 +0000",1557157957.420331,-0.990175,1.257210,0.973009,-0.257920,-0.951233,-0.169210,0.000000,0.000000,0.000000,-1,0.118355,0.082449,0.033417,0.112504,-0.010345,0.185903
"2019-05-06 15:52:37.440 +0000",1557157957.440287,-0.997389,1.258610,0.981705,-0.258015,-0.951664,-0.166623,0.000000,0.000000,0.000000,-1,0.172717,0.010172,0.008807,0.123036,-0.052227,0.179379
"2019-05-06 15:52:37.460 +0000",1557157957.460276,-1.008022,1.260436,0.990882,-0.258302,-0.952224,-0.162942,0.000000,0.000000,0.000000,-1,0.150949,-0.136322,-0.011224,0.132692,-0.006456,0.155435
"2019-05-06 15:52:37.480 +0000",1557157957.480264,-1.015089,1.261375,0.994205,-0.258687,-0.952510,-0.160641,0.000000,0.000000,0.000000,-1,0.025632,-0.215766,0.000546,0.106465,0.015697,0.114163
"2019-05-06 15:52:37.500 +0000",1557157957.500224,-1.020661,1.260845,0.994842,-0.260009,-0.952348,-0.159461,0.000000,0.000000,0.000000,-1,-0.020677,-0.248744,0.032134,0.070968,-0.001875,0.135673
"2019-05-06 15:52:37.520 +0000",1557157957.520212,-1.023186,1.260069,0.993304,-0.261042,-0.952111,-0.159189,0.000000,0.000000,0.000000,-1,-0.051297,-0.183808,0.023776,0.011652,-0.016867,0.149225
"2019-05-06 15:52:37.540 +0000",1557157957.540169,-1.087558,1.269269,1.052415,-0.262973,-0.954884,-0.137991,0.000000,0.000000,0.000000,-1,-0.012643,-0.056331,-0.013776,0.014728,0.066380,0.158422
"2019-05-06 15:52:37.560 +0000",1557157957.560158,-1.082762,1.271178,1.047805,-0.260698,-0.955449,-0.138396,0.000000,0.000000,0.000000,-1,-0.008202,0.094417,-0.208104,0.068666,0.103139,0.153166
"2019-05-06 15:52:37.580 +0000",1557157957.580147,-1.069765,1.276727,1.037992,-0.254224,-0.957072,-0.139224,0.000000,0.000000,0.000000,-1,-0.007578,0.219391,-0.343942,0.202466,-0.034230,0.105227
"2019-05-06 15:52:37.600 +0000",1557157957.600106,-1.047550,1.284170,1.020875,-0.244890,-0.959203,-0.141272,0.000000,0.000000,0.000000,-1,-0.019779,0.289254,-0.503575,0.176088,-0.090312,-0.033166
"2019-05-06 15:52:37.620 +0000",1557157957.620093,-1.045718,1.294715,1.016684,-0.235866,-0.962131,-0.136643,0.000000,0.000000,0.000000,-1,0.314685,-0.312298,-0.209655,0.007060,-0.056012,0.125519
"2019-05-06 15:52:37.640 +0000",1557157957.640082,-1.062635,1.301020,1.032213,-0.232839,-0.963831,-0.129679,0.000000,0.000000,0.000000,-1,0.403840,-0.021695,-0.138459,-0.022059,0.053445,0.151209
"2019-05-06 15:52:37.660 +0000",1557157957.660040,-1.128513,1.303842,1.099172,-0.238412,-0.964579,-0.112905,0.000000,0.000000,0.000000,-1,0.436388,0.093330,-0.001115,-0.068183,-0.223821,-0.002497
"2019-05-06 15:52:37.680 +0000",1557157957.680029,-1.156051,1.308676,1.124385,-0.237160,-0.965843,-0.104418,0.000000,0.000000,0.000000,-1,0.409955,-0.378877,-0.127276,0.061134,-0.226082,-0.093779
"2019-05-06 15:52:37.700 +0000",1557157957.699987,-1.192686,1.314265,1.149202,-0.235804,-0.967276,-0.093667,0.000000,0.000000,0.000000,-1,0.409959,-0.699663,-0.154465,0.053462,0.008093,0.048653
"2019-05-06 15:52:37.720 +0000",1557157957.719975,-1.233690,1.320690,1.179797,-0.233576,-0.968886,-0.081865,0.000000,0.000000,0.000000,-1,0.478131,-0.508477,-0.171294,-0.149816,0.051451,0.157335
"2019-05-06 15:52:37.740 +0000",1557157957.739964,-1.263193,1.326576,1.204277,-0.230451,-0.970326,-0.073211,0.000000,0.000000,0.000000,-1,0.302915,-0.111477,-0.213900,-0.199695,0.072545,0.244079
"2019-05-06 15:52:37.760 +0000",1557157957.759922,-1.270335,1.331750,1.214400,-0.226168,-0.971564,-0.070076,0.000000,0.000000,0.000000,-1,0.170233,0.169175,-0.169451,-0.032315,0.186316,0.174828
"2019-05-06 15:52:37.780 +0000",1557157957.779911,-1.276024,1.335167,1.220680,-0.223385,-0.972368,-0.067824,0.000000,0.000000,0.000000,-1,0.052515,-0.110135,-0.142649,-0.046268,0.367021,-0.232988
"2019-05-06 15:52:37.800 +0000",1557157957.799868,-1.257795,1.339507,1.197803,-0.218095,-0.973372,-0.070584,0.000000,0.000000,0.000000,-1,-0.361791,-0.188605,-0.408448,-0.069625,0.432356,-0.220111
"2019-05-06 15:52:37.820 +0000",1557157957.819856,-1.202829,1.346280,1.142546,-0.207731,-0.974902,-0.080086,0.000000,0.000000,0.000000,-1,-0.464747,0.161968,-0.557538,0.007200,0.306369,0.042595
"2019-05-06 15:52:37.840 +0000",1557157957.839847,-1.154065,1.352137,1.103076,-0.198356,-0.976189,-0.087804,0.000000,0.000000,0.000000,-1,-0.157853,0.801439,-0.444065,0.225135,0.332406,0.282003
"2019-05-06 15:52:37.860 +0000",1557157957.859804,-1.128459,1.355962,1.099540,-0.192667,-0.977012,-0.091255,0.000000,0.000000,0.000000,-1,0.188466,1.309673,-0.016539,0.200297,0.402793,0.357460
"2019-05-06 15:52:37.880 +0000",1557157957.879792,-1.125489,1.351177,1.129451,-0.196612,-0.975981,-0.093839,0.000000,0.000000,0.000000,-1,0.030271,1.722774,0.566842,0.200610,0.345533,-0.067858
"2019-05-06 15:52:37.900 +0000",1557157957.899750,-1.110003,1.334618,1.138797,-0.209584,-0.972239,-0.104045,0.000000,0.000000,0.000000,-1,-0.427530,0.871193,0.889736,0.018193,-0.302098,-0.294774
"2019-05-06 15:52:37.920 +0000",1557157957.919739,-1.099195,1.317843,1.130670,-0.222946,-0.968177,-0.113699,0.000000,0.000000,0.000000,-1,-0.418947,-0.163167,0.526393,0.007706,-0.836205,-0.537897
"2019-05-06 15:52:37.940 +0000",1557157957.939717,-1.087970,1.307835,1.108874,-0.230226,-0.965625,-0.120686,0.000000,0.000000,0.000000,-1,-0.581808,-0.565903,0.164280,-0.292128,-0.458860,-0.298503
"2019-05-06 15:52:37.960 +0000",1557157957.959675,-1.063107,1.304799,1.073646,-0.229716,-0.964831,-0.127798,0.000000,0.000000,0.000000,-1,-0.347917,-0.271447,-0.201963,-0.370229,-0.482343,-0.285090
"2019-05-06 15:52:37.980 +0000",1557157957.979663,-1.028152,1.309730,1.035696,-0.221032,-0.966115,-0.133289,0.000000,0.000000,0.000000,-1,-0.311783,-0.111311,-0.598651,-0.262260,-0.576777,-0.371350
"2019-05-06 15:52:38.000 +0000",1557157957.999651,-0.995777,1.319749,0.995453,-0.208468,-0.968653,-0.135102,0.000000,0.000000,0.000000,-1,-0.053211,-0.389609,-0.756535,-0.144956,-0.542608,-0.335723
"2019-05-06 15:52:38.020 +0000",1557157958.019609,-0.970340,1.333483,0.963886,-0.193969,-0.971973,-0.132831,0.000000,0.000000,0.000000,-1,0.117872,-0.146484,-0.799243,-0.098206,-0.367077,-0.133541
"2019-05-06 15:52:38.040 +0000",1557157958.039597,-0.946102,1.348662,0.941272,-0.178704,-0.975429,-0.128849,0.000000,0.000000,0.000000,-1,0.301672,0.268325,-0.751475,-0.104987,-0.118244,0.020985
"2019-05-06 15:52:38.060 +0000",1557157958.059556,-0.916300,1.366318,0.923569,-0.161096,-0.979167,-0.123612,0.000000,0.000000,0.000000,-1,0.398016,0.827695,-0.889996,-0.106727,0.270671,0.048249
"2019-05-06 15:52:38.080 +0000",1557157958.079545,-0.865217,1.385226,0.892089,-0.140454,-0.982831,-0.119648,0.000000,0.000000,0.000000,-1,0.312154,1.073743,-0.967025,-0.010334,0.444852,-0.055706
"2019-05-06 15:52:38.100 +0000",1557157958.099533,-0.782368,1.402817,0.826686,-0.117863,-0.985925,-0.118579,0.000000,0.000000,0.000000,-1,0.115457,0.796277,-1.063214,0.056400,0.580239,-0.083874
"2019-05-06 15:52:38.119 +0000",1557157958.119492,-0.687383,1.413845,0.738342,-0.099180,-0.987708,-0.120812,0.000000,0.000000,0.000000,-1,-0.173572,0.148500,-0.781104,0.088117,0.516563,-0.134453
"2019-05-06 15:52:38.139 +0000",1557157958.139481,-0.631916,1.420074,0.687987,-0.088694,-0.988663,-0.121158,0.000000,0.000000,0.000000,-1,0.145966,0.419722,-0.330375,0.080790,0.409973,-0.144757
"2019-05-06 15:52:38.159 +0000",1557157958.159438,-0.624798,1.426471,0.692196,-0.084128,-0.989603,-0.116654,0.000000,0.000000,0.000000,-1,0.283329,0.578720,-0.095410,0.057685,0.318460,-0.149978
"2019-05-06 15:52:38.179 +0000",1557157958.179426,-0.610455,1.429826,0.689411,-0.080543,-0.990080,-0.115127,0.000000,0.000000,0.000000,-1,0.065109,0.570047,-0.169042,-0.046594,0.261259,-0.162796
"2019-05-06 15:52:38.199 +0000",1557157958.199414,-0.569171,1.433588,0.657665,-0.073714,-0.990602,-0.115215,0.000000,0.000000,0.000000,-1,-0.008745,0.465734,-0.317059,-0.190370,0.064820,-0.212376
"2019-05-06 15:52:38.219 +0000",1557157958.219372,-0.529910,1.434941,0.626004,-0.068458,-0.990786,-0.116863,0.000000,0.000000,0.000000,-1,-0.054511,0.351305,-0.140881,-0.297844,-0.088346,-0.340946
"2019-05-06 15:52:38.239 +0000",1557157958.239361,-0.514420,1.435438,0.616543,-0.066397,-0.990853,-0.117481,0.000000,0.000000,0.000000,-1,0.005075,0.280682,-0.056794,-0.222406,-0.037650,-0.404523
"2019-05-06 15:52:38.259 +0000",1557157958.259350,-0.491573,1.435476,0.596668,-0.063678,-0.990858,-0.118933,0.000000,0.000000,0.000000,-1,-0.117089,0.121203,-0.198931,-0.201535,0.016813,-0.429682
"2019-05-06 15:52:38.279 +0000",1557157958.279308,-0.417160,1.434788,0.523482,-0.054936,-0.990765,-0.123962,0.000000,0.000000,0.000000,-1,-0.333255,-0.107955,-0.610552,0.069646,-0.148319,-0.062012
"2019-05-06 15:52:38.299 +0000",1557157958.299296,-0.281083,1.437214,0.370785,-0.036945,-0.991091,-0.127959,0.000000,0.000000,0.000000,-1,-0.284097,-0.829999,-1.197087,0.270466,-0.335416,-0.046175
"2019-05-06 15:52:38.319 +0000",1557157958.319254,-0.147061,1.438673,0.216494,-0.019304,-0.991284,-0.130317,0.000000,0.000000,0.000000,-1,0.063586,-0.958944,-0.854828,0.061174,0.045285,0.121162
"2019-05-06 15:52:38.339 +0000",1557157958.339243,-0.101555,1.446021,0.150869,-0.012617,-0.992226,-0.123811,0.000000,0.000000,0.000000,-1,0.457954,-0.974229,-0.304938,-0.101625,0.143165,0.108049
"2019-05-06 15:52:38.359 +0000",1557157958.359231,-0.058991,1.459206,0.099162,-0.006565,-0.993780,-0.111165,0.000000,0.000000,0.000000,-1,0.752151,-0.025436,-0.427732,0.042393,0.005667,0.176686
"2019-05-06 15:52:38.379 +0000",1557157958.379190,0.030304,1.475532,0.013116,0.002882,-0.995466,-0.095076,0.000000,0.000000,0.000000,-1,0.811400,0.118912,-0.422451,-0.050383,-0.435091,0.097380
"2019-05-06 15:52:38.399 +0000",1557157958.399178,0.080609,1.489501,-0.039196,0.006539,-0.996697,-0.080942,0.000000,0.000000,0.000000,-1,0.638681,-0.125683,-0.070579,-0.315773,-0.489020,-0.062842
"2019-05-06 15:52:38.419 +0000",1557157958.419135,0.086599,1.499946,-0.046382,0.006123,-0.997491,-0.070525,0.000000,0.000000,0.000000,-1,0.560184,0.059748,0.081345,-0.320179,-0.557715,-0.200700
"2019-05-06 15:52:38.439 +0000",1557157958.439125,0.019275,1.518488,0.027056,0.001008,-0.998632,-0.052275,0.000000,0.000000,0.000000,-1,1.203782,0.426518,0.382782,-0.443284,-0.570551,-0.310228
"2019-05-06 15:52:38.459 +0000",1557157958.459113,-0.497400,1.547510,0.550592,-0.011110,-0.999729,-0.020463,0.000000,0.000000,0.000000,-1,1.789648,0.185150,0.778977,-0.529372,-0.538174,-0.391616
"2019-05-06 15:52:38.479 +0000",1557157958.479073,-2.075295,1.537038,2.132234,-0.029545,-0.999430,0.016314,0.000000,0.000000,0.000000,-1,1.818505,0.294787,0.948118,-0.473949,-0.310430,-0.262743
"2019-05-06 15:52:38.499 +0000",1557157958.499061,-2.407503,1.500631,2.481490,-0.046966,-0.997539,0.052051,0.000000,0.000000,0.000000,-1,1.838162,1.073439,0.769795,-0.313401,-0.172138,-0.028156
"2019-05-06 15:52:38.519 +0000",1557157958.519049,-2.528256,1.463820,2.625554,-0.061458,-0.994283,0.087311,0.000000,0.000000,0.000000,-1,1.814304,1.029926,0.547702,-0.018956,-0.031153,-0.064896
"2019-05-06 15:52:38.539 +0000",1557157958.539007,-2.614035,1.433319,2.722657,-0.068991,-0.990565,0.118411,0.000000,0.000000,0.000000,-1,1.464020,0.316069,0.234273,-0.062936,-0.062337,-0.179294
"2019-05-06 15:52:38.559 +0000",1557157958.558996,-2.674486,1.406766,2.790706,-0.073533,-0.986577,0.145803,0.000000,0.000000,0.000000,-1,1.443050,0.340235,0.079699,-0.082259,0.064183,0.007304
"2019-05-06 15:52:38.579 +0000",1557157958.578953,-2.745833,1.388717,2.873251,-0.069806,-0.983469,0.167078,0.000000,0.000000,0.000000,-1,0.843012,0.638836,-0.500723,0.090222,0.202158,-0.049280
"2019-05-06 15:52:38.599 +0000",1557157958.598942,-2.816733,1.385577,2.959525,-0.058780,-0.982896,0.174530,0.000000,0.000000,0.000000,-1,0.234120,0.754233,-0.763330,0.049945,0.307511,-0.181259
"2019-05-06 15:52:38.619 +0000",1557157958.618931,-2.863202,1.392137,3.019848,-0.048836,-0.984083,0.170869,0.000000,0.000000,0.000000,-1,-0.411521,0.515022,-0.404202,0.019738,0.576612,-0.181351
"2019-05-06 15:52:38.639 +0000",1557157958.638889,-2.813658,1.404500,2.976244,-0.053316,-0.986205,0.156710,0.000000,0.000000,0.000000,-1,-0.828347,0.183481,0.480148,0.009340,0.756239,-0.220659
"2019-05-06 15:52:38.659 +0000",1557157958.658877,-2.654403,1.418063,2.817564,-0.071223,-0.988359,0.134439,0.000000,0.000000,0.000000,-1,-1.304659,0.101039,1.079720,0.154994,0.959260,-0.093347
"2019-05-06 15:52:38.679 +0000",1557157958.678835,-2.410496,1.425495,2.572250,-0.096674,-0.989462,0.107788,0.000000,0.000000,0.000000,-1,-1.277373,-0.147599,1.507202,0.137156,1.096045,-0.054931
"2019-05-06 15:52:38.699 +0000",1557157958.698824,-2.263765,1.411079,2.416610,-0.122357,-0.987272,0.101598,0.000000,0.000000,0.000000,-1,0.397689,-0.280273,1.052216,-0.141513,1.386076,0.583674
"2019-05-06 15:52:38.719 +0000",1557157958.718811,-2.312388,1.383122,2.491177,-0.137579,-0.982441,0.126024,0.000000,0.000000,0.000000,-1,1.413284,2.692302,0.669138,-0.410532,0.143848,0.793578
"2019-05-06 15:52:38.739 +0000",1557157958.738770,-2.197715,1.363665,2.432928,-0.166546,-0.978625,0.120647,0.000000,0.000000,0.000000,-1,-0.222478,2.497518,1.361499,-0.255817,-0.823713,0.032765
"2019-05-06 15:52:38.759 +0000",1557157958.758757,-2.073589,1.349085,2.338967,-0.192685,-0.975522,0.105964,0.000000,0.000000,0.000000,-1,-0.799226,1.162801,0.778370,-0.040377,-1.186999,-0.018379
"2019-05-06 15:52:38.779 +0000",1557157958.778717,-1.979498,1.362441,2.253988,-0.189814,-0.978372,0.082206,0.000000,0.000000,0.000000,-1,-1.045287,0.340845,-0.764332,0.010951,-1.264670,0.375237
"2019-05-06 15:52:38.799 +0000",1557157958.798705,-1.964106,1.390031,2.249021,-0.166055,-0.983706,0.068901,0.000000,0.000000,0.000000,-1,-0.342704,0.712277,-1.471141,0.127161,-1.410947,0.131569
"2019-05-06 15:52:38.819 +0000",1557157958.818694,-1.977556,1.424443,2.273522,-0.133933,-0.989309,0.057696,0.000000,0.000000,0.000000,-1,-0.665812,0.241425,-1.727782,0.131522,-1.655649,-0.275988
"2019-05-06 15:52:38.839 +0000",1557157958.838651,-1.967258,1.459993,2.257382,-0.102000,-0.993868,0.042700,0.000000,0.000000,0.000000,-1,-0.821700,-0.693116,-1.545588,0.056879,-1.379774,-0.403952
"2019-05-06 15:52:38.859 +0000",1557157958.858639,-1.900068,1.493928,2.165912,-0.072667,-0.997047,0.024831,0.000000,0.000000,0.000000,-1,-1.249486,-1.441271,-1.311583,-0.058986,-0.846779,-0.379674
"2019-05-06 15:52:38.879 +0000",1557157958.878629,-1.347498,1.518367,1.582771,-0.051105,-0.998626,-0.011605,0.000000,0.000000,0.000000,-1,-2.349621,-1.537151,-0.913499,0.023395,-0.242280,-0.385184
"2019-05-06 15:52:38.899 +0000",1557157958.898587,-0.643791,1.500393,0.851206,-0.042223,-0.997523,-0.056264,0.000000,0.000000,0.000000,-1,-1.950983,-1.132573,-0.168521,-0.373365,0.414957,0.232320
"2019-05-06 15:52:38.919 +0000",1557157958.918575,-0.572542,1.477869,0.760398,-0.050273,-0.995685,-0.077995,0.000000,0.000000,0.000000,-1,-0.803666,-0.922119,0.563241,-0.469457,1.131718,0.425087
"2019-05-06 15:52:38.939 +0000",1557157958.938517,-0.647890,1.454500,0.815348,-0.070027,-0.993245,-0.092521,0.000000,0.000000,0.000000,-1,-0.884566,-1.202024,1.141416,-0.256434,1.544408,-0.021630
"2019-05-06 15:52:38.959 +0000",1557157958.958505,-0.719586,1.431747,0.874825,-0.091349,-0.990348,-0.104240,0.000000,0.000000,0.000000,-1,-0.713908,-0.658861,0.797421,0.237696,1.361137,-0.040826
"2019-05-06 15:52:38.978 +0000",1557157958.978493,-0.711943,1.408986,0.847456,-0.105251,-0.986937,-0.121972,0.000000,0.000000,0.000000,-1,-0.977394,-0.936389,0.526052,0.362697,1.107009,-0.073402
"2019-05-06 15:52:38.998 +0000",1557157958.998452,-0.746990,1.392909,0.853553,-0.120226,-0.984220,-0.129835,0.000000,0.000000,0.000000,-1,-0.208345,-2.084505,0.671294,0.235308,1.196454,0.050398
"2019-05-06 15:52:39.018 +0000",1557157959.018440,-0.842439,1.387080,0.912065,-0.136332,-0.983171,-0.121603,0.000000,0.000000,0.000000,-1,0.096398,-1.018012,0.373228,0.114573,1.035311,0.185019
"2019-05-06 15:52:39.038 +0000",1557157959.038398,-0.825205,1.373801,0.891477,-0.143795,-0.980659,-0.132780,0.000000,0.000000,0.000000,-1,-0.960678,-0.048377,0.368516,-0.120472,0.475288,0.420942
"2019-05-06 15:52:39.058 +0000",1557157959.058386,-0.738157,1.373851,0.803254,-0.131675,-0.980669,-0.144743,0.000000,0.000000,0.000000,-1,-0.416538,0.729326,-1.442640,0.664237,-0.490599,0.776533
"2019-05-06 15:52:39.078 +0000",1557157959.078375,-0.498425,1.381018,0.580080,-0.090179,-0.982046,-0.165691,0.000000,0.000000,0.000000,-1,-1.358262,0.342021,-1.963162,0.074279,-0.556742,-0.488499
"2019-05-06 15:52:39.098 +0000",1557157959.098333,-0.385769,1.388493,0.461729,-0.068216,-0.983429,-0.167972,0.000000,0.000000,0.000000,-1,1.037289,0.024451,-0.786412,-0.254782,-0.506714,0.375079
"2019-05-06 15:52:39.118 +0000",1557157959.118322,-0.402288,1.426151,0.502475,-0.056435,-0.989557,-0.132634,0.000000,0.000000,0.000000,-1,1.793913,1.718564,-0.343450,-0.021950,-0.424826,-0.062160
"2019-05-06 15:52:39.138 +0000",1557157959.138310,-0.416964,1.446464,0.541889,-0.050223,-0.992281,-0.113387,0.000000,0.000000,0.000000,-1,0.591421,0.618700,0.064035,-0.551888,-1.081618,-0.550736
"2019-05-06 15:52:39.158 +0000",1557157959.158268,-0.528754,1.451576,0.650581,-0.059999,-0.992902,-0.102696,0.000000,0.000000,0.000000,-1,0.779052,-0.529063,0.659477,-0.546232,-0.878101,-0.724483
"2019-05-06 15:52:39.178 +0000",1557157959.178256,-0.920650,1.463696,1.033773,-0.085088,-0.994270,-0.064704,0.000000,0.000000,0.000000,-1,2.286863,-0.910453,1.640630,-0.687342,-0.707893,-0.843575
"2019-05-06 15:52:39.198 +0000",1557157959.198215,-1.403240,1.444918,1.500760,-0.123788,-0.992088,-0.020938,0.000000,0.000000,0.000000,-1,2.061363,-0.785615,2.096431,-0.654044,-0.309273,-0.095090
"2019-05-06 15:52:39.218 +0000",1557157959.218204,-1.672853,1.416458,1.779204,-0.152927,-0.988113,0.015662,0.000000,0.000000,0.000000,-1,1.856550,0.724587,0.824650,-0.116833,0.145279,0.203424
"2019-05-06 15:52:39.238 +0000",1557157959.238193,-1.911216,1.407249,2.037586,-0.153476,-0.986656,0.054363,0.000000,0.000000,0.000000,-1,2.183282,1.011757,-0.286428,0.062106,-0.350182,0.189549
"2019-05-06 15:52:39.258 +0000",1557157959.258152,-2.118646,1.400062,2.281258,-0.145040,-0.985460,0.088496,0.000000,0.000000,0.000000,-1,1.759567,1.933000,-0.722130,0.296086,-0.133711,-0.161738
"2019-05-06 15:52:39.278 +0000",1557157959.278139,-2.265195,1.395521,2.468250,-0.133999,-0.984679,0.111589,0.000000,0.000000,0.000000,-1,1.378399,1.763186,-0.790985,0.473614,0.415663,0.128493
"2019-05-06 15:52:39.298 +0000",1557157959.298096,-2.401886,1.398404,2.641410,-0.115630,-0.985177,0.126710,0.000000,0.000000,0.000000,-1,0.773408,1.535420,-1.293034,0.448943,0.361612,0.268477
"2019-05-06 15:52:39.318 +0000",1557157959.318085,-2.499250,1.406984,2.759643,-0.097697,-0.986613,0.130578,0.000000,0.000000,0.000000,-1,-0.070424,0.663693,-0.779201,0.332408,0.375544,0.136039
"2019-05-06 15:52:39.338 +0000",1557157959.338073,-2.448947,1.421749,2.712013,-0.094826,-0.988913,0.114277,0.000000,0.000000,0.000000,-1,-1.238165,-0.148803,0.183216,0.408302,0.780142,-0.141865
"2019-05-06 15:52:39.358 +0000",1557157959.358032,-2.213481,1.434361,2.465784,-0.108876,-0.990707,0.081518,0.000000,0.000000,0.000000,-1,-1.823200,-0.557668,1.102588,0.260976,1.044632,-0.175741
"2019-05-06 15:52:39.378 +0000",1557157959.378020,-1.917318,1.423537,2.150724,-0.138006,-0.989177,0.049833,0.000000,0.000000,0.000000,-1,-1.546026,-0.871646,1.732493,0.230276,0.909099,0.330325
"2019-05-06 15:52:39.398 +0000",1557157959.398010,-1.847846,1.392648,2.076318,-0.170450,-0.984174,0.048470,0.000000,0.000000,0.000000,-1,0.975433,0.257613,1.385060,-0.239340,1.219006,1.216286
"2019-05-06 15:52:39.418 +0000",1557157959.417966,-1.902184,1.363608,2.174715,-0.194517,-0.978613,0.066929,0.000000,0.000000,0.000000,-1,1.339620,3.564208,0.820214,0.002592,-0.273157,1.008847
"2019-05-06 15:52:39.438 +0000",1557157959.437955,-1.878484,1.352553,2.222374,-0.206346,-0.976279,0.065573,0.000000,0.000000,0.000000,-1,0.285563,3.003261,0.002943,0.358827,-1.155541,0.335718
"2019-05-06 15:52:39.458 +0000",1557157959.457914,-1.868852,1.361010,2.254820,-0.199069,-0.978075,0.061155,0.000000,0.000000,0.000000,-1,0.226305,1.522946,-0.622036,0.083057,-1.116880,0.171694
"2019-05-06 15:52:39.478 +0000",1557157959.477903,-1.826093,1.370290,2.222205,-0.192710,-0.979966,0.050296,0.000000,0.000000,0.000000,-1,-0.947533,-0.228304,-0.008697,0.682273,-1.876647,-0.013309
"2019-05-06 15:52:39.498 +0000",1557157959.497891,-1.733862,1.371498,2.107948,-0.195355,-0.980206,0.032141,0.000000,0.000000,0.000000,-1,-0.830636,-1.221410,-0.165528,0.146176,-1.508365,-0.170462
"2019-05-06 15:52:39.518 +0000",1557157959.517849,-1.728407,1.385684,2.078056,-0.181775,-0.982916,0.028889,0.000000,0.000000,0.000000,-1,-0.434800,-1.382863,-0.830688,0.099836,-1.802607,-0.462407
"2019-05-06 15:52:39.538 +0000",1557157959.537838,-1.659117,1.404778,1.964623,-0.164613,-0.986251,0.014577,0.000000,0.000000,0.000000,-1,-1.536340,-2.575843,-0.781385,-0.144576,-1.455629,-0.533223
"2019-05-06 15:52:39.558 +0000",1557157959.557796,-1.468350,1.413297,1.713670,-0.156026,-0.987623,-0.016041,0.000000,0.000000,0.000000,-1,-2.283638,-2.895624,-0.186486,-0.198100,-0.480181,-0.227337
"2019-05-06 15:52:39.578 +0000",1557157959.577784,-1.212588,1.394685,1.397392,-0.164081,-0.984532,-0.061425,0.000000,0.000000,0.000000,-1,-2.937930,-2.952129,0.637280,-0.329495,0.720037,0.311364
"2019-05-06 15:52:39.598 +0000",1557157959.597772,-1.091992,1.355317,1.217924,-0.189771,-0.976874,-0.098509,0.000000,0.000000,0.000000,-1,-2.002268,-2.557306,1.366771,-0.208773,1.311148,0.714552
"2019-05-06 15:52:39.618 +0000",1557157959.617731,-1.071307,1.314876,1.163701,-0.222210,-0.967431,-0.121246,0.000000,0.000000,0.000000,-1,-1.304336,-0.740420,1.497675,0.104809,1.957406,0.112167
"2019-05-06 15:52:39.638 +0000",1557157959.637719,-1.081861,1.289203,1.184015,-0.245327,-0.960614,-0.130519,0.000000,0.000000,0.000000,-1,0.177187,0.760837,1.227923,0.154003,1.590024,0.260784
"2019-05-06 15:52:39.658 +0000",1557157959.657708,-1.115515,1.270478,1.220466,-0.265691,-0.955242,-0.130078,0.000000,0.000000,0.000000,-1,-0.255383,-0.449665,0.816716,0.614415,1.163311,-0.080172
"2019-05-06 15:52:39.678 +0000",1557157959.677666,-1.120433,1.258376,1.215958,-0.276715,-0.951593,-0.133793,0.000000,0.000000,0.000000,-1,-0.221230,-0.253869,0.296524,0.633313,1.227304,0.415821
"2019-05-06 15:52:39.698 +0000",1557157959.697655,-1.130440,1.265719,1.219894,-0.271712,-0.953824,-0.128035,0.000000,0.000000,0.000000,-1,0.487312,-0.395293,-0.719863,0.689894,0.614026,0.213454
"2019-05-06 15:52:39.718 +0000",1557157959.717611,-1.113777,1.282695,1.202501,-0.254972,-0.958785,-0.125380,0.000000,0.000000,0.000000,-1,-0.385555,0.236943,-0.706147,-0.191134,-0.060014,-0.447984
"2019-05-06 15:52:39.738 +0000",1557157959.737600,-1.035196,1.269888,1.120822,-0.254883,-0.955068,-0.151264,0.000000,0.000000,0.000000,-1,-1.749859,-0.254362,0.300602,-0.485077,0.458470,-0.354077
"2019-05-06 15:52:39.758 +0000",1557157959.757590,-0.984892,1.258574,1.066195,-0.255942,-0.951653,-0.169853,0.000000,0.000000,0.000000,-1,-0.115650,0.610950,-0.391618,0.705573,0.302788,1.810570
"2019-05-06 15:52:39.778 +0000",1557157959.777548,-0.894838,1.289072,1.020930,-0.216880,-0.960578,-0.173937,0.000000,0.000000,0.000000,-1,0.179186,3.011125,-2.482711,1.089591,-0.562097,1.705599
"2019-05-06 15:52:39.798 +0000",1557157959.797536,-0.760104,1.313141,0.880847,-0.175566,-0.966990,-0.184680,0.000000,0.000000,0.000000,-1,-0.394574,-1.137430,-1.289833,-0.323946,-0.757558,-0.589887
"2019-05-06 15:52:39.817 +0000",1557157959.817494,-0.755761,1.330958,0.864355,-0.162919,-0.971376,-0.172873,0.000000,0.000000,0.000000,-1,0.395243,0.443684,-0.788632,-0.250503,-0.273329,0.149939
"2019-05-06 15:52:39.837 +0000",1557157959.837483,-0.695980,1.336686,0.804172,-0.148730,-0.972721,-0.178026,0.000000,0.000000,0.000000,-1,-0.064613,-0.648159,-0.219604,0.069918,-0.847027,-0.832274
"2019-05-06 15:52:39.857 +0000",1557157959.857471,-0.815029,1.344793,0.913802,-0.163076,-0.974570,-0.153687,0.000000,0.000000,0.000000,-1,1.670907,-0.333211,0.801346,-0.642863,-1.321084,-0.492889
"2019-05-06 15:52:39.877 +0000",1557157959.877430,-0.981003,1.360237,1.086344,-0.173696,-0.977914,-0.116247,0.000000,0.000000,0.000000,-1,2.091533,0.228521,0.444835,-0.558085,-0.910437,-0.534632
"2019-05-06 15:52:39.897 +0000",1557157959.897418,-1.211553,1.376683,1.327914,-0.180582,-0.981219,-0.067816,0.000000,0.000000,0.000000,-1,2.789670,0.609681,0.374535,-0.596380,-0.650556,-0.315500
"2019-05-06 15:52:39.917 +0000",1557157959.917376,-1.474349,1.383362,1.614064,-0.185473,-0.982485,-0.017944,0.000000,0.000000,0.000000,-1,2.629152,0.384599,0.193497,-0.099958,-0.236005,-0.299149
"2019-05-06 15:52:39.937 +0000",1557157959.937351,-1.725191,1.382139,1.864818,-0.185310,-0.982257,0.028840,0.000000,0.000000,0.000000,-1,2.125890,-0.314219,-0.074778,0.117546,-0.087216,-0.185334
"2019-05-06 15:52:39.957 +0000",1557157959.957340,-1.893550,1.377690,2.045481,-0.181999,-0.981413,0.060869,0.000000,0.000000,0.000000,-1,1.496799,0.848567,-0.471921,0.333275,0.162031,0.060652
"2019-05-06 15:52:39.977 +0000",1557157959.977298,-2.014209,1.385464,2.183522,-0.166452,-0.982875,0.079057,0.000000,0.000000,0.000000,-1,0.859322,0.650899,-1.029421,0.408976,0.308528,0.106596
"2019-05-06 15:52:39.997 +0000",1557157959.997287,-2.135814,1.400646,2.316007,-0.143013,-0.985559,0.090665,0.000000,0.000000,0.000000,-1,0.570522,0.201250,-1.293248,0.620796,0.536615,0.292941
"2019-05-06 15:52:40.017 +0000",1557157960.017275,-2.217977,1.414137,2.390144,-0.124470,-0.987754,0.094070,0.000000,0.000000,0.000000,-1,-0.262730,-0.804255,-0.585993,0.475178,0.705558,-0.040237
"2019-05-06 15:52:40.037 +0000",1557157960.037232,-2.127125,1.423838,2.276862,-0.124349,-0.989221,0.077326,0.000000,0.000000,0.000000,-1,-1.418032,-1.106402,0.533624,0.184346,0.793542,-0.072763
"2019-05-06 15:52:40.057 +0000",1557157960.057221,-1.866747,1.415028,1.995816,-0.148395,-0.987893,0.045246,0.000000,0.000000,0.000000,-1,-1.799192,-0.604884,1.632340,-0.184155,1.042839,0.136532
"2019-05-06 15:52:40.077 +0000",1557157960.077179,-1.639396,1.384112,1.753423,-0.185166,-0.982625,0.012722,0.000000,0.000000,0.000000,-1,-1.657228,-0.670123,2.092229,0.160569,0.988149,0.147220
"2019-05-06 15:52:40.097 +0000",1557157960.097169,-1.629615,1.341626,1.750743,-0.226777,-0.973855,0.013354,0.000000,0.000000,0.000000,-1,0.734049,0.721749,2.228415,-0.135925,1.068307,0.654508
"2019-05-06 15:52:40.117 +0000",1557157960.117157,-1.684644,1.300436,1.848469,-0.265350,-0.963675,0.030341,0.000000,0.000000,0.000000,-1,1.725402,2.950231,1.464089,-0.348770,0.236075,1.285791
"2019-05-06 15:52:40.137 +0000",1557157960.137114,-1.726346,1.290326,1.949168,-0.273465,-0.960925,0.042884,0.000000,0.000000,0.000000,-1,0.983853,2.146940,-0.170553,0.128400,-0.573636,0.354074
"2019-05-06 15:52:40.157 +0000",1557157960.157103,-1.739915,1.303257,1.992131,-0.260588,-0.964424,0.044495,0.000000,0.000000,0.000000,-1,0.259420,0.882464,-0.922520,0.157118,-1.039680,0.208160
"2019-05-06 15:52:40.177 +0000",1557157960.177064,-1.721875,1.319820,1.983201,-0.245521,-0.968670,0.037378,0.000000,0.000000,0.000000,-1,-0.445928,0.463669,-0.532604,0.491645,-1.706882,0.060202
"2019-05-06 15:52:40.197 +0000",1557157960.197050,-1.680733,1.323525,1.938293,-0.243282,-0.969584,0.026854,0.000000,0.000000,0.000000,-1,-0.930962,-0.975646,-0.175465,0.262569,-2.083044,-0.246992
"2019-05-06 15:52:40.217 +0000",1557157960.217038,-1.627075,1.338712,1.855213,-0.229643,-0.973189,0.012938,0.000000,0.000000,0.000000,-1,-1.057953,-1.433732,-0.759431,-0.360476,-2.044969,-0.288374
"2019-05-06 15:52:40.237 +0000",1557157960.236996,-1.528686,1.355532,1.723884,-0.213416,-0.976920,-0.008992,0.000000,0.000000,0.000000,-1,-1.851356,-1.418588,-0.847566,-0.191872,-1.378839,-0.389155
"2019-05-06 15:52:40.257 +0000",1557157960.256985,-1.338424,1.357329,1.503568,-0.206156,-0.977302,-0.048786,0.000000,0.000000,0.000000,-1,-2.478295,-1.329538,-0.032532,-0.232183,-0.678704,-0.022884
"2019-05-06 15:52:40.277 +0000",1557157960.276973,-1.203015,1.326675,1.329704,-0.225540,-0.970350,-0.086904,0.000000,0.000000,0.000000,-1,-2.227551,-1.902438,1.426467,-0.246170,0.362730,0.387136
"2019-05-06 15:52:40.297 +0000",1557157960.296932,-1.151728,1.279942,1.232703,-0.261956,-0.957999,-0.116690,0.000000,0.000000,0.000000,-1,-2.020676,-2.227615,1.544220,0.071298,1.612052,0.481985
"2019-05-06 15:52:40.317 +0000",1557157960.316921,-1.109200,1.245626,1.152644,-0.286035,-0.947596,-0.142285,0.000000,0.000000,0.000000,-1,-1.801569,-1.316217,0.834489,-0.050345,2.090419,0.065213
"2019-05-06 15:52:40.337 +0000",1557157960.336878,-1.072563,1.225010,1.113519,-0.297732,-0.940809,-0.161969,0.000000,0.000000,0.000000,-1,-0.461948,0.679147,0.419367,0.120715,1.444883,0.297055
"2019-05-06 15:52:40.357 +0000",1557157960.356866,-1.065134,1.219812,1.114088,-0.300794,-0.939035,-0.166543,0.000000,0.000000,0.000000,-1,0.078898,0.335148,0.299882,0.241194,0.811883,-0.023917
"2019-05-06 15:52:40.377 +0000",1557157960.376854,-1.094979,1.218218,1.152971,-0.306960,-0.938485,-0.158178,0.000000,0.000000,0.000000,-1,0.875696,0.236376,0.321499,0.350738,1.170450,0.307669
"2019-05-06 15:52:40.397 +0000",1557157960.396813,-1.148841,1.225118,1.208370,-0.309116,-0.940846,-0.138768,0.000000,0.000000,0.000000,-1,0.904666,-0.186087,-0.014165,0.757434,1.116948,0.262685
"2019-05-06 15:52:40.417 +0000",1557157960.416802,-1.142246,1.229958,1.209987,-0.304049,-0.942475,-0.138910,0.000000,0.000000,0.000000,-1,-0.415348,0.721555,-0.252919,0.451037,0.670777,-0.159094
"2019-05-06 15:52:40.437 +0000",1557157960.436759,-1.092345,1.227495,1.173738,-0.298801,-0.941648,-0.154971,0.000000,0.000000,0.000000,-1,-0.417932,0.975307,-0.205821,-0.028622,0.040861,-0.046460
"2019-05-06 15:52:40.457 +0000",1557157960.456748,-1.077888,1.254938,1.181275,-0.273654,-0.950530,-0.146988,0.000000,0.000000,0.000000,-1,1.368465,1.239226,-2.103950,0.523227,-0.217576,1.542358
"2019-05-06 15:52:40.477 +0000",1557157960.476737,-0.941991,1.306914,1.065546,-0.210942,-0.965385,-0.153415,0.000000,0.000000,0.000000,-1,-0.994785,0.259241,-3.058863,0.500859,-0.769524,-0.684644
"2019-05-06 15:52:40.497 +0000",1557157960.496695,-0.800158,1.328361,0.902758,-0.172240,-0.970756,-0.167229,0.000000,0.000000,0.000000,-1,-0.439983,-0.733894,-1.653748,-0.621400,-0.523613,0.445946
"2019-05-06 15:52:40.517 +0000",1557157960.516683,-0.699179,1.341618,0.812429,-0.146209,-0.973853,-0.173875,0.000000,0.000000,0.000000,-1,-0.287383,1.219920,-0.985424,-0.338212,-1.004067,-0.258513
"2019-05-06 15:52:40.537 +0000",1557157960.536672,-0.693692,1.344886,0.820982,-0.143217,-0.974591,-0.172227,0.000000,0.000000,0.000000,-1,0.579404,0.617419,0.568197,-0.901262,-1.306049,-0.209792
"2019-05-06 15:52:40.557 +0000",1557157960.556630,-0.814906,1.350664,0.953949,-0.158892,-0.975868,-0.149781,0.000000,0.000000,0.000000,-1,1.694327,0.358146,0.879526,-0.329268,-0.591591,-0.719924
"2019-05-06 15:52:40.577 +0000",1557157960.576618,-1.038786,1.365206,1.183217,-0.175930,-0.978941,-0.103556,0.000000,0.000000,0.000000,-1,2.744394,-0.058226,0.965859,-0.267810,-0.358752,-0.704595
"2019-05-06 15:52:40.597 +0000",1557157960.596576,-1.344563,1.368810,1.518502,-0.195504,-0.979670,-0.045000,0.000000,0.000000,0.000000,-1,3.228873,1.610761,1.024594,-0.112098,-0.032049,0.188951
"2019-05-06 15:52:40.617 +0000",1557157960.616565,-1.600098,1.354390,1.800599,-0.214629,-0.976675,0.006291,0.000000,0.000000,0.000000,-1,2.640015,0.660653,0.907093,-0.160340,-0.190424,-0.232045
"2019-05-06 15:52:40.637 +0000",1557157960.636554,-1.746895,1.343499,1.965998,-0.221860,-0.974279,0.039478,0.000000,0.000000,0.000000,-1,1.397517,0.735659,0.083526,0.087659,-0.563105,-0.007297
"2019-05-06 15:52:40.657 +0000",1557157960.656511,-1.848499,1.343141,2.087277,-0.217048,-0.974198,0.061874,0.000000,0.000000,0.000000,-1,1.418036,0.734407,-0.556059,0.356315,0.223328,0.045014
"2019-05-06 15:52:40.677 +0000",1557157960.676502,-1.969322,1.355282,2.226003,-0.197091,-0.976867,0.082986,0.000000,0.000000,0.000000,-1,1.006786,0.479572,-1.498653,0.994897,0.116225,0.302634
"2019-05-06 15:52:40.696 +0000",1557157960.696460,-2.095809,1.378568,2.353112,-0.165316,-0.981581,0.095757,0.000000,0.000000,0.000000,-1,0.522017,-0.277522,-1.589083,0.310428,0.415281,0.211951
"2019-05-06 15:52:40.716 +0000",1557157960.716447,-2.102864,1.397339,2.346056,-0.148730,-0.984994,0.087557,0.000000,0.000000,0.000000,-1,-1.173249,-0.695087,-0.052686,0.105853,0.276635,0.164213
"2019-05-06 15:52:40.736 +0000",1557157960.736437,-1.930971,1.394043,2.165753,-0.164552,-0.984420,0.061971,0.000000,0.000000,0.000000,-1,-1.706675,-0.154919,1.265086,-0.123702,1.228194,0.062587
"2019-05-06 15:52:40.756 +0000",1557157960.756395,-1.707299,1.376096,1.943220,-0.191673,-0.981106,0.026327,0.000000,0.000000,0.000000,-1,-1.501462,0.343636,1.344297,0.208824,1.144024,-0.097266
"2019-05-06 15:52:40.776 +0000",1557157960.776384,-1.632956,1.354012,1.869666,-0.214674,-0.976594,0.013361,0.000000,0.000000,0.000000,-1,-0.292092,-0.171973,0.988485,0.334456,0.954301,0.046606
"2019-05-06 15:52:40.796 +0000",1557157960.796371,-1.676132,1.340448,1.892328,-0.227051,-0.973587,0.024005,0.000000,0.000000,0.000000,-1,0.874338,-1.488810,0.655111,0.177658,0.589142,0.481930
"2019-05-06 15:52:40.816 +0000",1557157960.816330,-1.799649,1.318468,2.023092,-0.243150,-0.968334,0.056638,0.000000,0.000000,0.000000,-1,2.047291,1.783472,0.850030,-0.502486,0.571681,1.749713
"2019-05-06 15:52:40.836 +0000",1557157960.836318,-1.844330,1.294146,2.112844,-0.262980,-0.961976,0.073783,0.000000,0.000000,0.000000,-1,0.807368,1.480355,0.656806,0.007075,-0.975326,0.468422
"2019-05-06 15:52:40.856 +0000",1557157960.856276,-1.828699,1.293757,2.126114,-0.264463,-0.961869,0.069759,0.000000,0.000000,0.000000,-1,0.334194,1.374689,-0.337594,0.236219,-1.567183,0.366642
"2019-05-06 15:52:40.876 +0000",1557157960.876265,-1.840147,1.305622,2.153128,-0.252628,-0.965047,0.069740,0.000000,0.000000,0.000000,-1,-0.172058,0.607180,-0.906878,0.449390,-1.983806,-0.123543
"2019-05-06 15:52:40.896 +0000",1557157960.896253,-1.821114,1.336378,2.127335,-0.225038,-0.972650,0.057538,0.000000,0.000000,0.000000,-1,-1.083580,-1.295866,-1.800500,0.179384,-2.561545,-0.497967
"2019-05-06 15:52:40.916 +0000",1557157960.916210,-1.769426,1.378340,2.041971,-0.187510,-0.981537,0.037743,0.000000,0.000000,0.000000,-1,-1.371660,-1.332776,-1.710438,-0.221715,-1.823639,-0.332039
"2019-05-06 15:52:40.936 +0000",1557157960.936172,-1.622750,1.406221,1.869885,-0.163613,-0.986488,0.008508,0.000000,0.000000,0.000000,-1,-1.990415,-1.105520,-0.912797,-0.059501,-1.325508,-0.164941
"2019-05-06 15:52:40.956 +0000",1557157960.956132,-1.317116,1.410733,1.532882,-0.154280,-0.987217,-0.040000,0.000000,0.000000,0.000000,-1,-3.127600,-1.539578,-0.218070,-0.232439,-0.323376,0.021552
"2019-05-06 15:52:40.976 +0000",1557157960.976119,-1.015280,1.377103,1.190174,-0.163540,-0.981300,-0.101513,0.000000,0.000000,0.000000,-1,-3.480586,-1.838521,0.705143,-0.355335,0.376884,0.419720
"2019-05-06 15:52:40.996 +0000",1557157960.996108,-0.893684,1.323239,1.027842,-0.190978,-0.969514,-0.153526,0.000000,0.000000,0.000000,-1,-2.502311,-1.994242,1.433165,-0.283525,1.351274,0.466500
"2019-05-06 15:52:41.016 +0000",1557157961.016065,-0.909188,1.278027,1.015883,-0.227711,-0.957448,-0.177315,0.000000,0.000000,0.000000,-1,-1.301786,-1.275820,1.685837,0.212620,2.267415,0.054818
"2019-05-06 15:52:41.036 +0000",1557157961.036055,-0.957590,1.255836,1.054145,-0.253339,-0.950809,-0.178275,0.000000,0.000000,0.000000,-1,0.743707,-0.068774,0.871576,0.484250,2.058170,0.924934
"2019-05-06 15:52:41.056 +0000",1557157961.056014,-1.017558,1.247476,1.100213,-0.270322,-0.948186,-0.166943,0.000000,0.000000,0.000000,-1,-0.138658,-1.088592,0.594471,0.257779,1.662602,0.075222
"2019-05-06 15:52:41.076 +0000",1557157961.076002,-1.029880,1.238856,1.092651,-0.279354,-0.945412,-0.167802,0.000000,0.000000,0.000000,-1,-0.288868,-1.158411,0.160520,0.220059,0.843056,0.197251
"2019-05-06 15:52:41.096 +0000",1557157961.095990,-1.043130,1.244118,1.081726,-0.277252,-0.947113,-0.161579,0.000000,0.000000,0.000000,-1,-0.026686,-0.895436,-0.526646,0.511932,0.751084,0.179187
"2019-05-06 15:52:41.116 +0000",1557157961.115947,-1.006452,1.246395,1.039146,-0.269317,-0.947842,-0.170483,0.000000,0.000000,0.000000,-1,-0.741583,0.106444,-0.339712,0.305969,0.588726,-0.293537
"2019-05-06 15:52:41.136 +0000",1557157961.135935,-0.967260,1.238790,1.004498,-0.268358,-0.945390,-0.184990,0.000000,0.000000,0.000000,-1,-0.345784,0.237195,0.113895,0.031984,0.397997,-0.285637
"2019-05-06 15:52:41.156 +0000",1557157961.155924,-0.999964,1.261539,1.055529,-0.256097,-0.952560,-0.164451,0.000000,0.000000,0.000000,-1,1.614865,2.581213,-1.091716,0.753381,0.159088,2.081763
"2019-05-06 15:52:41.176 +0000",1557157961.175883,-0.861190,1.303159,0.939963,-0.200620,-0.964398,-0.172301,0.000000,0.000000,0.000000,-1,-0.925705,-1.415918,-2.333378,0.197415,-2.439410,-1.154405
"2019-05-06 15:52:41.196 +0000",1557157961.195871,-0.858661,1.315069,0.899851,-0.191475,-0.967479,-0.165290,0.000000,0.000000,0.000000,-1,0.708616,-1.013497,-0.439332,-0.622841,-0.592869,0.491935
"2019-05-06 15:52:41.216 +0000",1557157961.215829,-0.840352,1.319913,0.887142,-0.184923,-0.968694,-0.165639,0.000000,0.000000,0.000000,-1,-0.404206,0.423150,-0.077373,-0.296415,-1.120326,-0.620570
"2019-05-06 15:52:41.236 +0000",1557157961.235817,-0.893481,1.314505,0.938715,-0.197538,-0.967337,-0.158866,0.000000,0.000000,0.000000,-1,1.031746,-0.352755,1.000590,-0.815020,-0.977457,-0.611260
"2019-05-06 15:52:41.256 +0000",1557157961.255806,-1.060822,1.317266,1.101680,-0.218908,-0.968033,-0.122441,0.000000,0.000000,0.000000,-1,2.004027,-0.455972,0.971888,-0.493083,-0.831818,-0.712597
"2019-05-06 15:52:41.276 +0000",1557157961.275765,-1.234883,1.320518,1.286887,-0.233831,-0.968844,-0.081641,0.000000,0.000000,0.000000,-1,2.373580,0.690778,0.745978,-0.297816,-0.325315,-0.069787
"2019-05-06 15:52:41.296 +0000",1557157961.295753,-1.423770,1.322495,1.492314,-0.243107,-0.969331,-0.036003,0.000000,0.000000,0.000000,-1,2.307283,0.312460,0.338626,-0.100811,-0.213210,-0.243370
"2019-05-06 15:52:41.316 +0000",1557157961.315710,-1.602305,1.325396,1.679019,-0.242824,-0.970040,0.007654,0.000000,0.000000,0.000000,-1,2.301957,0.173789,-0.216483,0.042797,0.032738,0.058066
"2019-05-06 15:52:41.336 +0000",1557157961.335699,-1.758932,1.332539,1.850653,-0.231845,-0.971751,0.044140,0.000000,0.000000,0.000000,-1,1.814095,0.689045,-0.829379,0.243335,0.279139,0.080020
"2019-05-06 15:52:41.356 +0000",1557157961.355687,-1.907922,1.350866,2.026796,-0.205882,-0.975913,0.072163,0.000000,0.000000,0.000000,-1,1.681399,1.357214,-1.826742,0.701746,0.467337,0.478741
"2019-05-06 15:52:41.376 +0000",1557157961.375646,-2.069217,1.383718,2.208428,-0.163361,-0.982552,0.088910,0.000000,0.000000,0.000000,-1,0.487779,0.375618,-2.381342,0.655229,0.337349,0.130206
"2019-05-06 15:52:41.396 +0000",1557157961.395634,-2.238216,1.420724,2.375197,-0.117428,-0.988760,0.092541,0.000000,0.000000,0.000000,-1,0.029433,-0.577463,-2.165571,0.312176,0.905539,-0.063778
"2019-05-06 15:52:41.416 +0000",1557157961.415623,-2.278206,1.447046,2.396179,-0.093816,-0.992353,0.080216,0.000000,0.000000,0.000000,-1,-1.079339,-1.096575,-0.362346,0.087606,0.691907,0.007888
"2019-05-06 15:52:41.436 +0000",1557157961.435581,-1.998452,1.449729,2.096681,-0.109895,-0.992680,0.050089,0.000000,0.000000,0.000000,-1,-1.841271,-0.757067,1.482084,-0.160094,1.009938,0.148367
"2019-05-06 15:52:41.456 +0000",1557157961.455569,-1.691214,1.427855,1.788418,-0.141423,-0.989801,0.017113,0.000000,0.000000,0.000000,-1,-1.442477,0.595431,1.548403,0.093373,1.048578,0.257698
"2019-05-06 15:52:41.476 +0000",1557157961.475527,-1.558276,1.396902,1.668168,-0.173006,-0.984918,-0.002166,0.000000,0.000000,0.000000,-1,-0.090480,1.064733,1.819778,0.146074,0.713602,0.285675
"2019-05-06 15:52:41.496 +0000",1557157961.495516,-1.614850,1.358665,1.742020,-0.210339,-0.977584,0.009272,0.000000,0.000000,0.000000,-1,1.248107,1.631868,2.083046,-0.344150,0.357467,1.403615
"2019-05-06 15:52:41.516 +0000",1557157961.515505,-1.618956,1.319817,1.817756,-0.248065,-0.968670,0.011956,0.000000,0.000000,0.000000,-1,0.832217,3.175299,1.528950,-0.134290,-0.753437,0.753837
"2019-05-06 15:52:41.535 +0000",1557157961.535462,-1.613348,1.309588,1.859952,-0.258014,-0.966079,0.010986,0.000000,0.000000,0.000000,-1,0.501326,2.024216,-0.476390,0.439029,-1.957520,0.803483
"2019-05-06 15:52:41.555 +0000",1557157961.555450,-1.628936,1.352161,1.895410,-0.216531,-0.976194,0.012603,0.000000,0.000000,0.000000,-1,0.239631,0.746997,-3.252829,0.316522,-1.755648,0.016343
"2019-05-06 15:52:41.575 +0000",1557157961.575410,-1.568255,1.406144,1.815643,-0.163909,-0.986475,-0.000417,0.000000,0.000000,0.000000,-1,-1.472594,-1.189313,-1.212354,0.966842,-2.517599,-0.269756
"2019-05-06 15:52:41.595 +0000",1557157961.595398,-1.489219,1.429973,1.722887,-0.139891,-0.990101,-0.011437,0.000000,0.000000,0.000000,-1,-0.202902,-0.611034,-1.244694,-0.156725,-0.740475,-0.139350
"2019-05-06 15:52:41.615 +0000",1557157961.615386,-1.389251,1.438772,1.598225,-0.129478,-0.991297,-0.023768,0.000000,0.000000,0.000000,-1,-1.301983,-1.540725,-0.253733,-0.241707,-1.126500,-0.315054
"2019-05-06 15:52:41.635 +0000",1557157961.635344,-1.151486,1.425162,1.325010,-0.132548,-0.989414,-0.059083,0.000000,0.000000,0.000000,-1,-2.324158,-1.582224,0.287874,-0.514425,-0.688564,0.045441
"2019-05-06 15:52:41.655 +0000",1557157961.655332,-0.956389,1.393230,1.096766,-0.144331,-0.984277,-0.101825,0.000000,0.000000,0.000000,-1,-2.314490,-1.436477,0.470959,-0.213579,0.510873,0.286609
"2019-05-06 15:52:41.675 +0000",1557157961.675321,-0.840382,1.362099,0.955291,-0.154332,-0.978302,-0.138230,0.000000,0.000000,0.000000,-1,-1.874810,-1.047331,0.419662,-0.169978,1.159240,0.235703
"2019-05-06 15:52:41.695 +0000",1557157961.695279,-0.802585,1.332218,0.901037,-0.169952,-0.971675,-0.164208,0.000000,0.000000,0.000000,-1,-1.166158,-0.402960,0.857143,-0.060456,1.893474,-0.019523
"2019-05-06 15:52:41.715 +0000",1557157961.715268,-0.822265,1.308259,0.919242,-0.190156,-0.965735,-0.176628,0.000000,0.000000,0.000000,-1,-0.367113,-0.033029,1.083677,0.199815,1.801153,0.444404
"2019-05-06 15:52:41.735 +0000",1557157961.735225,-0.867545,1.297253,0.978632,-0.206051,-0.962820,-0.174703,0.000000,0.000000,0.000000,-1,0.791674,1.320384,0.787051,0.237530,1.606725,0.478871
"2019-05-06 15:52:41.755 +0000",1557157961.755214,-0.907736,1.296244,1.035080,-0.213670,-0.962547,-0.166881,0.000000,0.000000,0.000000,-1,0.524561,0.551719,0.336233,0.353731,0.855827,0.389140
"2019-05-06 15:52:41.775 +0000",1557157961.775203,-0.917912,1.302976,1.053535,-0.210205,-0.964350,-0.160758,0.000000,0.000000,0.000000,-1,0.326981,-0.029739,-0.411821,0.569885,1.034296,0.121207
"2019-05-06 15:52:41.795 +0000",1557157961.795161,-0.885284,1.316333,1.026697,-0.194860,-0.967799,-0.159360,0.000000,0.000000,0.000000,-1,-0.256164,0.698136,-0.771458,0.436727,0.594935,-0.301669
"2019-05-06 15:52:41.815 +0000",1557157961.815150,-0.817487,1.302917,0.966202,-0.193070,-0.964334,-0.181061,0.000000,0.000000,0.000000,-1,-1.273361,0.283373,0.494348,-0.197021,-0.015478,-0.472534
"2019-05-06 15:52:41.835 +0000",1557157961.835108,-0.814942,1.308666,0.966676,-0.188571,-0.965840,-0.177746,0.000000,0.000000,0.000000,-1,1.230954,0.659877,-1.541422,0.965244,-0.232204,2.126446
"2019-05-06 15:52:41.855 +0000",1557157961.855096,-0.505548,1.355892,0.690411,-0.103276,-0.976997,-0.186577,0.000000,0.000000,0.000000,-1,-1.136295,0.472127,-3.505229,-0.335704,-1.560738,-0.762992
"2019-05-06 15:52:41.875 +0000",1557157961.875084,-0.512207,1.356618,0.677754,-0.104169,-0.977151,-0.185268,0.000000,0.000000,0.000000,-1,1.306896,-0.986189,1.102218,-0.823306,-0.315970,0.267970
"2019-05-06 15:52:41.895 +0000",1557157961.895043,-0.599178,1.353550,0.783986,-0.121558,-0.976495,-0.177994,0.000000,0.000000,0.000000,-1,-0.310870,1.990201,0.838186,0.067511,-0.689353,0.433823
"2019-05-06 15:52:41.915 +0000",1557157961.915031,-0.615233,1.335142,0.818812,-0.134752,-0.972362,-0.190668,0.000000,0.000000,0.000000,-1,-0.202875,-0.217423,0.892739,-0.493971,-1.129613,-0.618292
"2019-05-06 15:52:41.935 +0000",1557157961.934989,-0.719293,1.332341,0.907282,-0.155622,-0.971704,-0.177688,0.000000,0.000000,0.000000,-1,0.847177,-0.816651,0.773461,-0.006472,-1.029395,-0.376374
"2019-05-06 15:52:41.955 +0000",1557157961.954981,-0.814745,1.345657,1.008129,-0.162420,-0.974763,-0.153156,0.000000,0.000000,0.000000,-1,1.665636,0.356977,0.249281,-0.157877,-0.556090,-0.522549
"2019-05-06 15:52:41.975 +0000",1557157961.974970,-1.002584,1.368286,1.209499,-0.169524,-0.979565,-0.108233,0.000000,0.000000,0.000000,-1,2.572398,0.618919,0.558973,-0.284913,-0.220951,-0.044416
"2019-05-06 15:52:41.995 +0000",1557157961.994928,-1.237434,1.378129,1.468310,-0.180936,-0.981497,-0.062656,0.000000,0.000000,0.000000,-1,2.608512,0.915613,0.717357,-0.082324,0.079321,-0.074200
"2019-05-06 15:52:42.015 +0000",1557157962.014917,-1.531904,1.377608,1.784123,-0.191843,-0.981397,-0.007465,0.000000,0.000000,0.000000,-1,2.933642,0.647480,0.398870,0.051554,0.189710,-0.106320
"2019-05-06 15:52:42.035 +0000",1557157962.034905,-1.727328,1.376045,1.991524,-0.191156,-0.981096,0.030169,0.000000,0.000000,0.000000,-1,1.413922,0.185090,-0.343475,0.115686,-0.050719,-0.161562
"2019-05-06 15:52:42.055 +0000",1557157962.054862,-1.852236,1.384727,2.122078,-0.177719,-0.982739,0.051381,0.000000,0.000000,0.000000,-1,1.121584,0.490504,-0.952176,0.398773,0.568555,0.380229
"2019-05-06 15:52:42.075 +0000",1557157962.074851,-2.023838,1.406678,2.312674,-0.146901,-0.986563,0.071513,0.000000,0.000000,0.000000,-1,1.228292,0.600906,-1.875431,0.620732,0.637365,0.461293
"2019-05-06 15:52:42.095 +0000",1557157962.094809,-2.247059,1.420533,2.535707,-0.116753,-0.988732,0.093694,0.000000,0.000000,0.000000,-1,1.080085,-0.348592,-1.234834,0.216286,0.572563,0.092326
"2019-05-06 15:52:42.115 +0000",1557157962.114798,-2.360215,1.428073,2.645836,-0.100173,-0.989832,0.100982,0.000000,0.000000,0.000000,-1,-0.306882,-0.279935,-0.429035,0.071349,0.776438,0.008607
"2019-05-06 15:52:42.135 +0000",1557157962.134787,-2.187467,1.441063,2.467649,-0.105541,-0.991596,0.074818,0.000000,0.000000,0.000000,-1,-1.924320,-0.157745,0.634950,0.009273,0.654850,-0.028385
"2019-05-06 15:52:42.155 +0000",1557157962.154745,-1.778744,1.443104,2.050935,-0.124603,-0.991858,0.026291,0.000000,0.000000,0.000000,-1,-2.628390,-0.331502,1.114586,0.214248,0.748313,-0.020737
"2019-05-06 15:52:42.175 +0000",1557157962.174734,-1.584505,1.420133,1.833650,-0.150080,-0.988672,0.002058,0.000000,0.000000,0.000000,-1,-0.329118,-1.564352,1.522932,-0.121664,0.229639,0.654742
"2019-05-06 15:52:42.195 +0000",1557157962.194691,-1.603917,1.390288,1.874323,-0.179431,-0.983753,0.005945,0.000000,0.000000,0.000000,-1,0.683497,3.281133,1.250472,0.048510,-0.101727,1.298285
"2019-05-06 15:52:42.215 +0000",1557157962.214679,-1.596523,1.374982,1.922077,-0.194500,-0.980890,0.005005,0.000000,0.000000,0.000000,-1,0.362220,2.331069,0.316584,0.109555,-0.960974,0.426788
"2019-05-06 15:52:42.235 +0000",1557157962.234669,-1.567494,1.396876,1.942432,-0.173044,-0.984914,-0.000571,0.000000,0.000000,0.000000,-1,0.015597,2.251875,-1.837014,0.308298,-1.366527,0.300071
"2019-05-06 15:52:42.255 +0000",1557157962.254627,-1.578662,1.430095,1.973040,-0.140233,-0.990118,0.001103,0.000000,0.000000,0.000000,-1,0.495027,0.673229,-1.730553,-0.023204,-1.251322,-0.077901
"2019-05-06 15:52:42.275 +0000",1557157962.274615,-1.658774,1.459983,2.066009,-0.110160,-0.993866,0.009717,0.000000,0.000000,0.000000,-1,0.301156,0.292494,-1.342152,0.424460,-1.504120,-0.192181
"2019-05-06 15:52:42.295 +0000",1557157962.294604,-1.630226,1.479410,2.021594,-0.091097,-0.995827,0.005420,0.000000,0.000000,0.000000,-1,-0.740619,-1.532405,-0.728520,0.213167,-1.130927,-0.299854
"2019-05-06 15:52:42.315 +0000",1557157962.314562,-1.325633,1.483627,1.670511,-0.084456,-0.996203,-0.021130,0.000000,0.000000,0.000000,-1,-1.968545,-2.490608,-0.154138,0.017180,-0.622495,-0.094882
"2019-05-06 15:52:42.335 +0000",1557157962.334550,-0.980252,1.460531,1.273636,-0.091405,-0.993927,-0.061273,0.000000,0.000000,0.000000,-1,-2.366385,-2.565045,0.508768,-0.161891,-0.163574,0.068994
"2019-05-06 15:52:42.355 +0000",1557157962.354508,-0.840524,1.418837,1.086127,-0.112773,-0.988476,-0.100978,0.000000,0.000000,0.000000,-1,-2.165584,-2.097513,1.079291,-0.198308,0.679761,0.092158
"2019-05-06 15:52:42.374 +0000",1557157962.374497,-0.803877,1.370467,1.008446,-0.143284,-0.980001,-0.138084,0.000000,0.000000,0.000000,-1,-2.120342,-2.014325,1.438154,-0.128658,1.151846,0.141548
"2019-05-06 15:52:42.394 +0000",1557157962.394486,-0.816360,1.326201,0.985771,-0.176455,-0.970235,-0.165853,0.000000,0.000000,0.000000,-1,-1.456563,-1.592899,1.409462,0.023165,1.575109,0.024541
"2019-05-06 15:52:42.414 +0000",1557157962.414443,-0.844725,1.293444,0.984486,-0.204752,-0.961784,-0.181793,0.000000,0.000000,0.000000,-1,-0.952405,-1.464986,1.065062,0.081858,1.537666,0.216735
"2019-05-06 15:52:42.434 +0000",1557157962.434432,-0.879875,1.271740,1.002708,-0.227051,-0.955615,-0.187745,0.000000,0.000000,0.000000,-1,0.078642,-0.077719,0.866051,-0.132507,1.380908,0.646882
"2019-05-06 15:52:42.454 +0000",1557157962.454390,-0.913258,1.267255,1.038523,-0.236581,-0.954284,-0.182680,0.000000,0.000000,0.000000,-1,0.155760,0.021527,0.515108,0.385064,0.634475,0.432786
"2019-05-06 15:52:42.474 +0000",1557157962.474379,-0.911440,1.254305,1.037458,-0.245995,-0.950333,-0.190664,0.000000,0.000000,0.000000,-1,-0.621031,0.153551,0.418061,0.279030,0.875291,0.145086
"2019-05-06 15:52:42.494 +0000",1557157962.494367,-0.866490,1.242847,0.996864,-0.245462,-0.946705,-0.208563,0.000000,0.000000,0.000000,-1,-1.014604,0.325130,-0.150235,0.158105,0.692371,-0.149622
"2019-05-06 15:52:42.514 +0000",1557157962.514325,-0.831530,1.247602,0.958189,-0.234692,-0.948226,-0.213980,0.000000,0.000000,0.000000,-1,0.568370,-0.394187,-1.212043,0.780301,-0.004762,0.874212
"2019-05-06 15:52:42.534 +0000",1557157962.534313,-0.575212,1.318351,0.733313,-0.135879,-0.968305,-0.209578,0.000000,0.000000,0.000000,-1,-0.319420,2.271417,-5.761971,1.561401,-3.427920,-0.276628
"2019-05-06 15:52:42.554 +0000",1557157962.554302,-0.425102,1.338588,0.568177,-0.094908,-0.973161,-0.209645,0.000000,0.000000,0.000000,-1,0.903596,-0.911661,-0.723593,-1.353823,-0.399978,0.198094
"2019-05-06 15:52:42.574 +0000",1557157962.574261,-0.495981,1.341714,0.641693,-0.108068,-0.973875,-0.199721,0.000000,0.000000,0.000000,-1,-0.307244,0.744186,1.186999,-0.491526,-0.606890,0.375777
"2019-05-06 15:52:42.594 +0000",1557157962.594249,-0.541070,1.310392,0.706661,-0.132611,-0.966286,-0.220693,0.000000,0.000000,0.000000,-1,-0.680554,0.760487,1.527442,-0.649539,-0.958046,-0.384363
"2019-05-06 15:52:42.614 +0000",1557157962.614207,-0.621184,1.301892,0.798397,-0.154623,-0.964063,-0.216045,0.000000,0.000000,0.000000,-1,0.591296,0.510107,1.229772,0.096685,-1.383090,-0.431416
"2019-05-06 15:52:42.634 +0000",1557157962.634195,-0.710015,1.306633,0.907973,-0.170198,-0.965311,-0.198007,0.000000,0.000000,0.000000,-1,1.605441,1.243315,0.706504,0.036409,-0.302252,-0.184165
"2019-05-06 15:52:42.654 +0000",1557157962.654183,-0.825946,1.330655,1.047859,-0.174858,-0.971304,-0.161223,0.000000,0.000000,0.000000,-1,2.375643,0.758235,0.415814,-0.367379,-0.099588,-0.108308
"2019-05-06 15:52:42.674 +0000",1557157962.674143,-1.013309,1.351375,1.247425,-0.184708,-0.976023,-0.115157,0.000000,0.000000,0.000000,-1,2.377710,0.355658,0.603587,-0.007950,-0.006749,0.064894
"2019-05-06 15:52:42.694 +0000",1557157962.694131,-1.234256,1.365431,1.479175,-0.192486,-0.978986,-0.067341,0.000000,0.000000,0.000000,-1,2.501044,0.316542,0.274573,0.129162,0.270719,0.061588
"2019-05-06 15:52:42.714 +0000",1557157962.714088,-1.443244,1.376029,1.703092,-0.191966,-0.981093,-0.024619,0.000000,0.000000,0.000000,-1,2.106361,0.512965,-0.155008,0.015543,0.108443,-0.001000
"2019-05-06 15:52:42.734 +0000",1557157962.734077,-1.576829,1.384241,1.845639,-0.185472,-0.982649,0.001119,0.000000,0.000000,0.000000,-1,1.024074,0.242721,-0.415511,0.159501,0.260801,0.025859
"2019-05-06 15:52:42.754 +0000",1557157962.754065,-1.674087,1.396313,1.956297,-0.172674,-0.984816,0.017899,0.000000,0.000000,0.000000,-1,0.999605,0.846442,-0.878521,0.552359,0.604384,0.426070
"2019-05-06 15:52:42.774 +0000",1557157962.774025,-1.812989,1.414932,2.108764,-0.150703,-0.987878,0.037230,0.000000,0.000000,0.000000,-1,1.060966,0.171647,-1.128926,0.495933,0.600655,0.069810
"2019-05-06 15:52:42.794 +0000",1557157962.794012,-1.935581,1.425725,2.225724,-0.135051,-0.989496,0.051573,0.000000,0.000000,0.000000,-1,0.465974,-0.506593,-0.539319,0.303294,0.843194,0.073504
"2019-05-06 15:52:42.814 +0000",1557157962.814001,-1.892603,1.428417,2.163596,-0.134614,-0.989881,0.044880,0.000000,0.000000,0.000000,-1,-1.295938,-1.167905,0.447534,0.125062,0.592558,0.194592
"2019-05-06 15:52:42.834 +0000",1557157962.833959,-1.693385,1.426484,1.945678,-0.142733,-0.989605,0.017586,0.000000,0.000000,0.000000,-1,-1.370183,-0.601165,0.411611,-0.042036,0.709423,0.108177
"2019-05-06 15:52:42.854 +0000",1557157962.853947,-1.504988,1.416306,1.743129,-0.153544,-0.988090,-0.010119,0.000000,0.000000,0.000000,-1,-1.508774,-0.573262,0.648806,0.083460,0.761070,0.492159
"2019-05-06 15:52:42.874 +0000",1557157962.873906,-1.436845,1.393378,1.669981,-0.174909,-0.984303,-0.023570,0.000000,0.000000,0.000000,-1,-0.001235,0.749020,1.351672,-0.382114,0.210056,1.559001
"2019-05-06 15:52:42.894 +0000",1557157962.893894,-1.418007,1.380416,1.717304,-0.187028,-0.981932,-0.028800,0.000000,0.000000,0.000000,-1,0.391067,3.945577,0.449518,0.366762,-0.868455,0.564720
"2019-05-06 15:52:42.914 +0000",1557157962.913882,-1.315869,1.376349,1.653367,-0.186980,-0.981155,-0.048726,0.000000,0.000000,0.000000,-1,-1.163813,0.440823,-0.490501,1.090392,-1.466905,-0.406687
"2019-05-06 15:52:42.934 +0000",1557157962.933840,-1.214370,1.388438,1.517195,-0.169951,-0.983419,-0.063278,0.000000,0.000000,0.000000,-1,-0.813833,-2.159779,-0.825839,0.718718,-1.492213,-0.091798
"2019-05-06 15:52:42.954 +0000",1557157962.953804,-1.218194,1.398021,1.493504,-0.161340,-0.985111,-0.059370,0.000000,0.000000,0.000000,-1,0.179934,-1.046719,-0.549843,0.145181,-0.758083,0.106901
"2019-05-06 15:52:42.974 +0000",1557157962.973763,-1.194200,1.398118,1.437836,-0.159780,-0.985128,-0.063189,0.000000,0.000000,0.000000,-1,-0.955622,-1.869601,-0.100128,-0.127543,-0.910334,-0.224150
"2019-05-06 15:52:42.994 +0000",1557157962.993752,-1.038120,1.381723,1.226452,-0.161909,-0.982179,-0.095448,0.000000,0.000000,0.000000,-1,-2.580732,-2.660680,-0.049305,-0.413500,-1.262023,-0.285289
"2019-05-06 15:52:43.014 +0000",1557157963.013740,-0.885462,1.350336,1.026342,-0.169303,-0.975797,-0.138409,0.000000,0.000000,0.000000,-1,-2.469523,-1.880476,0.290979,-0.510080,-0.728350,-0.023182
"2019-05-06 15:52:43.034 +0000",1557157963.033697,-0.817363,1.314382,0.926153,-0.184972,-0.967306,-0.173509,0.000000,0.000000,0.000000,-1,-1.837509,-1.376336,0.760426,-0.364009,0.060369,0.310441
"2019-05-06 15:52:43.054 +0000",1557157963.053686,-0.813560,1.282867,0.899358,-0.206370,-0.958834,-0.195062,0.000000,0.000000,0.000000,-1,-1.178939,-0.899214,0.865253,-0.012579,0.779619,0.214577
"2019-05-06 15:52:43.074 +0000",1557157963.073645,-0.809467,1.260360,0.885054,-0.221139,-0.952200,-0.210742,0.000000,0.000000,0.000000,-1,-0.712516,-0.253888,0.559497,0.046700,1.234854,0.227298
"2019-05-06 15:52:43.094 +0000",1557157963.093633,-0.801410,1.249439,0.877119,-0.226891,-0.948807,-0.219739,0.000000,0.000000,0.000000,-1,-0.409569,0.135167,0.152493,0.295876,1.460175,0.033078
"2019-05-06 15:52:43.114 +0000",1557157963.113622,-0.776567,1.243193,0.857559,-0.225511,-0.946816,-0.229529,0.000000,0.000000,0.000000,-1,-0.454968,0.420874,-0.016890,0.156587,1.262643,0.366279
"2019-05-06 15:52:43.134 +0000",1557157963.133579,-0.768317,1.240634,0.859214,-0.225293,-0.945990,-0.233124,0.000000,0.000000,0.000000,-1,0.239316,0.474433,0.202210,0.089566,1.240896,0.664932
"2019-05-06 15:52:43.154 +0000",1557157963.153568,-0.790047,1.243364,0.889122,-0.228470,-0.946871,-0.226355,0.000000,0.000000,0.000000,-1,0.393844,0.392272,0.192978,0.304764,1.008852,0.367713
"2019-05-06 15:52:43.174 +0000",1557157963.173556,-0.769440,1.244619,0.883876,-0.222930,-0.947274,-0.230161,0.000000,0.000000,0.000000,-1,-0.294394,1.030600,-0.275312,0.311874,0.515145,-0.098757
"2019-05-06 15:52:43.194 +0000",1557157963.193515,-0.727165,1.242748,0.855783,-0.214181,-0.946673,-0.240700,0.000000,0.000000,0.000000,-1,-0.202819,0.491521,-0.255156,0.290444,0.137286,-0.001731
"2019-05-06 15:52:43.214 +0000",1557157963.213503,-0.671120,1.268112,0.798256,-0.185367,-0.954540,-0.233437,0.000000,0.000000,0.000000,-1,0.683067,0.508450,-2.927706,0.855442,-0.704350,0.691185
"2019-05-06 15:52:43.233 +0000",1557157963.233461,-0.508323,1.277720,0.614160,-0.140611,-0.957360,-0.252371,0.000000,0.000000,0.000000,-1,-1.580128,-2.447274,-0.975037,-0.266372,-1.932014,-1.160959
"2019-05-06 15:52:43.253 +0000",1557157963.253450,-0.538225,1.276731,0.626045,-0.148578,-0.957074,-0.248867,0.000000,0.000000,0.000000,-1,0.791113,0.752481,0.215948,-0.489819,0.333828,1.507549
"2019-05-06 15:52:43.273 +0000",1557157963.273438,-0.508852,1.284245,0.634827,-0.137698,-0.959224,-0.246836,0.000000,0.000000,0.000000,-1,0.209152,1.962951,-0.177522,-0.065656,-0.235463,-0.100866
"2019-05-06 15:52:43.293 +0000",1557157963.293397,-0.508981,1.295958,0.656808,-0.132246,-0.962469,-0.236990,0.000000,0.000000,0.000000,-1,0.967341,0.540042,0.105957,-0.407626,-1.183466,-0.264032
"2019-05-06 15:52:43.313 +0000",1557157963.313385,-0.521807,1.310000,0.670926,-0.128525,-0.966185,-0.223536,0.000000,0.000000,0.000000,-1,0.507420,-0.112836,-0.459324,0.199341,-1.107256,-0.729818
"2019-05-06 15:52:43.333 +0000",1557157963.333342,-0.523679,1.331280,0.675843,-0.118633,-0.971453,-0.205440,0.000000,0.000000,0.000000,-1,1.477173,0.232824,-0.356795,-0.031941,-0.665190,-0.497700
"2019-05-06 15:52:43.353 +0000",1557157963.353331,-0.621315,1.364895,0.780264,-0.119011,-0.978877,-0.166240,0.000000,0.000000,0.000000,-1,2.279550,0.354980,0.351478,-0.592629,0.030330,-0.392933
"2019-05-06 15:52:43.373 +0000",1557157963.373319,-0.863994,1.392327,1.038631,-0.134996,-0.984117,-0.115285,0.000000,0.000000,0.000000,-1,2.919813,0.802060,1.194895,-0.665922,0.197557,-0.042125
"2019-05-06 15:52:43.393 +0000",1557157963.393279,-1.208520,1.410048,1.417073,-0.149668,-0.987108,-0.056725,0.000000,0.000000,0.000000,-1,3.312676,1.778158,0.420256,-0.107656,0.346879,0.285301
"2019-05-06 15:52:43.413 +0000",1557157963.413267,-1.518830,1.425938,1.757984,-0.144158,-0.989526,-0.007498,0.000000,0.000000,0.000000,-1,2.203454,0.825124,-0.373660,0.127220,-0.301856,-0.083032
"2019-05-06 15:52:43.433 +0000",1557157963.433255,-1.740606,1.431688,1.986518,-0.136666,-0.990340,0.023433,0.000000,0.000000,0.000000,-1,1.364167,0.051394,-0.580023,0.076668,-0.092912,-0.152156
"2019-05-06 15:52:43.453 +0000",1557157963.453213,-1.890304,1.447161,2.140325,-0.117080,-0.992367,0.038735,0.000000,0.000000,0.000000,-1,0.486600,0.342201,-1.165071,0.285308,0.289562,-0.085793
"2019-05-06 15:52:43.473 +0000",1557157963.473202,-2.013496,1.469557,2.281759,-0.091324,-0.994880,0.043295,0.000000,0.000000,0.000000,-1,0.427609,1.036412,-1.422037,0.178680,0.780402,0.255762
"2019-05-06 15:52:43.493 +0000",1557157963.493160,-2.220397,1.481413,2.506201,-0.071083,-0.996008,0.053993,0.000000,0.000000,0.000000,-1,0.578380,0.656765,-0.771770,0.159553,0.923056,0.214302
"2019-05-06 15:52:43.513 +0000",1557157963.513148,-2.281436,1.483658,2.576735,-0.065962,-0.996206,0.056770,0.000000,0.000000,0.000000,-1,-0.194744,0.392549,-0.005074,0.138075,0.953130,0.146554
"2019-05-06 15:52:43.533 +0000",1557157963.533137,-2.085335,1.489604,2.384963,-0.070601,-0.996706,0.039913,0.000000,0.000000,0.000000,-1,-1.130202,0.173428,0.302596,0.128676,0.754289,0.040028
"2019-05-06 15:52:43.553 +0000",1557157963.553096,-1.758670,1.490035,2.058377,-0.079254,-0.996741,0.015067,0.000000,0.000000,0.000000,-1,-1.167561,-0.073152,0.554918,0.064086,0.780188,0.124612
"2019-05-06 15:52:43.573 +0000",1557157963.573086,-1.694131,1.469947,1.995880,-0.099914,-0.994919,0.012386,0.000000,0.000000,0.000000,-1,0.622661,0.996459,1.284590,-0.326798,0.284302,0.901127
"2019-05-06 15:52:43.593 +0000",1557157963.593041,-1.727247,1.447752,2.096692,-0.121235,-0.992440,0.019124,0.000000,0.000000,0.000000,-1,0.633159,4.040195,0.761440,0.145359,-0.581382,1.825054
"2019-05-06 15:52:43.613 +0000",1557157963.613030,-1.696540,1.448761,2.119424,-0.120771,-0.992563,0.015267,0.000000,0.000000,0.000000,-1,-0.537040,2.024933,-0.755593,-0.012484,-1.454931,0.219124
"2019-05-06 15:52:43.633 +0000",1557157963.633019,-1.484235,1.475109,1.921370,-0.095184,-0.995425,-0.008260,0.000000,0.000000,0.000000,-1,-1.224663,0.409485,-1.240462,0.578048,-1.767621,0.269979
"2019-05-06 15:52:43.653 +0000",1557157963.652977,-1.318743,1.490180,1.762835,-0.077984,-0.996752,-0.020083,0.000000,0.000000,0.000000,-1,-0.113360,0.118664,-0.773652,0.319164,-1.165235,0.421664
"2019-05-06 15:52:43.673 +0000",1557157963.672966,-1.245518,1.497939,1.681813,-0.068977,-0.997347,-0.023263,0.000000,0.000000,0.000000,-1,-0.383455,-0.618481,-0.256277,0.405098,-0.764036,0.117807
"2019-05-06 15:52:43.693 +0000",1557157963.692954,-1.006970,1.492698,1.413019,-0.065943,-0.996952,-0.041695,0.000000,0.000000,0.000000,-1,-1.675449,-2.140507,-0.186114,0.290232,-0.782986,-0.224143
"2019-05-06 15:52:43.713 +0000",1557157963.712912,-0.707989,1.469259,1.070790,-0.065917,-0.994850,-0.077003,0.000000,0.000000,0.000000,-1,-1.826787,-1.966115,-0.132694,0.013976,-0.490349,-0.243356
"2019-05-06 15:52:43.733 +0000",1557157963.732901,-0.583943,1.443484,0.915326,-0.070000,-0.991907,-0.105929,0.000000,0.000000,0.000000,-1,-1.420345,-1.253684,0.227919,-0.271034,0.010141,0.115542
"2019-05-06 15:52:43.753 +0000",1557157963.752859,-0.559193,1.418350,0.877242,-0.080560,-0.988403,-0.128726,0.000000,0.000000,0.000000,-1,-1.127115,-0.300800,0.584902,-0.292655,0.505538,0.279849
"2019-05-06 15:52:43.773 +0000",1557157963.772847,-0.549304,1.390275,0.872934,-0.093738,-0.983750,-0.153129,0.000000,0.000000,0.000000,-1,-1.350604,0.595586,0.801486,-0.199612,1.060746,0.046180
"2019-05-06 15:52:43.793 +0000",1557157963.792835,-0.532403,1.360729,0.878293,-0.105849,-0.978017,-0.179664,0.000000,0.000000,0.000000,-1,-1.081394,1.368673,0.769377,-0.244493,1.526540,0.210196
"2019-05-06 15:52:43.813 +0000",1557157963.812794,-0.520010,1.340182,0.896071,-0.113577,-0.973526,-0.198361,0.000000,0.000000,0.000000,-1,-0.629624,1.599414,0.726945,-0.102457,1.417389,0.195355
"2019-05-06 15:52:43.833 +0000",1557157963.832782,-0.535088,1.326126,0.944393,-0.123520,-0.970217,-0.208377,0.000000,0.000000,0.000000,-1,-0.099101,1.674924,0.884566,0.041306,1.251681,0.444523
"2019-05-06 15:52:43.853 +0000",1557157963.852740,-0.544951,1.324439,0.993148,-0.126418,-0.969807,-0.208549,0.000000,0.000000,0.000000,-1,0.349395,1.813596,0.318186,0.240477,1.353825,0.385398
"2019-05-06 15:52:43.873 +0000",1557157963.872729,-0.508645,1.324772,0.997223,-0.118607,-0.969888,-0.212717,0.000000,0.000000,0.000000,-1,-0.383917,2.130055,-0.149804,0.388886,0.828409,0.111246
"2019-05-06 15:52:43.893 +0000",1557157963.892718,-0.418295,1.303811,0.936189,-0.107167,-0.964571,-0.241079,0.000000,0.000000,0.000000,-1,-1.686097,1.157176,-0.247532,0.321171,0.254335,-0.154246
"2019-05-06 15:52:43.913 +0000",1557157963.912676,-0.327477,1.284697,0.846809,-0.090775,-0.959352,-0.267214,0.000000,0.000000,0.000000,-1,-0.832582,-0.302757,-1.608808,0.457001,-0.128477,0.429125
"2019-05-06 15:52:43.933 +0000",1557157963.932664,-0.027782,1.281687,0.564265,-0.007920,-0.958498,-0.284989,0.000000,0.000000,0.000000,-1,-1.836579,1.592883,-3.963724,0.996674,-3.341352,2.803315
"2019-05-06 15:52:43.953 +0000",1557157963.952648,0.004220,1.239517,0.509665,0.001373,-0.945627,-0.325251,0.000000,0.000000,0.000000,-1,-1.670892,-1.952420,0.480115,-2.230941,-0.273108,-0.303534
"2019-05-06 15:52:43.973 +0000",1557157963.972606,0.010826,1.222523,0.530688,0.003694,-0.939963,-0.341255,0.000000,0.000000,0.000000,-1,-0.183933,2.801987,0.120018,0.212812,0.156776,0.430305
"2019-05-06 15:52:43.993 +0000",1557157963.992594,0.026221,1.225888,0.557828,0.008864,-0.941107,-0.337994,0.000000,0.000000,0.000000,-1,0.094308,1.386158,0.727370,-0.489898,-1.300913,-0.142841
"2019-05-06 15:52:44.013 +0000",1557157964.012552,-0.004492,1.223093,0.601763,-0.001531,-0.940158,-0.340736,0.000000,0.000000,0.000000,-1,-0.301847,0.552991,0.722294,-0.174937,-1.229337,0.098579
"2019-05-06 15:52:44.033 +0000",1557157964.032541,-0.024204,1.221431,0.646714,-0.008284,-0.939590,-0.342201,0.000000,0.000000,0.000000,-1,0.118088,1.337966,0.793348,-0.396745,-0.927979,0.171868
"2019-05-06 15:52:44.053 +0000",1557157964.052529,-0.036169,1.228582,0.691263,-0.012135,-0.942014,-0.335354,0.000000,0.000000,0.000000,-1,0.573488,1.624066,0.727756,-0.530025,-0.813174,-0.025470
"2019-05-06 15:52:44.072 +0000",1557157964.072487,-0.021861,1.247312,0.726303,-0.006948,-0.948134,-0.317796,0.000000,0.000000,0.000000,-1,1.165018,2.854584,0.424481,-0.358347,-0.429399,0.221162
"2019-05-06 15:52:44.092 +0000",1557157964.092476,0.008093,1.276384,0.759474,0.002348,-0.956973,-0.290168,0.000000,0.000000,0.000000,-1,1.414363,3.193665,0.271794,-0.228728,0.009493,0.116203
"2019-05-06 15:52:44.112 +0000",1557157964.112433,0.063369,1.302820,0.762934,0.016768,-0.964309,-0.264250,0.000000,0.000000,0.000000,-1,1.268236,2.825689,-0.034622,-0.148268,0.249846,0.068189
"2019-05-06 15:52:44.132 +0000",1557157964.132421,0.134378,1.323840,0.742050,0.032750,-0.969661,-0.242250,0.000000,0.000000,0.000000,-1,0.957350,2.389477,-0.207871,-0.174962,0.290874,0.145021
"2019-05-06 15:52:44.152 +0000",1557157964.152410,0.209979,1.341552,0.707591,0.047366,-0.973838,-0.222250,0.000000,0.000000,0.000000,-1,1.031712,2.059348,-0.320025,-0.092502,0.383720,0.392630
"2019-05-06 15:52:44.172 +0000",1557157964.172369,0.309920,1.353737,0.645989,0.065681,-0.976535,-0.205099,0.000000,0.000000,0.000000,-1,0.631450,1.983055,-0.603868,0.113351,0.586200,0.259740
"2019-05-06 15:52:44.192 +0000",1557157964.192357,0.410938,1.354827,0.580227,0.085604,-0.976769,-0.196454,0.000000,0.000000,0.000000,-1,0.089771,1.729659,-0.666480,0.165281,0.823937,0.305325
"2019-05-06 15:52:44.212 +0000",1557157964.212315,0.486275,1.344817,0.536098,0.104712,-0.974575,-0.198088,0.000000,0.000000,0.000000,-1,-0.443094,1.536246,-0.610408,0.108667,0.885738,0.326323
"2019-05-06 15:52:44.232 +0000",1557157964.232303,0.510145,1.327681,0.537681,0.117548,-0.970593,-0.210077,0.000000,0.000000,0.000000,-1,-0.960031,1.142728,-0.270597,-0.011500,0.710079,0.248422
"2019-05-06 15:52:44.252 +0000",1557157964.252292,0.490592,1.307678,0.575773,0.122542,-0.965584,-0.229416,0.000000,0.000000,0.000000,-1,-1.117598,0.722691,0.096460,-0.135527,0.760536,0.276215
"2019-05-06 15:52:44.272 +0000",1557157964.272250,0.451263,1.296389,0.632235,0.118173,-0.962586,-0.243851,0.000000,0.000000,0.000000,-1,-0.581913,0.788925,0.636803,-0.203760,0.660599,0.532303
"2019-05-06 15:52:44.292 +0000",1557157964.292238,0.406978,1.307483,0.698695,0.103029,-0.965533,-0.239022,0.000000,0.000000,0.000000,-1,0.511323,1.393178,1.265779,-0.425508,0.233187,1.069756
"2019-05-06 15:52:44.312 +0000",1557157964.312227,0.384463,1.331719,0.779446,0.088817,-0.971557,-0.219519,0.000000,0.000000,0.000000,-1,0.851484,3.701868,1.400546,-0.695567,-0.912644,0.894599
"2019-05-06 15:52:44.332 +0000",1557157964.332185,0.402068,1.343129,0.825810,0.088324,-0.974195,-0.207707,0.000000,0.000000,0.000000,-1,-0.290760,2.099100,0.052029,0.209940,-1.431276,-0.082927
"2019-05-06 15:52:44.352 +0000",1557157964.352173,0.493483,1.328036,0.752196,0.113869,-0.970678,-0.211702,0.000000,0.000000,0.000000,-1,-0.120808,0.644401,-1.384071,0.009438,-1.146662,0.237047
"2019-05-06 15:52:44.372 +0000",1557157964.372132,0.581755,1.321709,0.684396,0.135460,-0.969138,-0.205967,0.000000,0.000000,0.000000,-1,0.244515,1.486361,-0.532595,-0.066536,-1.142526,0.426533
"2019-05-06 15:52:44.392 +0000",1557157964.392121,0.637603,1.323997,0.661862,0.145426,-0.969699,-0.196302,0.000000,0.000000,0.000000,-1,0.230606,1.647333,0.035323,-0.267191,-1.062420,0.335737
"2019-05-06 15:52:44.412 +0000",1557157964.412109,0.669227,1.330181,0.660701,0.147837,-0.971191,-0.186899,0.000000,0.000000,0.000000,-1,0.305818,1.497811,0.154360,-0.390421,-0.944580,0.290613
"2019-05-06 15:52:44.432 +0000",1557157964.432066,0.719662,1.335394,0.640066,0.153732,-0.972421,-0.175399,0.000000,0.000000,0.000000,-1,0.352408,1.578758,-0.131793,-0.379058,-0.698661,0.079741
"2019-05-06 15:52:44.452 +0000",1557157964.452056,0.784298,1.336628,0.613094,0.163893,-0.972708,-0.164253,0.000000,0.000000,0.000000,-1,0.229428,2.151121,-0.207379,-0.301603,-0.218165,0.262413
"2019-05-06 15:52:44.472 +0000",1557157964.472014,0.861686,1.337358,0.580472,0.175561,-0.972877,-0.150628,0.000000,0.000000,0.000000,-1,0.348098,2.417642,-0.226777,-0.307214,0.343635,0.250497
"2019-05-06 15:52:44.492 +0000",1557157964.492002,0.951194,1.337369,0.548404,0.188314,-0.972879,-0.134326,0.000000,0.000000,0.000000,-1,0.221436,3.210875,-0.267162,-0.246160,0.841974,0.209430
"2019-05-06 15:52:44.512 +0000",1557157964.511991,1.017140,1.332860,0.547645,0.200486,-0.971826,-0.123930,0.000000,0.000000,0.000000,-1,-0.325708,3.260083,-0.052162,-0.308351,0.968408,-0.042360
"2019-05-06 15:52:44.532 +0000",1557157964.531949,1.045083,1.333304,0.587409,0.203497,-0.971931,-0.118063,0.000000,0.000000,0.000000,-1,-0.410507,3.405670,0.436431,-0.354452,1.068840,0.180457
"2019-05-06 15:52:44.552 +0000",1557157964.551937,1.059217,1.341003,0.642641,0.198614,-0.973714,-0.111509,0.000000,0.000000,0.000000,-1,-0.372933,3.365777,0.760525,-0.281271,1.059697,0.206602
"2019-05-06 15:52:44.572 +0000",1557157964.571926,1.093617,1.353574,0.684974,0.191443,-0.976500,-0.098982,0.000000,0.000000,0.000000,-1,0.307871,4.572431,0.735838,-0.126746,0.872053,0.307356
"2019-05-06 15:52:44.592 +0000",1557157964.591884,1.107599,1.360093,0.743232,0.187110,-0.977884,-0.093450,0.000000,0.000000,0.000000,-1,-0.641918,3.320959,0.493488,-0.222724,0.746744,-0.176143
"2019-05-06 15:52:44.612 +0000",1557157964.611873,1.094755,1.358054,0.819593,0.187666,-0.977455,-0.096758,0.000000,0.000000,0.000000,-1,-0.732983,3.064517,0.167647,-0.122877,0.799065,0.050860
"2019-05-06 15:52:44.632 +0000",1557157964.631830,1.129369,1.357735,0.845036,0.191184,-0.977388,-0.090339,0.000000,0.000000,0.000000,-1,0.066891,2.868703,0.036337,-0.268424,0.684999,0.250740
"2019-05-06 15:52:44.652 +0000",1557157964.651819,1.246941,1.353229,0.782854,0.204634,-0.976425,-0.068690,0.000000,0.000000,0.000000,-1,0.851173,2.920039,-0.884889,0.106370,0.248444,0.662746
"2019-05-06 15:52:44.672 +0000",1557157964.671808,1.414308,1.330277,0.692301,0.235296,-0.971214,-0.037125,0.000000,0.000000,0.000000,-1,0.330894,4.350397,-1.516833,-0.102682,-0.153007,0.920883
"2019-05-06 15:52:44.692 +0000",1557157964.691766,1.496319,1.304829,0.687554,0.262114,-0.964839,-0.019558,0.000000,0.000000,0.000000,-1,-0.359045,3.437515,-0.920343,-0.761824,-0.697637,0.150463
"2019-05-06 15:52:44.712 +0000",1557157964.711755,1.509123,1.303839,0.733070,0.263296,-0.964578,-0.016259,0.000000,0.000000,0.000000,-1,-0.859709,2.753061,0.477835,-1.269049,-1.258307,0.089944
"2019-05-06 15:52:44.732 +0000",1557157964.731712,1.527919,1.312567,0.769264,0.255134,-0.966844,-0.010946,0.000000,0.000000,0.000000,-1,0.104864,2.857073,0.450129,-0.850502,-1.552810,0.384329
"2019-05-06 15:52:44.752 +0000",1557157964.751701,1.588299,1.319875,0.755587,0.248258,-0.968684,0.004346,0.000000,0.000000,0.000000,-1,0.328099,2.163647,0.234557,-0.530836,-1.237981,0.061694
"2019-05-06 15:52:44.772 +0000",1557157964.771689,1.700541,1.315817,0.690938,0.250105,-0.967669,0.032633,0.000000,0.000000,0.000000,-1,0.928443,2.614399,-0.340167,-0.416990,-0.953321,-0.137797
"2019-05-06 15:52:44.792 +0000",1557157964.791647,1.827373,1.300573,0.610680,0.258208,-0.963711,0.067743,0.000000,0.000000,0.000000,-1,1.407920,2.471346,-0.673249,-0.651595,-0.909717,0.037939
"2019-05-06 15:52:44.812 +0000",1557157964.811636,1.957061,1.276052,0.524547,0.269092,-0.956877,0.109439,0.000000,0.000000,0.000000,-1,1.561162,2.313311,-0.815067,-0.693958,-0.969454,-0.049533
"2019-05-06 15:52:44.832 +0000",1557157964.831625,2.068092,1.254371,0.453096,0.273481,-0.950354,0.148445,0.000000,0.000000,0.000000,-1,1.294390,1.974414,-0.248778,-0.800138,-0.805338,-0.083610
"2019-05-06 15:52:44.852 +0000",1557157964.851582,2.163832,1.246285,0.387153,0.264402,-0.947807,0.178197,0.000000,0.000000,0.000000,-1,1.065424,1.596915,0.370815,-0.653089,-0.380166,0.065593
"2019-05-06 15:52:44.872 +0000",1557157964.871570,2.249879,1.243611,0.329279,0.250081,-0.946951,0.201852,0.000000,0.000000,0.000000,-1,0.685598,1.514668,0.433539,-0.473897,-0.058939,-0.001366
"2019-05-06 15:52:44.892 +0000",1557157964.891529,2.311630,1.239722,0.293144,0.239863,-0.945694,0.219383,0.000000,0.000000,0.000000,-1,0.556694,1.332861,0.074831,-0.413569,0.130157,-0.101952
"2019-05-06 15:52:44.912 +0000",1557157964.911517,2.346921,1.231141,0.281624,0.237756,-0.942870,0.233386,0.000000,0.000000,0.000000,-1,0.335729,1.221700,-0.343688,-0.398339,0.368391,-0.098514
"2019-05-06 15:52:44.932 +0000",1557157964.931506,2.358640,1.220330,0.297129,0.242181,-0.939213,0.243368,0.000000,0.000000,0.000000,-1,0.150327,1.438264,-0.648449,-0.457452,0.683170,-0.116827
"2019-05-06 15:52:44.951 +0000",1557157964.951438,2.372624,1.211136,0.317721,0.244748,-0.936017,0.252926,0.000000,0.000000,0.000000,-1,-0.037282,1.796187,-0.512202,-0.463941,0.898587,-0.050335
"2019-05-06 15:52:44.971 +0000",1557157964.971426,2.385370,1.209778,0.346910,0.242377,-0.935538,0.256949,0.000000,0.000000,0.000000,-1,-0.433078,2.136580,-0.380282,-0.254721,0.974356,-0.183600
"2019-05-06 15:52:44.991 +0000",1557157964.991386,2.398292,1.214905,0.382366,0.235787,-0.937336,0.256525,0.000000,0.000000,0.000000,-1,-0.753700,2.354519,-0.234737,-0.140893,0.960743,-0.361688
"2019-05-06 15:52:45.011 +0000",1557157965.011374,2.411455,1.225944,0.418569,0.225475,-0.941125,0.251881,0.000000,0.000000,0.000000,-1,-0.834523,2.388709,-0.008950,-0.112514,0.964426,-0.267597
"2019-05-06 15:52:45.031 +0000",1557157965.031362,2.437393,1.236793,0.437805,0.212243,-0.944738,0.249847,0.000000,0.000000,0.000000,-1,-0.434166,2.053079,0.195009,-0.072610,0.955190,-0.262695
"2019-05-06 15:52:45.051 +0000",1557157965.051321,2.489125,1.240987,0.414655,0.196633,-0.946104,0.257337,0.000000,0.000000,0.000000,-1,0.423701,1.176776,0.563808,-0.243508,0.781477,-0.001111
"2019-05-06 15:52:45.071 +0000",1557157965.071310,2.573589,1.233629,0.357686,0.177962,-0.943696,0.278870,0.000000,0.000000,0.000000,-1,0.887651,2.173939,0.460230,-0.319976,0.355271,0.552185
"2019-05-06 15:52:45.091 +0000",1557157965.091298,2.662275,1.231720,0.337265,0.153394,-0.943062,0.295134,0.000000,0.000000,0.000000,-1,-0.195926,3.882491,0.165887,-0.282483,-0.411567,0.166978
"2019-05-06 15:52:45.111 +0000",1557157965.111256,2.698158,1.247022,0.358264,0.136499,-0.948041,0.287377,0.000000,0.000000,0.000000,-1,-1.083501,2.054608,-0.011863,-0.124460,-1.024188,-0.302422
"2019-05-06 15:52:45.131 +0000",1557157965.131244,2.678438,1.262803,0.405124,0.135438,-0.952944,0.271210,0.000000,0.000000,0.000000,-1,-1.047788,0.757471,-0.548030,-0.055039,-0.988508,-0.072739
"2019-05-06 15:52:45.151 +0000",1557157965.151204,2.628976,1.278025,0.477677,0.141550,-0.957448,0.251510,0.000000,0.000000,0.000000,-1,-1.254040,1.458328,-0.562621,-0.017572,-1.178966,0.223740
"2019-05-06 15:52:45.171 +0000",1557157965.171193,2.603602,1.290248,0.538408,0.141878,-0.960904,0.237770,0.000000,0.000000,0.000000,-1,-0.745695,1.655956,-0.375716,-0.185732,-1.355045,0.185692
"2019-05-06 15:52:45.191 +0000",1557157965.191180,2.577734,1.298000,0.593248,0.143995,-0.963021,0.227718,0.000000,0.000000,0.000000,-1,-0.768323,1.144256,-0.466873,-0.259717,-1.904288,-0.437359
"2019-05-06 15:52:45.211 +0000",1557157965.211138,2.521237,1.307885,0.664426,0.151082,-0.965637,0.211468,0.000000,0.000000,0.000000,-1,-1.123106,0.110452,-0.535645,-0.013280,-1.440826,-0.569073
"2019-05-06 15:52:45.231 +0000",1557157965.231126,2.408303,1.320407,0.767885,0.165844,-0.968816,0.184096,0.000000,0.000000,0.000000,-1,-1.347027,-0.998611,-0.711818,0.187717,-0.935710,-0.441145
"2019-05-06 15:52:45.251 +0000",1557157965.251086,2.262537,1.324349,0.893450,0.187883,-0.969785,0.155617,0.000000,0.000000,0.000000,-1,-1.209259,-1.231003,-1.073713,-0.014940,-0.403780,-0.299660
"2019-05-06 15:52:45.271 +0000",1557157965.271073,2.126802,1.317892,1.013036,0.212527,-0.968190,0.132064,0.000000,0.000000,0.000000,-1,-0.870105,-0.840650,-1.103118,-0.317157,-0.139827,-0.118652
"2019-05-06 15:52:45.291 +0000",1557157965.291061,2.057930,1.310119,1.076479,0.227755,-0.966216,0.120645,0.000000,0.000000,0.000000,-1,-0.318352,-0.033180,-0.469439,-0.494967,0.177733,0.082099
"2019-05-06 15:52:45.311 +0000",1557157965.311018,2.046570,1.309182,1.092209,0.229916,-0.965974,0.118464,0.000000,0.000000,0.000000,-1,-0.077413,0.182733,0.032861,-0.518764,0.705231,-0.138117
"2019-05-06 15:52:45.331 +0000",1557157965.331008,2.051534,1.314653,1.085134,0.224635,-0.967374,0.117158,0.000000,0.000000,0.000000,-1,-0.108103,-0.221807,0.426224,-0.475673,1.104047,-0.170564
"2019-05-06 15:52:45.351 +0000",1557157965.350996,2.043882,1.334652,1.083606,0.208260,-0.972247,0.106598,0.000000,0.000000,0.000000,-1,-0.613765,-0.602988,1.070002,-0.485207,1.153567,-0.275773
"2019-05-06 15:52:45.371 +0000",1557157965.370955,2.009240,1.358079,1.108512,0.191148,-0.977461,0.089625,0.000000,0.000000,0.000000,-1,-0.872351,-0.438523,0.809392,-0.245378,1.157179,-0.237636
"2019-05-06 15:52:45.391 +0000",1557157965.390943,1.942828,1.377017,1.169247,0.179395,-0.981283,0.070000,0.000000,0.000000,0.000000,-1,-0.983267,-0.411585,0.565893,-0.263212,0.799963,-0.290124
"2019-05-06 15:52:45.411 +0000",1557157965.410901,1.842901,1.394914,1.258322,0.168539,-0.984572,0.047027,0.000000,0.000000,0.000000,-1,-1.130952,-0.627247,0.631244,-0.301077,0.778533,-0.201705
"2019-05-06 15:52:45.431 +0000",1557157965.430890,1.718797,1.415533,1.378936,0.152950,-0.987971,0.022803,0.000000,0.000000,0.000000,-1,-1.209540,-0.104693,0.950102,-0.275936,0.877009,-0.112022
"2019-05-06 15:52:45.451 +0000",1557157965.450878,1.604620,1.435099,1.494738,0.135204,-0.990807,0.004575,0.000000,0.000000,0.000000,-1,-0.634781,0.038449,0.718076,-0.004436,0.854577,0.484088
"2019-05-06 15:52:45.471 +0000",1557157965.470837,1.588872,1.433316,1.520471,0.137025,-0.990564,0.002477,0.000000,0.000000,0.000000,-1,-0.101334,0.940597,-0.666058,0.353926,0.101374,0.261592
"2019-05-06 15:52:45.491 +0000",1557157965.490825,1.611702,1.407086,1.524684,0.162843,-0.986629,0.006665,0.000000,0.000000,0.000000,-1,0.294496,1.376769,-1.419923,-0.115037,-0.451756,-0.076291
"2019-05-06 15:52:45.511 +0000",1557157965.510782,1.735434,1.385003,1.410947,0.182228,-0.982790,0.030276,0.000000,0.000000,0.000000,-1,1.474700,0.490006,-0.807550,-0.386940,-0.789335,0.233030
"2019-05-06 15:52:45.531 +0000",1557157965.530771,1.874341,1.365990,1.293328,0.194079,-0.979100,0.060790,0.000000,0.000000,0.000000,-1,1.135491,1.584235,-0.571367,-0.375308,-1.128626,0.220582
"2019-05-06 15:52:45.551 +0000",1557157965.550760,1.952601,1.357349,1.247052,0.196577,-0.977307,0.078927,0.000000,0.000000,0.000000,-1,0.260440,1.465931,-0.044333,-0.523634,-1.277988,-0.245477
"2019-05-06 15:52:45.571 +0000",1557157965.570718,1.978558,1.365151,1.235892,0.187458,-0.978929,0.080976,0.000000,0.000000,0.000000,-1,-0.078698,0.326026,0.736153,-0.535999,-1.267927,-0.518095
"2019-05-06 15:52:45.591 +0000",1557157965.590707,2.014938,1.388570,1.195310,0.163638,-0.983443,0.077867,0.000000,0.000000,0.000000,-1,-0.128141,-0.274576,1.474937,-0.527529,-1.046739,-0.713655
"2019-05-06 15:52:45.611 +0000",1557157965.610664,2.145619,1.413473,1.064007,0.131495,-0.987650,0.085182,0.000000,0.000000,0.000000,-1,0.661446,0.417309,1.711560,-0.401973,-0.526174,-0.460365
"2019-05-06 15:52:45.631 +0000",1557157965.630652,2.406595,1.425123,0.814051,0.097341,-0.989408,0.107684,0.000000,0.000000,0.000000,-1,1.418996,1.029370,1.545692,0.004755,-0.045977,0.203107
"2019-05-06 15:52:45.651 +0000",1557157965.650640,2.660867,1.409268,0.585404,0.074370,-0.986983,0.142598,0.000000,0.000000,0.000000,-1,1.796329,1.395999,0.677311,0.000307,0.271437,-0.062184
"2019-05-06 15:52:45.671 +0000",1557157965.670599,2.804313,1.378601,0.459687,0.063211,-0.981587,0.180252,0.000000,0.000000,0.000000,-1,1.784467,0.825050,0.303386,-0.258599,0.168294,-0.258179
"2019-05-06 15:52:45.691 +0000",1557157965.690588,2.877429,1.350266,0.403651,0.057115,-0.975782,0.211159,0.000000,0.000000,0.000000,-1,1.324470,0.978532,-0.000931,-0.148470,0.466855,-0.204964
"2019-05-06 15:52:45.711 +0000",1557157965.710577,2.899371,1.327777,0.406633,0.057719,-0.970616,0.233610,0.000000,0.000000,0.000000,-1,0.995762,1.431374,-0.532316,0.116415,0.570149,-0.120359
"2019-05-06 15:52:45.731 +0000",1557157965.730535,2.871459,1.312265,0.455270,0.068226,-0.966767,0.246389,0.000000,0.000000,0.000000,-1,0.380433,0.619390,-0.855024,-0.027256,0.332871,-0.259024
"2019-05-06 15:52:45.751 +0000",1557157965.750523,2.820000,1.307050,0.513167,0.082401,-0.965420,0.247334,0.000000,0.000000,0.000000,-1,-0.184152,-0.039932,-0.683096,0.033047,0.576260,-0.238911
"2019-05-06 15:52:45.770 +0000",1557157965.770482,2.790811,1.317127,0.533953,0.086237,-0.967998,0.235675,0.000000,0.000000,0.000000,-1,-0.798898,-0.594468,0.270582,-0.117395,0.966884,-0.141025
"2019-05-06 15:52:45.790 +0000",1557157965.790470,2.791772,1.342997,0.522063,0.077400,-0.974166,0.212156,0.000000,0.000000,0.000000,-1,-1.375863,-0.474214,0.755520,-0.093834,1.102263,-0.048704
"2019-05-06 15:52:45.810 +0000",1557157965.810460,2.830273,1.374152,0.475959,0.059848,-0.980728,0.185987,0.000000,0.000000,0.000000,-1,-1.168973,-0.308470,1.099612,-0.047686,0.999649,0.141603
"2019-05-06 15:52:45.830 +0000",1557157965.830416,2.937137,1.391386,0.359642,0.036231,-0.983949,0.174733,0.000000,0.000000,0.000000,-1,-0.153969,-0.311154,1.359483,-0.052421,0.478258,0.394069
"2019-05-06 15:52:45.850 +0000",1557157965.850404,3.095619,1.386402,0.216413,0.008426,-0.983048,0.183157,0.000000,0.000000,0.000000,-1,1.020891,1.907073,1.090710,-0.115284,0.003540,0.441568
"2019-05-06 15:52:45.870 +0000",1557157965.870363,-3.076773,1.362609,0.135952,-0.013388,-0.978407,0.206252,0.000000,0.000000,0.000000,-1,0.707566,1.166502,0.566237,0.045599,-0.848665,-0.256087
"2019-05-06 15:52:45.890 +0000",1557157965.890351,-3.061006,1.365780,0.130235,-0.016388,-0.979058,0.202923,0.000000,0.000000,0.000000,-1,-0.454094,0.386351,-0.132192,0.014969,-1.361259,0.173115
"2019-05-06 15:52:45.910 +0000",1557157965.910340,-3.072808,1.377235,0.144620,-0.013221,-0.981325,0.191900,0.000000,0.000000,0.000000,-1,-0.462360,0.131574,-0.404304,-0.160592,-1.082792,0.068842
"2019-05-06 15:52:45.930 +0000",1557157965.930298,-3.131401,1.381676,0.217490,-0.001916,-0.982170,0.187985,0.000000,0.000000,0.000000,-1,-0.113231,0.832392,-0.698642,0.039834,-1.591896,-0.195340
"2019-05-06 15:52:45.950 +0000",1557157965.950264,3.104968,1.385369,0.273845,0.006751,-0.982858,0.184243,0.000000,0.000000,0.000000,-1,-0.358760,0.028501,-0.458673,-0.154456,-1.444160,-0.398339
"2019-05-06 15:52:45.970 +0000",1557157965.970252,3.036925,1.400320,0.331186,0.017725,-0.985504,0.168723,0.000000,0.000000,0.000000,-1,-1.037252,-0.944216,-0.467990,-0.046045,-1.078293,-0.483451
"2019-05-06 15:52:45.990 +0000",1557157965.990211,2.919771,1.425166,0.422650,0.031926,-0.989415,0.141560,0.000000,0.000000,0.000000,-1,-1.521590,-1.508104,-0.518005,-0.189687,-0.461055,-0.345433
"2019-05-06 15:52:46.010 +0000",1557157966.010200,2.755010,1.455593,0.558291,0.043339,-0.993371,0.106466,0.000000,0.000000,0.000000,-1,-1.812056,-1.484230,-0.248541,-0.417270,0.103921,-0.182760
"2019-05-06 15:52:46.030 +0000",1557157966.030157,2.625978,1.487372,0.662241,0.041086,-0.996522,0.072494,0.000000,0.000000,0.000000,-1,-1.488230,-1.213695,0.566825,-0.533091,0.515001,0.006608
"2019-05-06 15:52:46.050 +0000",1557157966.050146,2.719289,1.518022,0.543037,0.021620,-0.998608,0.048116,0.000000,0.000000,0.000000,-1,-1.058118,-1.323256,1.258219,-0.391020,0.965664,0.012324
"2019-05-06 15:52:46.070 +0000",1557157966.070134,-3.097462,1.543120,0.050165,-0.001221,-0.999617,0.027645,0.000000,0.000000,0.000000,-1,-1.038854,-1.385251,1.101284,-0.031708,1.538771,-0.121868
"2019-05-06 15:52:46.090 +0000",1557157966.090093,-2.151990,1.552358,-0.921088,-0.015408,-0.999830,0.010121,0.000000,0.000000,0.000000,-1,-0.743317,-1.071903,0.529680,0.245129,1.565214,0.066814
"2019-05-06 15:52:46.110 +0000",1557157966.110081,-1.583293,1.547554,-1.496628,-0.023238,-0.999730,0.000290,0.000000,0.000000,0.000000,-1,-0.396721,0.065066,0.361177,0.164504,1.142308,0.101287
"2019-05-06 15:52:46.130 +0000",1557157966.130039,-1.359745,1.535937,-1.719419,-0.034080,-0.999392,-0.007301,0.000000,0.000000,0.000000,-1,-0.386352,-0.090614,0.690954,-0.140785,0.884448,-0.066826
"2019-05-06 15:52:46.150 +0000",1557157966.150027,-1.267790,1.519945,-1.815635,-0.048513,-0.998707,-0.015167,0.000000,0.000000,0.000000,-1,-0.413376,-0.181916,0.687164,-0.059565,0.820027,0.015533
"2019-05-06 15:52:46.170 +0000",1557157966.170016,-1.178114,1.508321,-1.904832,-0.057682,-0.998049,-0.023892,0.000000,0.000000,0.000000,-1,-0.407030,0.174022,0.247593,0.296833,0.441592,0.215237
"2019-05-06 15:52:46.190 +0000",1557157966.189974,-1.022322,1.525171,-2.051612,-0.038920,-0.998959,-0.023780,0.000000,0.000000,0.000000,-1,0.043131,1.153118,-2.076905,0.949824,-0.795612,0.863624
"2019-05-06 15:52:46.210 +0000",1557157966.209964,0.374740,1.541670,2.848593,0.010659,-0.999576,-0.027101,0.000000,0.000000,0.000000,-1,-0.224298,-0.338086,-2.093150,-0.831033,-0.646008,-0.667174
"2019-05-06 15:52:46.230 +0000",1557157966.229952,0.719222,1.526012,2.492435,0.029495,-0.998997,-0.033681,0.000000,0.000000,0.000000,-1,-0.252636,-0.083430,-0.439511,-0.487487,-0.485271,0.353094
"2019-05-06 15:52:46.250 +0000",1557157966.249910,0.665928,1.523559,2.556199,0.029173,-0.998884,-0.037132,0.000000,0.000000,0.000000,-1,-0.275117,0.567990,0.236356,-0.178327,-0.639116,-0.185723
"2019-05-06 15:52:46.270 +0000",1557157966.269898,0.571571,1.526443,2.654735,0.023985,-0.999017,-0.037290,0.000000,0.000000,0.000000,-1,0.206661,-0.041234,0.279436,-0.207594,-0.788383,-0.492373
"2019-05-06 15:52:46.290 +0000",1557157966.289856,0.676906,1.541146,2.547160,0.018570,-0.999560,-0.023110,0.000000,0.000000,0.000000,-1,1.200912,-0.075248,0.211743,-0.135681,-0.602551,-0.451103
"2019-05-06 15:52:46.310 +0000",1557157966.309845,2.235684,1.550698,0.996026,0.015818,-0.999798,0.012401,0.000000,0.000000,0.000000,-1,1.981444,0.590557,0.128350,-0.430049,-0.697376,-0.542186
"2019-05-06 15:52:46.330 +0000",1557157966.329834,2.989764,1.514690,0.254700,0.008481,-0.998426,0.055432,0.000000,0.000000,0.000000,-1,2.300765,0.694136,0.526000,-0.597135,-0.552706,-0.328610
"2019-05-06 15:52:46.350 +0000",1557157966.349791,-3.075905,1.468333,0.049569,-0.006714,-0.994755,0.102064,0.000000,0.000000,0.000000,-1,2.350443,0.545201,0.757923,-0.259430,-0.142955,-0.268416
"2019-05-06 15:52:46.370 +0000",1557157966.369779,-2.998395,1.423632,-0.017661,-0.020926,-0.989191,0.145133,0.000000,0.000000,0.000000,-1,2.151967,0.573400,0.518257,0.001913,0.096140,-0.093207
"2019-05-06 15:52:46.390 +0000",1557157966.389738,-2.994842,1.383264,-0.006383,-0.027261,-0.982467,0.184431,0.000000,0.000000,0.000000,-1,1.875388,0.754001,0.002831,0.071329,-0.014389,-0.292830
"2019-05-06 15:52:46.410 +0000",1557157966.409727,-3.025727,1.355978,0.036018,-0.024644,-0.977015,0.211740,0.000000,0.000000,0.000000,-1,1.178931,0.428993,-0.338108,-0.070678,0.136729,-0.343408
"2019-05-06 15:52:46.430 +0000",1557157966.429715,-3.075353,1.341253,0.092167,-0.015061,-0.973770,0.227034,0.000000,0.000000,0.000000,-1,0.667058,0.255686,-0.721078,0.099091,0.518158,-0.092848
"2019-05-06 15:52:46.450 +0000",1557157966.449673,3.132960,1.329531,0.177710,0.002063,-0.971037,0.238922,0.000000,0.000000,0.000000,-1,0.610878,0.428493,-1.053131,0.151883,0.563627,-0.034683
"2019-05-06 15:52:46.470 +0000",1557157966.469661,3.079215,1.318905,0.240937,0.015537,-0.968443,0.248751,0.000000,0.000000,0.000000,-1,0.403348,0.350093,-0.549212,-0.028613,0.606977,-0.101427
"2019-05-06 15:52:46.490 +0000",1557157966.489651,3.081313,1.318499,0.244339,0.015038,-0.968342,0.249176,0.000000,0.000000,0.000000,-1,-0.279589,0.214233,0.217509,-0.032556,0.834995,-0.207107
"2019-05-06 15:52:46.510 +0000",1557157966.509608,3.124963,1.333375,0.202628,0.003911,-0.971948,0.235165,0.000000,0.000000,0.000000,-1,-0.965930,0.119248,0.659246,0.031154,1.055566,-0.172451
"2019-05-06 15:52:46.530 +0000",1557157966.529597,-3.091709,1.360063,0.134288,-0.010430,-0.977878,0.208917,0.000000,0.000000,0.000000,-1,-1.602310,-0.130672,0.808338,-0.024634,0.836139,0.151236
"2019-05-06 15:52:46.550 +0000",1557157966.549556,-2.994744,1.352561,0.043724,-0.031680,-0.976281,0.214177,0.000000,0.000000,0.000000,-1,1.656210,0.266577,1.162455,-0.273191,0.352944,0.639522
"2019-05-06 15:52:46.570 +0000",1557157966.569543,-2.890596,1.330137,-0.021810,-0.059197,-0.971181,0.230875,0.000000,0.000000,0.000000,-1,0.423533,3.523059,0.569114,0.058068,-0.180827,0.776709
"2019-05-06 15:52:46.590 +0000",1557157966.589532,-2.789846,1.335315,-0.067465,-0.080384,-0.972402,0.219026,0.000000,0.000000,0.000000,-1,-1.019383,1.455715,0.310628,0.457856,-1.236475,-0.631013
"2019-05-06 15:52:46.609 +0000",1557157966.609490,-2.774439,1.363016,-0.101236,-0.074049,-0.978491,0.192539,0.000000,0.000000,0.000000,-1,-1.347683,-1.316660,-0.420232,0.259688,-1.396799,0.224224
"2019-05-06 15:52:46.629 +0000",1557157966.629478,-2.808051,1.381302,-0.082002,-0.061668,-0.982100,0.177982,0.000000,0.000000,0.000000,-1,-0.372363,-0.034447,-0.398291,0.050697,-0.991243,0.342114
"2019-05-06 15:52:46.649 +0000",1557157966.649437,-2.821408,1.390894,-0.060673,-0.056318,-0.983861,0.169840,0.000000,0.000000,0.000000,-1,-0.683584,0.048700,-0.291753,-0.119540,-1.650813,-0.463251
"2019-05-06 15:52:46.669 +0000",1557157966.669425,-2.818388,1.412340,-0.089300,-0.050117,-0.987472,0.149624,0.000000,0.000000,0.000000,-1,-1.054664,-1.525114,-0.089305,-0.253900,-1.310898,-0.445095
"2019-05-06 15:52:46.689 +0000",1557157966.689414,-2.863909,1.433654,-0.077528,-0.037477,-0.990611,0.131476,0.000000,0.000000,0.000000,-1,-0.990540,-1.824605,-0.604357,-0.113600,-1.023992,-0.484152
"2019-05-06 15:52:46.709 +0000",1557157966.709372,-2.980188,1.459475,0.002643,-0.017853,-0.993810,0.109648,0.000000,0.000000,0.000000,-1,-1.378873,-1.830846,-0.877129,-0.222366,-0.494868,-0.347319
"2019-05-06 15:52:46.729 +0000",1557157966.729360,3.126070,1.497562,0.143177,0.001136,-0.997320,0.073161,0.000000,0.000000,0.000000,-1,-2.100264,-1.978081,-0.602146,-0.427482,-0.104304,-0.258875
"2019-05-06 15:52:46.749 +0000",1557157966.749319,3.021379,1.538705,0.208985,0.003848,-0.999485,0.031853,0.000000,0.000000,0.000000,-1,-1.949660,-1.865845,0.295788,-0.460284,0.350819,0.025002
"2019-05-06 15:52:46.769 +0000",1557157966.769307,-1.562901,1.559650,-1.525254,-0.011146,-0.999938,-0.000088,0.000000,0.000000,0.000000,-1,-1.423494,-1.809186,1.066320,-0.304619,0.827865,0.007595
"2019-05-06 15:52:46.789 +0000",1557157966.789296,-1.080828,1.531506,-2.041617,-0.034660,-0.999228,-0.018486,0.000000,0.000000,0.000000,-1,-0.708061,-1.484729,1.067254,-0.095650,1.281714,-0.019387
"2019-05-06 15:52:46.809 +0000",1557157966.809253,-1.552699,1.524133,-1.549613,-0.046639,-0.998911,-0.000844,0.000000,0.000000,0.000000,-1,1.515748,1.526828,0.351384,0.086281,1.847087,0.274251
"2019-05-06 15:52:46.829 +0000",1557157966.829242,-1.783556,1.515567,-1.310527,-0.053957,-0.998475,0.011656,0.000000,0.000000,0.000000,-1,0.131885,-0.308958,0.528266,0.221407,1.652085,-0.016112
"2019-05-06 15:52:46.849 +0000",1557157966.849231,-1.680456,1.502985,-1.437253,-0.067353,-0.997702,0.007416,0.000000,0.000000,0.000000,-1,-0.530783,-1.156702,0.598547,0.328903,0.752478,0.352204
"2019-05-06 15:52:46.869 +0000",1557157966.869189,-1.430669,1.493115,-1.692340,-0.076843,-0.996984,-0.010839,0.000000,0.000000,0.000000,-1,-1.325897,-0.082986,0.469861,0.092452,0.633535,-0.268275
"2019-05-06 15:52:46.889 +0000",1557157966.889178,-1.150352,1.474285,-1.971541,-0.087969,-0.995346,-0.039331,0.000000,0.000000,0.000000,-1,-1.146231,0.502614,0.581363,-0.158399,0.809418,-0.205297
"2019-05-06 15:52:46.909 +0000",1557157966.909135,-1.112973,1.472627,-1.997142,-0.087918,-0.995185,-0.043321,0.000000,0.000000,0.000000,-1,0.672365,0.778961,-0.596900,0.324338,0.637062,0.396867
"2019-05-06 15:52:46.929 +0000",1557157966.929124,-0.730654,1.511955,-2.334381,-0.039246,-0.998269,-0.043796,0.000000,0.000000,0.000000,-1,-0.725197,1.200576,-2.939821,0.745758,-1.135138,0.820331
"2019-05-06 15:52:46.949 +0000",1557157966.949088,-0.493045,1.508028,-2.596356,-0.029689,-0.998031,-0.055256,0.000000,0.000000,0.000000,-1,0.354072,-1.066362,-0.086365,-1.124745,-0.281388,-0.399365
"2019-05-06 15:52:46.969 +0000",1557157966.969046,-0.491706,1.532732,-2.576472,-0.017968,-0.999276,-0.033548,0.000000,0.000000,0.000000,-1,0.786408,2.104257,-0.695261,-0.248954,-0.144737,0.330087
"2019-05-06 15:52:46.989 +0000",1557157966.989034,-0.298904,1.541161,-2.744474,-0.008726,-0.999561,-0.028318,0.000000,0.000000,0.000000,-1,0.364765,0.577380,-0.058915,-0.542315,-1.322506,-0.504443
"2019-05-06 15:52:47.009 +0000",1557157967.008992,-0.895729,1.551302,-2.140755,-0.015218,-0.999810,-0.012182,0.000000,0.000000,0.000000,-1,0.931107,0.482794,0.318725,-0.512218,-1.134467,-0.372187
"2019-05-06 15:52:47.029 +0000",1557157967.028980,-2.084559,1.547643,-0.937340,-0.020163,-0.999732,0.011378,0.000000,0.000000,0.000000,-1,1.456496,0.761046,0.302486,-0.179849,-0.711434,-0.595088
"2019-05-06 15:52:47.049 +0000",1557157967.048969,-2.577134,1.513307,-0.428333,-0.030738,-0.998348,0.048545,0.000000,0.000000,0.000000,-1,2.116944,0.804740,0.602394,-0.462655,-0.527623,-0.515312
"2019-05-06 15:52:47.069 +0000",1557157967.068927,-2.712026,1.464859,-0.278067,-0.044038,-0.994394,0.096132,0.000000,0.000000,0.000000,-1,2.538402,0.728319,0.588129,-0.223586,-0.199835,-0.249117
"2019-05-06 15:52:47.089 +0000",1557157967.088917,-2.804753,1.413453,-0.174925,-0.051789,-0.987647,0.147890,0.000000,0.000000,0.000000,-1,2.728190,0.354614,0.194875,-0.025772,0.015159,-0.251329
"2019-05-06 15:52:47.109 +0000",1557157967.108904,-2.875985,1.362459,-0.101747,-0.054293,-0.978376,0.199580,0.000000,0.000000,0.000000,-1,2.519468,-0.160003,0.143285,-0.130949,-0.201082,-0.391002
"2019-05-06 15:52:47.129 +0000",1557157967.128862,-2.911718,1.325694,-0.067248,-0.055290,-0.970113,0.236272,0.000000,0.000000,0.000000,-1,1.470325,0.007121,-0.042372,-0.183525,-0.018291,-0.402395
"2019-05-06 15:52:47.149 +0000",1557157967.148851,-2.959329,1.308025,-0.009258,-0.047083,-0.965674,0.255455,0.000000,0.000000,0.000000,-1,0.913632,0.744554,-0.860267,0.192346,0.509650,-0.061806
"2019-05-06 15:52:47.169 +0000",1557157967.168809,-3.033576,1.294320,0.082250,-0.029428,-0.962023,0.271376,0.000000,0.000000,0.000000,-1,0.765235,0.488900,-1.098968,0.202859,0.534091,0.019044
"2019-05-06 15:52:47.189 +0000",1557157967.188796,-3.078776,1.287013,0.134706,-0.017577,-0.960003,0.279438,0.000000,0.000000,0.000000,-1,0.237333,0.262672,-0.403353,0.056151,0.449383,-0.029575
"2019-05-06 15:52:47.209 +0000",1557157967.208786,-3.065392,1.290044,0.130903,-0.021093,-0.960847,0.276275,0.000000,0.000000,0.000000,-1,-0.392244,0.522265,0.303773,-0.031092,0.784974,-0.196456
"2019-05-06 15:52:47.229 +0000",1557157967.228742,-3.007415,1.302095,0.081129,-0.035515,-0.964116,0.263093,0.000000,0.000000,0.000000,-1,-0.793877,0.519240,0.700484,-0.094490,1.033605,-0.280870
"2019-05-06 15:52:47.249 +0000",1557157967.248731,-2.931351,1.315463,0.019109,-0.052710,-0.967579,0.247006,0.000000,0.000000,0.000000,-1,-0.695293,1.024968,0.891138,0.019507,1.202870,-0.138135
"2019-05-06 15:52:47.269 +0000",1557157967.268690,-2.849014,1.313857,-0.047640,-0.073294,-0.967172,0.243322,0.000000,0.000000,0.000000,-1,0.134083,0.811428,0.673531,-0.089593,0.904153,0.255732
"2019-05-06 15:52:47.289 +0000",1557157967.288679,-2.787316,1.291388,-0.080900,-0.095674,-0.961219,0.258660,0.000000,0.000000,0.000000,-1,1.523236,2.560128,0.706268,-0.362334,0.216590,1.141364
"2019-05-06 15:52:47.309 +0000",1557157967.308667,-2.759172,1.258160,-0.024576,-0.114774,-0.951526,0.285350,0.000000,0.000000,0.000000,-1,1.757317,4.050255,-0.594335,-0.134966,-0.609997,0.608143
"2019-05-06 15:52:47.329 +0000",1557157967.328624,-2.789213,1.272757,0.053070,-0.101347,-0.955914,0.275603,0.000000,0.000000,0.000000,-1,-1.710895,0.985478,-1.889290,0.594419,-1.703723,0.129365
"2019-05-06 15:52:47.349 +0000",1557157967.348614,-2.813387,1.320088,0.062369,-0.079971,-0.968737,0.234847,0.000000,0.000000,0.000000,-1,-1.641213,-1.624774,0.167396,1.082031,-2.240797,-0.367248
"2019-05-06 15:52:47.369 +0000",1557157967.368601,-2.804849,1.340641,0.020283,-0.075378,-0.973631,0.215317,0.000000,0.000000,0.000000,-1,-1.260563,-1.752017,-0.087208,0.301376,-0.989397,0.379532
"2019-05-06 15:52:47.389 +0000",1557157967.388560,-2.808125,1.366622,-0.015392,-0.066367,-0.979229,0.191590,0.000000,0.000000,0.000000,-1,-1.209023,-1.992769,0.010999,-0.106087,-1.121800,-0.055146
"2019-05-06 15:52:47.409 +0000",1557157967.408549,-2.846808,1.384755,-0.013668,-0.053740,-0.982744,0.176991,0.000000,0.000000,0.000000,-1,-0.894924,-2.056329,-0.416334,-0.560289,-0.953688,-0.332173
"2019-05-06 15:52:47.429 +0000",1557157967.428507,-2.946820,1.417823,0.038483,-0.029492,-0.988322,0.149496,0.000000,0.000000,0.000000,-1,-1.778334,-2.254679,-0.926025,-0.595264,-0.553426,-0.572271
"2019-05-06 15:52:47.448 +0000",1557157967.448495,-3.066821,1.456556,0.125502,-0.008515,-0.993482,0.113674,0.000000,0.000000,0.000000,-1,-1.929953,-1.666346,-0.770323,-0.358626,-0.746341,-0.290401
"2019-05-06 15:52:47.468 +0000",1557157967.468484,-3.039396,1.497723,0.065473,-0.007448,-0.997331,0.072628,0.000000,0.000000,0.000000,-1,-2.105217,-1.527167,0.663447,-0.375380,0.000856,-0.156841
"2019-05-06 15:52:47.488 +0000",1557157967.488443,-2.448973,1.523361,-0.553314,-0.030279,-0.998875,0.036492,0.000000,0.000000,0.000000,-1,-1.618680,-1.323581,1.395067,-0.285730,0.910420,0.140480
"2019-05-06 15:52:47.508 +0000",1557157967.508430,-1.840970,1.513614,-1.189795,-0.055078,-0.998366,0.015253,0.000000,0.000000,0.000000,-1,-0.815169,-1.362722,1.164342,-0.238074,1.416044,0.131597
"2019-05-06 15:52:47.528 +0000",1557157967.528389,-1.708415,1.498994,-1.340536,-0.071063,-0.997423,0.009842,0.000000,0.000000,0.000000,-1,-0.137173,-0.694368,0.599622,0.055667,1.775103,0.075928
"2019-05-06 15:52:47.548 +0000",1557157967.548377,-1.656370,1.492463,-1.404036,-0.077967,-0.996934,0.006688,0.000000,0.000000,0.000000,-1,-0.318384,-0.529812,0.279696,0.258250,1.653214,-0.107320
"2019-05-06 15:52:47.568 +0000",1557157967.568365,-1.536585,1.482194,-1.537510,-0.088434,-0.996077,-0.003027,0.000000,0.000000,0.000000,-1,-0.662229,-0.715851,0.697105,0.150232,0.871566,0.021246
"2019-05-06 15:52:47.588 +0000",1557157967.588325,-1.452035,1.471825,-1.633940,-0.098114,-0.995106,-0.011707,0.000000,0.000000,0.000000,-1,-0.273692,-0.234075,0.188642,0.332901,1.021504,0.226139
"2019-05-06 15:52:47.608 +0000",1557157967.608313,-1.343565,1.475022,-1.733439,-0.093169,-0.995417,-0.021543,0.000000,0.000000,0.000000,-1,-0.723830,0.646026,-0.296439,0.117858,0.734995,-0.293688
"2019-05-06 15:52:47.628 +0000",1557157967.628301,-1.143356,1.469284,-1.922605,-0.092220,-0.994852,-0.042009,0.000000,0.000000,0.000000,-1,-0.958909,0.696205,-0.000979,-0.179875,0.353830,-0.194594
"2019-05-06 15:52:47.648 +0000",1557157967.648259,-0.967783,1.489807,-2.076964,-0.066633,-0.996722,-0.045881,0.000000,0.000000,0.000000,-1,0.355707,2.095647,-2.231631,0.758161,-0.435529,1.336134
"2019-05-06 15:52:47.668 +0000",1557157967.668247,-0.390902,1.519848,-2.638357,-0.019404,-0.998702,-0.047084,0.000000,0.000000,0.000000,-1,0.015441,-0.057550,-1.547897,-0.455694,-0.555070,-1.112309
"2019-05-06 15:52:47.688 +0000",1557157967.688206,-0.357167,1.533995,-2.673059,-0.012864,-0.999323,-0.034471,0.000000,0.000000,0.000000,-1,0.910425,0.372467,0.067525,-0.754074,-0.645117,0.476518
"2019-05-06 15:52:47.708 +0000",1557157967.708195,-0.376576,1.538475,-2.626133,-0.011884,-0.999478,-0.030052,0.000000,0.000000,0.000000,-1,-0.052453,1.377106,-0.195611,-0.293215,-0.861042,-0.521874
"2019-05-06 15:52:47.728 +0000",1557157967.728183,-0.489570,1.547074,-2.507675,-0.011155,-0.999719,-0.020935,0.000000,0.000000,0.000000,-1,0.910516,-0.254321,0.255235,-0.616256,-1.101859,-0.544357
"2019-05-06 15:52:47.748 +0000",1557157967.748142,-1.527375,1.552376,-1.472842,-0.018400,-0.999830,-0.000799,0.000000,0.000000,0.000000,-1,1.068689,0.158427,0.302864,-0.210238,-0.947267,-0.629343
"2019-05-06 15:52:47.768 +0000",1557157967.768129,-2.401844,1.529475,-0.588966,-0.027847,-0.999146,0.030512,0.000000,0.000000,0.000000,-1,2.032753,0.662369,0.641771,-0.523133,-0.732207,-0.573832
"2019-05-06 15:52:47.788 +0000",1557157967.788088,-2.629084,1.477508,-0.345645,-0.045679,-0.995652,0.081184,0.000000,0.000000,0.000000,-1,2.853626,0.758849,0.931017,-0.278113,-0.270461,-0.325646
"2019-05-06 15:52:47.808 +0000",1557157967.808076,-2.712687,1.418197,-0.250719,-0.063216,-0.988379,0.138239,0.000000,0.000000,0.000000,-1,2.930667,0.355851,0.722560,0.105422,0.100623,-0.205683
"2019-05-06 15:52:47.828 +0000",1557157967.828065,-2.805810,1.362447,-0.155768,-0.068157,-0.978374,0.195294,0.000000,0.000000,0.000000,-1,2.824355,-0.147080,-0.050232,0.135494,0.190394,-0.115994
"2019-05-06 15:52:47.848 +0000",1557157967.848022,-2.891451,1.324709,-0.074369,-0.060304,-0.969873,0.236029,0.000000,0.000000,0.000000,-1,1.587373,-0.324068,-0.399533,-0.090758,-0.077307,-0.324652
"2019-05-06 15:52:47.868 +0000",1557157967.868011,-2.943001,1.302180,-0.013442,-0.052360,-0.964139,0.260181,0.000000,0.000000,0.000000,-1,1.226551,0.930963,-0.670135,0.020896,0.473325,0.180767
"2019-05-06 15:52:47.888 +0000",1557157967.887999,-3.008164,1.284128,0.080496,-0.037616,-0.959191,0.280245,0.000000,0.000000,0.000000,-1,1.081930,1.057525,-1.286453,0.287876,0.247384,0.000075
"2019-05-06 15:52:47.908 +0000",1557157967.907958,-3.076349,1.273462,0.162616,-0.019101,-0.956121,0.292349,0.000000,0.000000,0.000000,-1,0.254545,0.376950,-0.978414,0.048902,0.359045,-0.152716
"2019-05-06 15:52:47.928 +0000",1557157967.927946,-3.112220,1.284704,0.202733,-0.008288,-0.959354,0.282084,0.000000,0.000000,0.000000,-1,-1.027661,-0.069391,-0.306862,-0.042585,0.827228,-0.293253
"2019-05-06 15:52:47.948 +0000",1557157967.947886,-3.083854,1.316148,0.168605,-0.014537,-0.967752,0.251485,0.000000,0.000000,0.000000,-1,-1.810717,-0.184364,0.811287,-0.116140,1.126092,-0.203527
"2019-05-06 15:52:47.968 +0000",1557157967.967875,-2.981927,1.352770,0.066402,-0.034390,-0.976326,0.213552,0.000000,0.000000,0.000000,-1,-2.277427,0.130505,0.984304,0.052868,1.208763,-0.093358
"2019-05-06 15:52:47.988 +0000",1557157967.987863,-2.851321,1.372066,-0.049845,-0.056505,-0.980318,0.189165,0.000000,0.000000,0.000000,-1,-0.254600,0.491901,1.029278,0.004686,0.734591,0.327619
"2019-05-06 15:52:48.008 +0000",1557157968.007821,-2.719855,1.361858,-0.174914,-0.084907,-0.978252,0.189247,0.000000,0.000000,0.000000,-1,0.253449,1.240823,1.261579,-0.123818,-0.199788,1.181312
"2019-05-06 15:52:48.028 +0000",1557157968.027811,-2.621422,1.351158,-0.239961,-0.108291,-0.975976,0.189059,0.000000,0.000000,0.000000,-1,-0.043245,1.514288,0.892577,0.201613,-0.924262,0.326215
"2019-05-06 15:52:48.048 +0000",1557157968.047768,-2.563863,1.345905,-0.270271,-0.121785,-0.974818,0.186808,0.000000,0.000000,0.000000,-1,0.153269,1.437934,-0.133509,0.419210,-1.234486,0.389150
"2019-05-06 15:52:48.068 +0000",1557157968.067756,-2.635706,1.336752,-0.177244,-0.112381,-0.972736,0.202865,0.000000,0.000000,0.000000,-1,1.330629,0.992121,-1.070176,0.279282,-1.489132,-0.280334
"2019-05-06 15:52:48.088 +0000",1557157968.087745,-2.745049,1.330573,-0.052182,-0.091892,-0.971285,0.219458,0.000000,0.000000,0.000000,-1,0.608852,0.298149,-1.127360,0.409245,-1.832686,-0.337088
"2019-05-06 15:52:48.108 +0000",1557157968.107702,-2.837624,1.331822,0.036866,-0.070848,-0.971581,0.225855,0.000000,0.000000,0.000000,-1,0.114928,-0.816782,-0.824086,-0.062956,-1.378883,-0.365336
"2019-05-06 15:52:48.128 +0000",1557157968.127692,-2.898669,1.345925,0.062585,-0.053636,-0.974823,0.216434,0.000000,0.000000,0.000000,-1,-1.141026,-2.392257,-0.260389,-0.455443,-1.003128,-0.447132
"2019-05-06 15:52:48.148 +0000",1557157968.147681,-2.894571,1.383183,0.009098,-0.045606,-0.982452,0.180853,0.000000,0.000000,0.000000,-1,-2.342996,-2.291965,0.277828,-0.419192,-0.453110,-0.151450
"2019-05-06 15:52:48.168 +0000",1557157968.167639,-2.774397,1.430806,-0.152234,-0.050093,-0.990217,0.130232,0.000000,0.000000,0.000000,-1,-2.810097,-1.805064,0.697979,-0.226870,0.342528,-0.062788
"2019-05-06 15:52:48.188 +0000",1557157968.187627,-2.470798,1.467900,-0.502619,-0.063849,-0.994711,0.080460,0.000000,0.000000,0.000000,-1,-2.486164,-2.759685,1.054121,-0.225595,0.918722,-0.245682
"2019-05-06 15:52:48.208 +0000",1557157968.207584,-2.006326,1.479640,-1.029162,-0.082533,-0.995848,0.038405,0.000000,0.000000,0.000000,-1,-2.241539,-2.957987,1.063950,-0.182299,1.309630,0.164293
"2019-05-06 15:52:48.228 +0000",1557157968.227574,-1.602975,1.473281,-1.485311,-0.097311,-0.995249,0.003132,0.000000,0.000000,0.000000,-1,-1.879158,-2.149288,0.646545,0.040472,1.720530,-0.020299
"2019-05-06 15:52:48.248 +0000",1557157968.247562,-1.317508,1.462824,-1.798733,-0.104323,-0.994177,-0.027004,0.000000,0.000000,0.000000,-1,-1.465775,-1.013105,0.162794,0.071532,1.680853,0.080715
"2019-05-06 15:52:48.268 +0000",1557157968.267521,-1.239267,1.453023,-1.884852,-0.111103,-0.993073,-0.038245,0.000000,0.000000,0.000000,-1,0.076867,0.233369,0.477384,-0.037442,0.898682,0.448508
"2019-05-06 15:52:48.288 +0000",1557157968.287510,-1.328205,1.447234,-1.787047,-0.119639,-0.992376,-0.029606,0.000000,0.000000,0.000000,-1,0.545907,0.722404,0.410741,0.413935,0.772070,0.319005
"2019-05-06 15:52:48.307 +0000",1557157968.307467,-1.319612,1.438954,-1.770832,-0.127336,-0.991321,-0.032675,0.000000,0.000000,0.000000,-1,-0.429052,1.243187,0.451109,-0.076644,0.834629,-0.375574
"2019-05-06 15:52:48.327 +0000",1557157968.327454,-1.244720,1.429092,-1.834709,-0.133789,-0.989977,-0.045240,0.000000,0.000000,0.000000,-1,-0.436094,0.275292,0.196766,0.140808,0.658708,-0.227678
"2019-05-06 15:52:48.347 +0000",1557157968.347443,-1.214895,1.460353,-1.854336,-0.103312,-0.993907,-0.038404,0.000000,0.000000,0.000000,-1,0.460082,2.241524,-3.238949,1.338785,-0.908650,1.640958
"2019-05-06 15:52:48.367 +0000",1557157968.367402,-0.900387,1.509364,-2.140010,-0.048107,-0.998114,-0.038145,0.000000,0.000000,0.000000,-1,0.064824,-0.397387,-1.616517,-1.416142,-0.862528,-1.178408
"2019-05-06 15:52:48.387 +0000",1557157968.387390,-1.166321,1.519749,-1.882624,-0.046909,-0.998697,-0.020081,0.000000,0.000000,0.000000,-1,1.232153,0.647483,0.390345,-0.567563,-0.437277,0.571869
"2019-05-06 15:52:48.407 +0000",1557157968.407347,-1.368634,1.515372,-1.639503,-0.054267,-0.998464,-0.011123,0.000000,0.000000,0.000000,-1,0.592742,1.984167,0.522822,-0.271447,-1.000254,-0.471848
"2019-05-06 15:52:48.427 +0000",1557157968.427337,-1.743893,1.495753,-1.244694,-0.073852,-0.997186,0.012913,0.000000,0.000000,0.000000,-1,1.233793,0.226441,1.107892,-0.918397,-1.177344,-0.588596
"2019-05-06 15:52:48.447 +0000",1557157968.447325,-1.850962,1.479915,-1.137381,-0.087218,-0.995873,0.025095,0.000000,0.000000,0.000000,-1,0.357982,-0.223147,0.466916,-0.010484,-0.868369,-0.475993
"2019-05-06 15:52:48.467 +0000",1557157968.467283,-1.913752,1.469440,-1.084702,-0.095291,-0.994868,0.034025,0.000000,0.000000,0.000000,-1,0.587072,-0.645453,0.440366,-0.242248,-0.449224,-0.540541
"2019-05-06 15:52:48.487 +0000",1557157968.487271,-2.187136,1.448667,-0.804592,-0.099410,-0.992552,0.070422,0.000000,0.000000,0.000000,-1,2.261995,0.666221,-0.061782,-0.053056,0.076643,0.050291
"2019-05-06 15:52:48.507 +0000",1557157968.507260,-2.514459,1.416364,-0.457140,-0.090265,-0.988099,0.124549,0.000000,0.000000,0.000000,-1,3.217814,0.933734,-0.723066,0.119196,0.221436,-0.091682
"2019-05-06 15:52:48.527 +0000",1557157968.527217,-2.736924,1.370586,-0.220106,-0.078300,-0.980025,0.182813,0.000000,0.000000,0.000000,-1,2.652025,0.251597,-0.668532,-0.064705,0.012785,-0.436338
"2019-05-06 15:52:48.547 +0000",1557157968.547205,-2.849562,1.338694,-0.101189,-0.066223,-0.973185,0.220285,0.000000,0.000000,0.000000,-1,1.617934,0.180552,-0.610092,-0.171707,0.142741,-0.260583
"2019-05-06 15:52:48.567 +0000",1557157968.567164,-2.914221,1.314150,-0.029443,-0.057220,-0.967247,0.247306,0.000000,0.000000,0.000000,-1,1.316698,0.385335,-0.612709,0.340163,0.781944,-0.075583
"2019-05-06 15:52:48.587 +0000",1557157968.587152,-2.979081,1.299201,0.049326,-0.043405,-0.963344,0.264734,0.000000,0.000000,0.000000,-1,0.651216,0.452089,-0.896098,0.496271,0.549159,0.072119
