timestamp,timeIntervalSince1970,attitude.roll,attitude.pitch,attitude.yaw,gravity.x,gravity.y,gravity.z,magneticField.x,magneticField.y,magneticField.z,magneticField.accuracy,rotationRate.x,rotationRate.y,rotationRate.z,userAcceleration.x,userAcceleration.y,userAcceleration.z
"2019-04-05 10:23:28.845 +0000",1554459808.845136,0.035614,1.054221,-0.014064,0.017586,-0.869516,-0.493592,0.000000,0.000000,0.000000,-1,-0.193030,0.528975,0.884902,0.012840,0.079843,-0.035140
"2019-04-05 10:23:28.867 +0000",1554459808.867443,0.008334,1.054234,0.033311,0.004116,-0.869522,-0.493876,0.000000,0.000000,0.000000,-1,0.037157,0.788556,1.169443,-0.059811,0.098206,-0.137059
"2019-04-05 10:23:28.890 +0000",1554459808.889760,-0.017786,1.052577,0.098018,-0.008810,-0.868702,-0.495256,0.000000,0.000000,0.000000,-1,-0.190054,1.705313,1.587954,0.073095,0.068715,-0.136000
"2019-04-05 10:23:28.912 +0000",1554459808.912060,-0.039485,1.041678,0.177359,-0.019926,-0.863253,-0.504379,0.000000,0.000000,0.000000,-1,-0.586067,2.269720,1.889188,0.114439,0.082003,-0.127961
"2019-04-05 10:23:28.934 +0000",1554459808.934368,-0.063920,1.022748,0.263738,-0.033281,-0.853543,-0.519958,0.000000,0.000000,0.000000,-1,-0.794689,2.167174,2.115787,0.203569,0.148725,-0.098969
"2019-04-05 10:23:28.957 +0000",1554459808.956651,-0.096516,1.003576,0.356906,-0.051776,-0.843397,-0.534790,0.000000,0.000000,0.000000,-1,-0.540358,2.053854,2.368732,0.213123,0.176085,-0.028885
"2019-04-05 10:23:28.979 +0000",1554459808.978953,-0.135219,0.993099,0.457190,-0.073618,-0.837722,-0.541112,0.000000,0.000000,0.000000,-1,0.027183,2.012842,2.516964,0.149484,0.149169,-0.045528
"2019-04-05 10:23:29.001 +0000",1554459809.001259,-0.176419,0.987484,0.557912,-0.096667,-0.834643,-0.542242,0.000000,0.000000,0.000000,-1,0.108285,1.894450,2.431211,0.159472,0.144702,-0.116587
"2019-04-05 10:23:29.024 +0000",1554459809.023568,-0.204667,0.974494,0.646674,-0.114138,-0.827418,-0.549866,0.000000,0.000000,0.000000,-1,-0.312710,2.183654,2.189040,0.173967,0.179468,-0.174728
"2019-04-05 10:23:29.046 +0000",1554459809.045845,-0.215164,0.954829,0.721737,-0.123354,-0.816215,-0.564427,0.000000,0.000000,0.000000,-1,-0.442681,2.266470,1.987282,0.064104,0.190162,-0.152340
"2019-04-05 10:23:29.068 +0000",1554459809.068155,-0.222403,0.952930,0.785131,-0.127778,-0.815116,-0.565030,0.000000,0.000000,0.000000,-1,0.450560,2.028574,1.447660,-0.085067,0.078117,-0.028965
"2019-04-05 10:23:29.090 +0000",1554459809.090471,-0.209436,0.949474,0.829299,-0.121026,-0.813109,-0.569391,0.000000,0.000000,0.000000,-1,-0.200652,2.437521,1.020727,-0.098151,0.093779,-0.017294
"2019-04-05 10:23:29.113 +0000",1554459809.112775,-0.174143,0.934460,0.863028,-0.102963,-0.804278,-0.585265,0.000000,0.000000,0.000000,-1,-0.597733,2.999687,1.060226,-0.184543,-0.030988,0.035308
"2019-04-05 10:23:29.135 +0000",1554459809.135079,-0.138094,0.914286,0.904943,-0.084019,-0.792127,-0.604545,0.000000,0.000000,0.000000,-1,-0.868214,3.121671,1.459722,-0.291668,0.094343,0.149467
"2019-04-05 10:23:29.157 +0000",1554459809.157356,-0.115316,0.880869,0.961080,-0.073234,-0.771292,-0.632254,0.000000,0.000000,0.000000,-1,-1.462794,2.913598,1.797501,-0.238350,0.102957,0.092124
"2019-04-05 10:23:29.180 +0000",1554459809.179650,-0.090132,0.845007,1.012217,-0.059742,-0.747976,-0.661032,0.000000,0.000000,0.000000,-1,-1.364842,2.853550,1.527638,0.009556,0.030477,0.080496
"2019-04-05 10:23:29.202 +0000",1554459809.201971,-0.059059,0.819713,1.056801,-0.040280,-0.730950,-0.681241,0.000000,0.000000,0.000000,-1,-0.810792,2.919818,1.425563,0.253568,0.198113,0.144315
"2019-04-05 10:23:29.224 +0000",1554459809.224280,-0.030272,0.805049,1.109274,-0.020977,-0.720865,-0.692758,0.000000,0.000000,0.000000,-1,-0.465586,2.977949,1.787433,0.161373,0.144052,-0.023123
"2019-04-05 10:23:29.247 +0000",1554459809.246557,-0.012974,0.797559,1.169131,-0.009062,-0.715653,-0.698397,0.000000,0.000000,0.000000,-1,-0.262223,2.474149,1.911084,0.074507,0.109742,-0.137358
"2019-04-05 10:23:29.269 +0000",1554459809.268866,-0.011014,0.785348,1.231399,-0.007788,-0.707072,-0.707099,0.000000,0.000000,0.000000,-1,-0.801725,1.835760,1.985990,0.190283,0.163508,-0.043908
"2019-04-05 10:23:29.291 +0000",1554459809.291171,-0.010664,0.755373,1.283611,-0.007764,-0.685560,-0.727974,0.000000,0.000000,0.000000,-1,-1.554392,1.620330,1.392120,0.102475,0.117659,0.016045
"2019-04-05 10:23:29.313 +0000",1554459809.313475,0.010542,0.719887,1.311386,0.007926,-0.659299,-0.751839,0.000000,0.000000,0.000000,-1,-1.406104,1.700646,0.830746,0.113015,0.214124,0.284844
"2019-04-05 10:23:29.336 +0000",1554459809.335787,0.008898,0.713459,1.348149,0.006728,-0.654453,-0.756073,0.000000,0.000000,0.000000,-1,-0.042457,0.896115,1.316080,-0.067870,0.180851,0.298523
"2019-04-05 10:23:29.358 +0000",1554459809.358066,0.026148,0.714925,1.384504,0.019743,-0.655561,-0.754884,0.000000,0.000000,0.000000,-1,0.212696,2.609211,1.155840,-0.218550,0.148954,0.167497
"2019-04-05 10:23:29.380 +0000",1554459809.380374,0.095819,0.723423,1.395050,0.071711,-0.661954,-0.746106,0.000000,0.000000,0.000000,-1,0.600273,4.124011,0.281624,0.450582,-0.161028,-0.488513
"2019-04-05 10:23:29.403 +0000",1554459809.402687,0.222871,0.786756,1.398757,0.156080,-0.708066,-0.688681,0.000000,0.000000,0.000000,-1,3.818061,6.546278,0.587756,0.187365,0.112943,0.043509
"2019-04-05 10:23:29.425 +0000",1554459809.424990,0.333664,0.858709,1.394182,0.213998,-0.756999,-0.617379,0.000000,0.000000,0.000000,-1,2.178994,3.461498,0.884878,0.239127,-0.066624,-0.101997
"2019-04-05 10:23:29.447 +0000",1554459809.447312,0.378741,0.888117,1.409442,0.233266,-0.775885,-0.586165,0.000000,0.000000,0.000000,-1,0.883113,2.414675,0.718699,0.031352,-0.245752,-0.087679
"2019-04-05 10:23:29.470 +0000",1554459809.469577,0.432193,0.922231,1.400389,0.253012,-0.796951,-0.548501,0.000000,0.000000,0.000000,-1,1.883126,1.913886,0.260851,-0.432760,0.277329,-0.072654
"2019-04-05 10:23:29.492 +0000",1554459809.491885,0.477816,0.928125,1.444773,0.275600,-0.800497,-0.532211,0.000000,0.000000,0.000000,-1,-2.681200,6.108933,1.772337,0.159093,0.138983,-0.176361
"2019-04-05 10:23:29.514 +0000",1554459809.514189,0.537078,0.871892,1.506799,0.329170,-0.765548,-0.552796,0.000000,0.000000,0.000000,-1,-3.077467,3.287824,-0.188896,0.252129,-0.273530,-0.322860
"2019-04-05 10:23:29.536 +0000",1554459809.536499,0.585398,0.823767,1.554384,0.375424,-0.733710,-0.566326,0.000000,0.000000,0.000000,-1,-2.129592,4.179037,0.175761,0.188388,-0.292413,-0.455707
"2019-04-05 10:23:29.559 +0000",1554459809.558776,0.624109,0.809648,1.599734,0.403074,-0.724045,-0.559724,0.000000,0.000000,0.000000,-1,-0.709627,2.479396,1.088367,-0.012647,-0.046463,-0.842010
"2019-04-05 10:23:29.581 +0000",1554459809.581085,0.639311,0.831990,1.624587,0.401783,-0.739273,-0.540413,0.000000,0.000000,0.000000,-1,0.781165,1.043544,1.176184,0.088559,-0.342529,-0.190895
"2019-04-05 10:23:29.603 +0000",1554459809.603394,0.658982,0.855442,1.636354,0.401606,-0.754861,-0.518553,0.000000,0.000000,0.000000,-1,0.427017,1.507733,0.686861,-0.031642,-0.207114,-0.286012
"2019-04-05 10:23:29.626 +0000",1554459809.625706,0.695669,0.862267,1.645577,0.417044,-0.759320,-0.499507,0.000000,0.000000,0.000000,-1,-0.112225,2.257576,0.284241,0.252908,0.057950,-0.033055
"2019-04-05 10:23:29.648 +0000",1554459809.648007,0.750720,0.861814,1.652662,0.444132,-0.759025,-0.476055,0.000000,0.000000,0.000000,-1,-0.087868,2.885096,-0.000440,0.256506,0.126120,-0.057285
"2019-04-05 10:23:29.670 +0000",1554459809.670285,0.817022,0.859913,1.643974,0.475748,-0.757786,-0.446570,0.000000,0.000000,0.000000,-1,0.089096,2.565676,-0.229510,0.206397,0.175587,-0.135247
"2019-04-05 10:23:29.693 +0000",1554459809.692594,0.869505,0.855496,1.662366,0.501071,-0.754896,-0.423154,0.000000,0.000000,0.000000,-1,-0.625606,3.218340,0.343723,0.206891,0.155104,-0.094348
"2019-04-05 10:23:29.715 +0000",1554459809.714916,0.932051,0.857111,1.669555,0.525561,-0.755955,-0.390279,0.000000,0.000000,0.000000,-1,0.057955,2.878084,0.079079,0.101697,0.132709,-0.279551
"2019-04-05 10:23:29.737 +0000",1554459809.737210,0.996709,0.853642,1.671562,0.551879,-0.753679,-0.356928,0.000000,0.000000,0.000000,-1,-0.304146,3.151273,-0.175331,-0.040481,0.123430,-0.429495
"2019-04-05 10:23:29.760 +0000",1554459809.759519,1.061639,0.842837,1.680455,0.580952,-0.746534,-0.324318,0.000000,0.000000,0.000000,-1,-0.558134,3.060845,-0.309856,0.127910,0.088758,-0.357948
"2019-04-05 10:23:29.782 +0000",1554459809.781796,1.103677,0.834275,1.698960,0.599753,-0.740810,-0.302484,0.000000,0.000000,0.000000,-1,-0.699882,2.211252,0.139258,0.189202,0.062404,-0.085943
"2019-04-05 10:23:29.804 +0000",1554459809.804105,1.135970,0.836661,1.717558,0.607602,-0.742411,-0.282216,0.000000,0.000000,0.000000,-1,-0.264906,1.891494,0.431328,0.058429,0.116922,-0.114406
"2019-04-05 10:23:29.826 +0000",1554459809.826411,1.163478,0.846346,1.724688,0.608504,-0.748864,-0.262537,0.000000,0.000000,0.000000,-1,0.083757,1.315030,0.517230,0.039979,0.131081,-0.053823
"2019-04-05 10:23:29.849 +0000",1554459809.848716,1.184009,0.857265,1.729932,0.606156,-0.756055,-0.246890,0.000000,0.000000,0.000000,-1,-0.019232,1.065302,0.526846,-0.059938,-0.008608,-0.061414
"2019-04-05 10:23:29.871 +0000",1554459809.871028,1.211095,0.866881,1.736765,0.605788,-0.762314,-0.227814,0.000000,0.000000,0.000000,-1,0.003505,1.679056,0.408414,-0.056471,0.045395,-0.125870
"2019-04-05 10:23:29.893 +0000",1554459809.893306,1.249492,0.873444,1.740415,0.609326,-0.766545,-0.202807,0.000000,0.000000,0.000000,-1,0.013156,1.850806,0.285320,0.075305,0.113682,-0.133665
"2019-04-05 10:23:29.916 +0000",1554459809.915622,1.278290,0.878225,1.743682,0.611396,-0.769607,-0.184119,0.000000,0.000000,0.000000,-1,-0.108420,0.938704,0.154424,0.119805,0.070678,0.040381
"2019-04-05 10:23:29.938 +0000",1554459809.937909,1.285041,0.876833,1.750230,0.613653,-0.768717,-0.180289,0.000000,0.000000,0.000000,-1,-0.283276,0.485751,0.107508,0.043817,0.065180,-0.019327
"2019-04-05 10:23:29.960 +0000",1554459809.960230,1.291799,0.876243,1.762300,0.615293,-0.768340,-0.176262,0.000000,0.000000,0.000000,-1,-0.358630,0.903613,0.014447,0.073580,0.078917,-0.051307
"2019-04-05 10:23:29.983 +0000",1554459809.982507,1.308792,0.869206,1.769059,0.623407,-0.763817,-0.167178,0.000000,0.000000,0.000000,-1,-0.219799,0.915627,-0.393738,0.053336,0.146309,-0.107770
"2019-04-05 10:23:30.005 +0000",1554459810.004816,1.331373,0.855805,1.773371,0.636909,-0.755099,-0.155473,0.000000,0.000000,0.000000,-1,-0.316814,1.521251,-0.601364,0.102562,0.039080,0.058916
"2019-04-05 10:23:30.027 +0000",1554459810.027123,1.369633,0.841056,1.780019,0.653232,-0.745348,-0.133208,0.000000,0.000000,0.000000,-1,-0.376407,1.987736,-0.528616,0.139874,0.076326,0.082335
"2019-04-05 10:23:30.049 +0000",1554459810.049425,1.391797,0.830582,1.797798,0.663670,-0.738324,-0.120082,0.000000,0.000000,0.000000,-1,-0.683441,1.292056,-0.342694,0.118450,0.112638,0.044948
"2019-04-05 10:23:30.072 +0000",1554459810.071732,1.403225,0.824947,1.820227,0.669091,-0.734512,-0.113182,0.000000,0.000000,0.000000,-1,-0.768161,1.399477,0.088024,-0.028542,0.130645,-0.025475
"2019-04-05 10:23:30.094 +0000",1554459810.094015,1.422834,0.827654,1.850074,0.669212,-0.736346,-0.099747,0.000000,0.000000,0.000000,-1,-0.872385,2.059450,0.257038,-0.042076,0.127810,-0.099624
"2019-04-05 10:23:30.116 +0000",1554459810.116325,1.450890,0.832642,1.874416,0.668092,-0.739712,-0.080495,0.000000,0.000000,0.000000,-1,-0.610752,2.075003,0.433168,-0.047319,0.102932,-0.130855
"2019-04-05 10:23:30.139 +0000",1554459810.138620,1.478928,0.847184,1.897170,0.659304,-0.749419,-0.060740,0.000000,0.000000,0.000000,-1,-0.557762,1.817110,0.859745,-0.080309,0.127929,-0.017126
"2019-04-05 10:23:30.161 +0000",1554459810.160940,1.484311,0.868649,1.921926,0.643445,-0.763457,-0.055788,0.000000,0.000000,0.000000,-1,-0.802312,0.582777,1.079008,-0.130414,0.130934,0.024538
"2019-04-05 10:23:30.183 +0000",1554459810.183247,1.464060,0.906329,1.957958,0.613131,-0.787245,-0.065693,0.000000,0.000000,0.000000,-1,-0.426393,-0.001539,2.313732,-0.112200,0.170821,0.084080
"2019-04-05 10:23:30.206 +0000",1554459810.205526,1.448342,0.947381,1.950232,0.579440,-0.811889,-0.071312,0.000000,0.000000,0.000000,-1,0.390891,-1.155957,1.449748,-0.144747,0.069473,0.077507
"2019-04-05 10:23:30.228 +0000",1554459810.227832,1.453772,0.990443,1.941090,0.544569,-0.836269,-0.064020,0.000000,0.000000,0.000000,-1,0.707270,0.550711,1.847834,-0.084699,-0.002384,-0.007727
"2019-04-05 10:23:30.250 +0000",1554459810.250141,1.467575,1.021042,1.938437,0.519697,-0.852653,-0.053835,0.000000,0.000000,0.000000,-1,-0.394257,0.407524,1.204793,-0.273023,0.296348,-0.118727
"2019-04-05 10:23:30.272 +0000",1554459810.272448,1.436800,1.048642,1.986765,0.494277,-0.866747,-0.066630,0.000000,0.000000,0.000000,-1,-0.995142,0.483398,1.486705,0.358735,0.031557,0.155543
"2019-04-05 10:23:30.295 +0000",1554459810.294757,1.398528,1.086209,2.034584,0.458948,-0.884867,-0.079854,0.000000,0.000000,0.000000,-1,-0.645948,-0.070476,2.006596,0.342642,0.075129,0.139973
"2019-04-05 10:23:30.317 +0000",1554459810.317034,1.352470,1.131511,2.081057,0.415197,-0.905056,-0.092117,0.000000,0.000000,0.000000,-1,-0.569971,-0.213601,2.206385,0.304468,0.089473,0.096847
"2019-04-05 10:23:30.339 +0000",1554459810.339342,1.278298,1.172396,2.163320,0.371467,-0.921683,-0.111862,0.000000,0.000000,0.000000,-1,-1.214944,0.276414,2.065300,0.223381,-0.060983,0.096497
"2019-04-05 10:23:30.362 +0000",1554459810.361654,1.208242,1.198882,2.254269,0.339776,-0.931633,-0.128884,0.000000,0.000000,0.000000,-1,-0.628156,0.728916,1.313488,0.165732,0.099144,0.076211
"2019-04-05 10:23:30.384 +0000",1554459810.383959,1.216297,1.222570,2.256323,0.320014,-0.939979,-0.118449,0.000000,0.000000,0.000000,-1,0.756933,0.206154,0.857241,0.079064,0.022896,0.125498
"2019-04-05 10:23:30.406 +0000",1554459810.406267,1.256608,1.245016,2.206661,0.304381,-0.947401,-0.098909,0.000000,0.000000,0.000000,-1,1.055146,-0.320147,0.559349,-0.010085,0.045088,0.059649
"2019-04-05 10:23:30.429 +0000",1554459810.428543,1.306655,1.255250,2.148900,0.299572,-0.950627,-0.081023,0.000000,0.000000,0.000000,-1,0.768699,-0.197724,0.118988,-0.194165,-0.017284,-0.169069
"2019-04-05 10:23:30.451 +0000",1554459810.450852,1.322119,1.256501,2.127970,0.299637,-0.951014,-0.076088,0.000000,0.000000,0.000000,-1,0.105224,-0.199122,-0.170330,0.097290,-0.083516,-0.093804
"2019-04-05 10:23:30.473 +0000",1554459810.473159,1.338204,1.252283,2.100413,0.304723,-0.949702,-0.072183,0.000000,0.000000,0.000000,-1,0.430760,-0.568353,-0.253751,0.142177,-0.334096,0.101632
"2019-04-05 10:23:30.495 +0000",1554459810.495467,1.360973,1.246657,2.063670,0.311508,-0.947925,-0.066338,0.000000,0.000000,0.000000,-1,0.430352,-0.612996,-0.346395,0.263520,-0.470471,0.262032
"2019-04-05 10:23:30.518 +0000",1554459810.517775,1.263725,1.260477,2.131413,0.291079,-0.952236,-0.092302,0.000000,0.000000,0.000000,-1,-1.352428,-2.116525,1.050631,0.060377,-0.013035,-0.049529
"2019-04-05 10:23:30.540 +0000",1554459810.540054,1.141270,1.272704,2.213847,0.267019,-0.955899,-0.122307,0.000000,0.000000,0.000000,-1,0.037317,-1.366056,0.599210,0.054774,0.028454,-0.171196
"2019-04-05 10:23:30.562 +0000",1554459810.562363,1.198517,1.291838,2.147686,0.256493,-0.961343,-0.100157,0.000000,0.000000,0.000000,-1,1.419210,-0.602458,0.681103,0.437187,0.264047,0.677229
"2019-04-05 10:23:30.585 +0000",1554459810.584671,1.265000,1.320374,2.050072,0.236316,-0.968808,-0.074605,0.000000,0.000000,0.000000,-1,1.396529,-1.329115,0.778103,0.205288,0.047711,-0.308864
"2019-04-05 10:23:30.607 +0000",1554459810.606975,1.292668,1.335170,2.010678,0.224481,-0.972368,-0.064096,0.000000,0.000000,0.000000,-1,0.097563,0.030555,0.373466,0.086539,-0.006742,-0.385245
"2019-04-05 10:23:30.629 +0000",1554459810.629255,1.281294,1.337774,2.014518,0.221309,-0.972973,-0.065922,0.000000,0.000000,0.000000,-1,0.162433,-0.588079,0.082496,0.243687,0.088177,0.009312
"2019-04-05 10:23:30.652 +0000",1554459810.651562,1.294609,1.341987,1.994288,0.218222,-0.973937,-0.061851,0.000000,0.000000,0.000000,-1,0.213245,-0.167014,0.168099,0.042413,0.152297,0.315849
"2019-04-05 10:23:30.674 +0000",1554459810.673868,1.297857,1.347036,1.986134,0.213683,-0.975070,-0.059815,0.000000,0.000000,0.000000,-1,0.065193,-0.272838,0.176418,-0.136642,-0.014417,0.113877
"2019-04-05 10:23:30.696 +0000",1554459810.696178,1.254225,1.362924,2.028275,0.196123,-0.978472,-0.064248,0.000000,0.000000,0.000000,-1,-0.105615,0.133677,0.977848,0.040571,0.035784,-0.050361
"2019-04-05 10:23:30.718 +0000",1554459810.718486,1.236542,1.383431,2.048841,0.175962,-0.982498,-0.061109,0.000000,0.000000,0.000000,-1,0.259080,-0.001701,0.922141,0.071749,0.113907,0.084196
"2019-04-05 10:23:30.741 +0000",1554459810.740763,1.267861,1.407203,2.008068,0.155449,-0.986648,-0.048586,0.000000,0.000000,0.000000,-1,0.815547,-0.660839,0.919546,0.443627,0.325607,0.174105
"2019-04-05 10:23:30.763 +0000",1554459810.763071,1.316372,1.434901,1.942281,0.131116,-0.990780,-0.034098,0.000000,0.000000,0.000000,-1,0.652349,-0.693039,1.200124,0.202670,0.194119,-0.051961
"2019-04-05 10:23:30.785 +0000",1554459810.785380,1.338956,1.467307,1.908377,0.100540,-0.994650,-0.023736,0.000000,0.000000,0.000000,-1,0.515373,-0.387266,1.394597,0.166702,0.370687,-0.083030
"2019-04-05 10:23:30.808 +0000",1554459810.807674,1.403485,1.497858,1.839363,0.071856,-0.997341,-0.012136,0.000000,0.000000,0.000000,-1,0.504319,-0.050164,1.087668,0.275236,0.057690,0.135869
"2019-04-05 10:23:30.830 +0000",1554459810.829994,1.411612,1.515242,1.828049,0.054823,-0.998457,-0.008801,0.000000,0.000000,0.000000,-1,0.051140,-0.291608,0.732341,0.272676,-0.028856,0.096646
"2019-04-05 10:23:30.852 +0000",1554459810.852297,1.368930,1.533105,1.856347,0.036917,-0.999290,-0.007555,0.000000,0.000000,0.000000,-1,0.096276,-0.790728,0.811223,0.171488,0.087135,0.017199
"2019-04-05 10:23:30.875 +0000",1554459810.874580,1.241141,1.554960,1.963783,0.014983,-0.999875,-0.005126,0.000000,0.000000,0.000000,-1,0.155592,-1.202941,1.086319,-0.048582,0.105435,0.175307
"2019-04-05 10:23:30.897 +0000",1554459810.896888,-1.126347,1.557830,-2.001892,-0.011705,-0.999916,-0.005574,0.000000,0.000000,0.000000,-1,-0.256984,-2.933910,1.095305,0.213381,-0.088753,0.054387
"2019-04-05 10:23:30.919 +0000",1554459810.919196,-1.144051,1.534352,-2.042744,-0.033169,-0.999336,-0.015081,0.000000,0.000000,0.000000,-1,-0.469041,-2.025573,0.924640,0.165783,0.004066,-0.110758
"2019-04-05 10:23:30.942 +0000",1554459810.941503,-1.112388,1.513938,-2.111152,-0.050960,-0.998384,-0.025147,0.000000,0.000000,0.000000,-1,-0.610114,-1.728683,0.730901,0.134349,-0.127760,-0.040283
"2019-04-05 10:23:30.964 +0000",1554459810.963807,-0.974650,1.480412,-2.285830,-0.074692,-0.995918,-0.050678,0.000000,0.000000,0.000000,-1,-1.574422,-1.287524,1.034226,0.177598,-0.407280,-0.189297
"2019-04-05 10:23:30.986 +0000",1554459810.986090,-0.765093,1.443841,-2.507151,-0.087694,-0.991952,-0.091329,0.000000,0.000000,0.000000,-1,-1.923985,-0.025889,0.304604,0.107347,-0.370658,-0.104914
"2019-04-05 10:23:31.008 +0000",1554459811.008399,-0.599890,1.410399,-2.685978,-0.090165,-0.987164,-0.131825,0.000000,0.000000,0.000000,-1,-1.914678,-0.898148,-0.035001,0.293015,-0.719745,0.167316
"2019-04-05 10:23:31.031 +0000",1554459811.030711,-0.491783,1.369617,-2.816798,-0.094357,-0.979832,-0.176144,0.000000,0.000000,0.000000,-1,-2.186438,-0.720825,0.041463,-0.184100,-0.001690,0.098477
"2019-04-05 10:23:31.053 +0000",1554459811.053013,-0.391207,1.326311,-2.924896,-0.092297,-0.970262,-0.223769,0.000000,0.000000,0.000000,-1,-2.281292,-0.041767,-0.263576,-0.255450,-0.031233,0.192031
"2019-04-05 10:23:31.075 +0000",1554459811.075290,-0.331545,1.280607,-3.001218,-0.093138,-0.958190,-0.270551,0.000000,0.000000,0.000000,-1,-1.765363,-1.323397,0.048233,-0.012499,-0.042375,0.120023
"2019-04-05 10:23:31.098 +0000",1554459811.097589,-0.321732,1.253156,-3.045502,-0.098761,-0.949975,-0.296300,0.000000,0.000000,0.000000,-1,-1.337811,-1.180739,-0.327494,-0.129648,0.021264,0.267904
"2019-04-05 10:23:31.120 +0000",1554459811.119908,-0.293085,1.226854,-3.099609,-0.097420,-0.941433,-0.322822,0.000000,0.000000,0.000000,-1,-1.369224,-1.093519,-0.355573,0.134407,-0.136433,0.274742
"2019-04-05 10:23:31.142 +0000",1554459811.142215,-0.289168,1.199986,-3.137298,-0.103332,-0.932034,-0.347325,0.000000,0.000000,0.000000,-1,-1.290893,-1.513394,-0.147123,0.192626,-0.151813,-0.098430
"2019-04-05 10:23:31.165 +0000",1554459811.164523,-0.297475,1.173985,3.123919,-0.113280,-0.922298,-0.369505,0.000000,0.000000,0.000000,-1,-1.176864,-1.070930,0.057409,0.205474,-0.100438,0.047026
"2019-04-05 10:23:31.187 +0000",1554459811.186800,-0.301080,1.149314,3.110356,-0.121323,-0.912483,-0.390710,0.000000,0.000000,0.000000,-1,-1.099829,-0.543010,0.096175,-0.057052,0.020790,0.122965
"2019-04-05 10:23:31.209 +0000",1554459811.209108,-0.299380,1.126975,3.097982,-0.126640,-0.903118,-0.410294,0.000000,0.000000,0.000000,-1,-0.976901,-0.391745,0.071314,-0.030480,0.012050,0.109741
"2019-04-05 10:23:31.231 +0000",1554459811.231416,-0.299424,1.107822,3.088038,-0.131737,-0.894728,-0.426740,0.000000,0.000000,0.000000,-1,-0.816377,-0.418754,0.067901,0.020088,0.005492,0.117002
"2019-04-05 10:23:31.254 +0000",1554459811.253734,-0.301074,1.092756,3.081074,-0.136423,-0.887898,-0.439347,0.000000,0.000000,0.000000,-1,-0.608160,-0.309257,0.048410,0.080698,0.084828,0.111283
"2019-04-05 10:23:31.276 +0000",1554459811.276011,-0.299616,1.082322,3.074167,-0.138510,-0.883050,-0.448373,0.000000,0.000000,0.000000,-1,-0.422675,-0.126155,-0.021365,0.078375,0.106164,0.098351
"2019-04-05 10:23:31.298 +0000",1554459811.298309,-0.292119,1.076066,3.067447,-0.136732,-0.880097,-0.454680,0.000000,0.000000,0.000000,-1,-0.234574,0.177529,-0.084767,0.073790,0.124604,0.084303
"2019-04-05 10:23:31.321 +0000",1554459811.320614,-0.279602,1.075006,3.061422,-0.131288,-0.879593,-0.457253,0.000000,0.000000,0.000000,-1,0.020059,0.425966,-0.126560,0.054857,0.154709,0.097939
"2019-04-05 10:23:31.343 +0000",1554459811.342926,-0.263958,1.079432,3.055797,-0.123102,-0.881690,-0.455487,0.000000,0.000000,0.000000,-1,0.234347,0.499625,-0.189150,0.020105,0.177421,0.095303
"2019-04-05 10:23:31.365 +0000",1554459811.365233,-0.247995,1.088175,3.050715,-0.113919,-0.885781,-0.449904,0.000000,0.000000,0.000000,-1,0.417403,0.525444,-0.212871,-0.000965,0.187417,0.085173
"2019-04-05 10:23:31.388 +0000",1554459811.387589,-0.230922,1.100119,3.045562,-0.103793,-0.891261,-0.441453,0.000000,0.000000,0.000000,-1,0.531440,0.552435,-0.244075,0.076571,0.230434,0.013932
"2019-04-05 10:23:31.410 +0000",1554459811.409817,-0.214383,1.113696,3.037860,-0.093894,-0.897336,-0.431245,0.000000,0.000000,0.000000,-1,0.566186,0.348021,-0.301791,0.092735,0.228696,-0.028106
"2019-04-05 10:23:31.432 +0000",1554459811.432125,-0.198048,1.127190,3.028132,-0.084447,-0.903210,-0.420810,0.000000,0.000000,0.000000,-1,0.529821,0.356622,-0.300643,0.103017,0.180966,-0.080625
"2019-04-05 10:23:31.454 +0000",1554459811.454434,-0.184322,1.136605,3.018048,-0.077102,-0.907210,-0.413551,0.000000,0.000000,0.000000,-1,0.266328,0.039260,-0.266925,0.026931,0.104156,-0.130943
"2019-04-05 10:23:31.477 +0000",1554459811.476753,-0.156312,1.120762,2.984750,-0.067719,-0.900432,-0.429694,0.000000,0.000000,0.000000,-1,0.095096,-0.418657,-0.303928,0.029755,-0.019322,-0.145792
"2019-04-05 10:23:31.499 +0000",1554459811.499049,-0.153724,1.121798,2.969806,-0.066463,-0.900883,-0.428944,0.000000,0.000000,0.000000,-1,-0.077955,-0.476464,-0.282400,0.040020,-0.075283,-0.141139
"2019-04-05 10:23:31.521 +0000",1554459811.521327,-0.147391,1.117469,2.953766,-0.064318,-0.898995,-0.433211,0.000000,0.000000,0.000000,-1,-0.301073,-0.289548,-0.275471,-0.003599,-0.117515,-0.239396
"2019-04-05 10:23:31.544 +0000",1554459811.543648,-0.140409,1.114324,2.940501,-0.061687,-0.897613,-0.436447,0.000000,0.000000,0.000000,-1,-0.043630,-0.215392,-0.213992,0.109721,-0.051499,-0.250870
"2019-04-05 10:23:31.566 +0000",1554459811.565942,-0.141774,1.119388,2.933449,-0.061639,-0.899834,-0.431856,0.000000,0.000000,0.000000,-1,0.344123,-0.452342,-0.134809,0.038904,-0.026344,-0.147474
"2019-04-05 10:23:31.588 +0000",1554459811.588249,-0.153456,1.123024,2.935245,-0.066179,-0.901414,-0.427871,0.000000,0.000000,0.000000,-1,0.500334,-0.321307,0.021646,-0.037809,-0.048034,-0.149384
"2019-04-05 10:23:31.611 +0000",1554459811.610560,-0.151359,1.132940,2.936233,-0.063931,-0.905663,-0.419151,0.000000,0.000000,0.000000,-1,0.332068,0.198467,-0.110816,-0.087634,-0.121193,-0.021644
"2019-04-05 10:23:31.633 +0000",1554459811.632838,-0.148142,1.135967,2.927782,-0.062178,-0.906942,-0.416642,0.000000,0.000000,0.000000,-1,0.060333,-0.380200,-0.208760,-0.048494,-0.256175,0.051163
"2019-04-05 10:23:31.655 +0000",1554459811.655145,-0.132164,1.146393,2.916402,-0.054264,-0.911285,-0.408186,0.000000,0.000000,0.000000,-1,0.792259,0.885726,-0.264343,0.013538,-0.550919,0.248030
"2019-04-05 10:23:31.677 +0000",1554459811.677451,-0.104888,1.172262,2.922549,-0.040629,-0.921631,-0.385935,0.000000,0.000000,0.000000,-1,1.209479,1.536927,0.124547,-0.047323,-0.488830,0.259226
"2019-04-05 10:23:31.700 +0000",1554459811.699761,-0.095141,1.194876,2.936381,-0.034876,-0.930170,-0.365469,0.000000,0.000000,0.000000,-1,0.979026,0.747952,0.034689,-0.167074,0.388575,0.413885
"2019-04-05 10:23:31.722 +0000",1554459811.722070,-0.058663,1.223492,2.918225,-0.019955,-0.940294,-0.339779,0.000000,0.000000,0.000000,-1,1.414327,1.037159,-0.618975,-0.195132,0.461473,0.511364
"2019-04-05 10:23:31.744 +0000",1554459811.744347,0.004844,1.253398,2.871596,0.001512,-0.950051,-0.312092,0.000000,0.000000,0.000000,-1,1.283301,0.550964,-0.677983,0.026107,0.266609,0.335850
"2019-04-05 10:23:31.767 +0000",1554459811.766655,0.045474,1.281759,2.836766,0.012957,-0.958519,-0.284736,0.000000,0.000000,0.000000,-1,1.233485,0.479938,-0.270477,0.752027,-0.450173,0.378104
"2019-04-05 10:23:31.789 +0000",1554459811.788976,0.077411,1.306287,2.823963,0.020218,-0.965221,-0.260652,0.000000,0.000000,0.000000,-1,1.044312,1.111926,-0.011932,0.385361,-0.128697,0.355013
"2019-04-05 10:23:31.811 +0000",1554459811.811271,0.107684,1.328601,2.827377,0.025776,-0.970814,-0.238446,0.000000,0.000000,0.000000,-1,0.947816,1.716772,0.215879,-0.027562,0.126865,0.129589
"2019-04-05 10:23:31.834 +0000",1554459811.833577,0.130024,1.349421,2.844911,0.028469,-0.975596,-0.217718,0.000000,0.000000,0.000000,-1,0.882923,1.660509,0.306910,-0.192928,0.135005,0.147787
"2019-04-05 10:23:31.856 +0000",1554459811.855855,0.146796,1.369104,2.859721,0.029302,-0.979729,-0.198173,0.000000,0.000000,0.000000,-1,0.828377,1.291102,0.219606,-0.050191,0.003243,0.171927
"2019-04-05 10:23:31.878 +0000",1554459811.878164,0.167757,1.386701,2.862921,0.030565,-0.983102,-0.180487,0.000000,0.000000,0.000000,-1,0.737441,0.956090,0.123298,0.060148,0.002908,0.192420
"2019-04-05 10:23:31.900 +0000",1554459811.900473,0.194324,1.403521,2.854970,0.032151,-0.986042,-0.163363,0.000000,0.000000,0.000000,-1,0.751995,0.795807,0.027965,0.108108,-0.007397,0.189440
"2019-04-05 10:23:31.923 +0000",1554459811.922779,0.226877,1.421275,2.837514,0.033508,-0.988842,-0.145148,0.000000,0.000000,0.000000,-1,0.844831,0.537696,0.074955,0.259751,0.034802,0.150092
"2019-04-05 10:23:31.945 +0000",1554459811.945086,0.260398,1.440638,2.812596,0.033417,-0.991541,-0.125416,0.000000,0.000000,0.000000,-1,0.897501,0.350644,0.046555,0.243530,0.070368,0.091511
"2019-04-05 10:23:31.967 +0000",1554459811.967364,0.305227,1.460190,2.776640,0.033170,-0.993889,-0.105279,0.000000,0.000000,0.000000,-1,0.881367,0.467589,0.069081,0.190371,0.078637,0.078560
"2019-04-05 10:23:31.990 +0000",1554459811.989665,0.359497,1.478946,2.735072,0.032268,-0.995785,-0.085858,0.000000,0.000000,0.000000,-1,0.839001,0.637490,0.109733,0.113011,0.078228,0.038449
"2019-04-05 10:23:32.012 +0000",1554459812.011981,0.422157,1.497047,2.686440,0.030190,-0.997282,-0.067214,0.000000,0.000000,0.000000,-1,0.802859,0.638925,0.166769,0.083320,0.076261,0.012542
"2019-04-05 10:23:32.034 +0000",1554459812.034289,0.496957,1.515296,2.626284,0.026446,-0.998460,-0.048761,0.000000,0.000000,0.000000,-1,0.813179,0.704356,0.225739,0.071988,0.077043,0.005014
"2019-04-05 10:23:32.057 +0000",1554459812.057044,0.606161,1.533288,2.534005,0.021364,-0.999297,-0.030819,0.000000,0.000000,0.000000,-1,0.768271,0.761123,0.277318,0.031279,0.037886,-0.013905
"2019-04-05 10:23:32.079 +0000",1554459812.079340,0.789193,1.549686,2.366189,0.014983,-0.999777,-0.014870,0.000000,0.000000,0.000000,-1,0.670557,0.657934,0.325333,0.038178,0.005453,-0.111229
"2019-04-05 10:23:32.102 +0000",1554459812.101647,1.349942,1.563517,1.819173,0.007097,-0.999974,-0.001593,0.000000,0.000000,0.000000,-1,0.547786,0.654340,0.363769,0.054746,-0.009121,-0.116281
"2019-04-05 10:23:32.124 +0000",1554459812.123956,-2.984422,1.562578,-0.114661,-0.001285,-0.999966,0.008109,0.000000,0.000000,0.000000,-1,0.372163,0.640730,0.362574,0.104374,-0.004505,-0.121696
"2019-04-05 10:23:32.146 +0000",1554459812.146264,-2.612612,1.553974,-0.474866,-0.008489,-0.999858,0.014522,0.000000,0.000000,0.000000,-1,0.235002,0.450937,0.287287,0.171438,-0.029011,-0.175609
"2019-04-05 10:23:32.169 +0000",1554459812.168571,-2.478940,1.549269,-0.601441,-0.013243,-0.999768,0.016970,0.000000,0.000000,0.000000,-1,0.043657,0.246135,0.153804,0.211180,-0.077289,-0.147997
"2019-04-05 10:23:32.191 +0000",1554459812.190849,-2.338988,1.549068,-0.736972,-0.015626,-0.999764,0.015098,0.000000,0.000000,0.000000,-1,-0.163596,0.187997,0.093445,0.265031,-0.083610,-0.181479
"2019-04-05 10:23:32.213 +0000",1554459812.213159,-1.942578,1.550214,-1.130189,-0.019175,-0.999788,0.007477,0.000000,0.000000,0.000000,-1,-0.475469,0.077657,0.224547,0.301936,-0.213484,-0.171875
"2019-04-05 10:23:32.235 +0000",1554459812.235463,-1.213131,1.543173,-1.865755,-0.025870,-0.999619,-0.009669,0.000000,0.000000,0.000000,-1,-0.970944,-0.485605,0.317413,0.260871,-0.204422,-0.166555
"2019-04-05 10:23:32.258 +0000",1554459812.257772,-0.703384,1.518134,-2.396629,-0.034046,-0.998614,-0.040144,0.000000,0.000000,0.000000,-1,-1.664987,-1.168560,0.336824,0.200153,-0.186948,-0.112550
"2019-04-05 10:23:32.280 +0000",1554459812.280071,-0.470626,1.476452,-2.663619,-0.042717,-0.995553,-0.083964,0.000000,0.000000,0.000000,-1,-2.226282,-1.705367,0.279322,0.364204,-0.346626,0.009257
"2019-04-05 10:23:32.302 +0000",1554459812.302357,-0.380053,1.420545,-2.797665,-0.055529,-0.988733,-0.139005,0.000000,0.000000,0.000000,-1,-2.802826,-1.921546,0.427378,0.464632,-0.341345,0.099333
"2019-04-05 10:23:32.325 +0000",1554459812.324667,-0.322062,1.356724,-2.887553,-0.067243,-0.977174,-0.201518,0.000000,0.000000,0.000000,-1,-2.888531,-0.939714,0.161834,0.417615,-0.244796,0.304057
"2019-04-05 10:23:32.347 +0000",1554459812.346974,-0.260315,1.300682,-2.960905,-0.068681,-0.963740,-0.257851,0.000000,0.000000,0.000000,-1,-2.544100,-0.113928,-0.103382,0.144044,-0.079396,0.396279
"2019-04-05 10:23:32.369 +0000",1554459812.369282,-0.192038,1.248934,-3.024262,-0.060375,-0.948648,-0.310519,0.000000,0.000000,0.000000,-1,-2.321708,0.459442,-0.416030,-0.030155,-0.318228,0.285006
"2019-04-05 10:23:32.392 +0000",1554459812.391588,-0.138867,1.205207,-3.088851,-0.049486,-0.933913,-0.354058,0.000000,0.000000,0.000000,-1,-2.068089,-1.085441,-0.712343,-0.063765,-0.391679,0.389886
"2019-04-05 10:23:32.414 +0000",1554459812.413897,-0.142965,1.157261,-3.136627,-0.057255,-0.915706,-0.397750,0.000000,0.000000,0.000000,-1,-2.340941,-2.589726,-0.313299,-0.045910,-0.342015,0.443022
"2019-04-05 10:23:32.436 +0000",1554459812.436176,-0.173515,1.109417,3.125595,-0.076859,-0.895439,-0.438499,0.000000,0.000000,0.000000,-1,-2.019062,-1.799658,0.049507,0.013337,-0.292534,0.396583
"2019-04-05 10:23:32.458 +0000",1554459812.458483,-0.188377,1.068846,3.110609,-0.090100,-0.876646,-0.472625,0.000000,0.000000,0.000000,-1,-1.755584,-1.092605,-0.053418,0.166699,-0.174609,0.475326
"2019-04-05 10:23:32.481 +0000",1554459812.480790,-0.197655,1.035265,3.090462,-0.100207,-0.859997,-0.500363,0.000000,0.000000,0.000000,-1,-1.450225,-1.200094,-0.207401,0.179111,-0.102695,0.292050
"2019-04-05 10:23:32.503 +0000",1554459812.503085,-0.198824,1.007592,3.068297,-0.105454,-0.845549,-0.523381,0.000000,0.000000,0.000000,-1,-1.248254,-0.748815,-0.278310,0.070557,-0.021914,0.294743
"2019-04-05 10:23:32.525 +0000",1554459812.525401,-0.199897,0.983457,3.049187,-0.110037,-0.832418,-0.543113,0.000000,0.000000,0.000000,-1,-1.095026,-0.824782,-0.216783,0.028051,0.037389,0.362388
"2019-04-05 10:23:32.548 +0000",1554459812.547678,-0.209036,0.962725,3.034702,-0.118552,-0.820751,-0.558850,0.000000,0.000000,0.000000,-1,-0.901693,-1.002803,-0.146890,0.013876,0.058270,0.400250
"2019-04-05 10:23:32.570 +0000",1554459812.569991,-0.223472,0.948773,3.023401,-0.129132,-0.812701,-0.568192,0.000000,0.000000,0.000000,-1,-0.514280,-1.085176,-0.177007,0.060574,0.073565,0.435715
"2019-04-05 10:23:32.592 +0000",1554459812.592301,-0.237848,0.946435,3.012681,-0.137734,-0.811336,-0.568122,0.000000,0.000000,0.000000,-1,0.069873,-0.959887,-0.289517,0.093499,0.141338,0.449668
"2019-04-05 10:23:32.615 +0000",1554459812.614608,-0.246521,0.956700,3.003788,-0.140616,-0.817294,-0.558799,0.000000,0.000000,0.000000,-1,0.562828,-0.545388,-0.359975,0.080832,0.188251,0.429680
"2019-04-05 10:23:32.637 +0000",1554459812.636915,-0.249070,0.977613,2.998784,-0.137796,-0.829165,-0.541754,0.000000,0.000000,0.000000,-1,1.085007,-0.162486,-0.333377,0.037561,0.243060,0.363012
"2019-04-05 10:23:32.659 +0000",1554459812.659193,-0.249808,1.010940,3.001909,-0.131289,-0.847332,-0.514580,0.000000,0.000000,0.000000,-1,1.678776,0.214387,-0.283125,0.025774,0.309002,0.270699
"2019-04-05 10:23:32.682 +0000",1554459812.681500,-0.251673,1.053258,3.011695,-0.123203,-0.869040,-0.479157,0.000000,0.000000,0.000000,-1,1.975035,0.308165,-0.241652,0.035404,0.311834,0.161667
"2019-04-05 10:23:32.704 +0000",1554459812.703809,-0.253687,1.092307,3.021992,-0.115558,-0.887691,-0.445702,0.000000,0.000000,0.000000,-1,1.485974,0.304396,-0.208333,0.026554,0.283642,0.015236
"2019-04-05 10:23:32.726 +0000",1554459812.726104,-0.252350,1.112515,3.024730,-0.110460,-0.896814,-0.428395,0.000000,0.000000,0.000000,-1,0.547810,0.028707,-0.140539,0.164095,0.014261,-0.205333
"2019-04-05 10:23:32.748 +0000",1554459812.748425,-0.257150,1.112962,3.018827,-0.112413,-0.897012,-0.427472,0.000000,0.000000,0.000000,-1,-0.345790,-0.683947,-0.144520,0.159593,-0.041770,-0.160754
"2019-04-05 10:23:32.771 +0000",1554459812.770702,-0.250284,1.102175,2.999208,-0.111866,-0.892192,-0.437584,0.000000,0.000000,0.000000,-1,-0.595750,-0.257793,-0.300997,0.103794,-0.254186,-0.118233
"2019-04-05 10:23:32.793 +0000",1554459812.793011,-0.239104,1.091967,2.984199,-0.109118,-0.887535,-0.447633,0.000000,0.000000,0.000000,-1,-0.459334,-0.156032,-0.085987,0.108187,-0.478874,-0.359161
"2019-04-05 10:23:32.815 +0000",1554459812.815318,-0.245219,1.086120,2.979338,-0.113112,-0.884826,-0.451984,0.000000,0.000000,0.000000,-1,-0.143421,-0.678547,-0.042757,0.129423,-0.199082,-0.298199
"2019-04-05 10:23:32.838 +0000",1554459812.837609,-0.268110,1.087167,2.980305,-0.123182,-0.885313,-0.448382,0.000000,0.000000,0.000000,-1,0.126364,-0.975842,0.031949,0.085309,-0.057802,-0.161191
"2019-04-05 10:23:32.860 +0000",1554459812.859934,-0.285566,1.091458,2.987910,-0.129918,-0.887300,-0.442515,0.000000,0.000000,0.000000,-1,0.165751,-0.490983,0.073562,0.001515,-0.046065,-0.051366
"2019-04-05 10:23:32.882 +0000",1554459812.882213,-0.289889,1.090220,2.966025,-0.132144,-0.886728,-0.443002,0.000000,0.000000,0.000000,-1,-0.259218,-1.126481,-0.710127,-0.015866,-0.214346,0.060479
"2019-04-05 10:23:32.905 +0000",1554459812.904519,-0.253366,1.105760,2.930794,-0.112412,-0.893805,-0.434138,0.000000,0.000000,0.000000,-1,1.030034,1.146899,-0.837682,0.157486,-0.539529,0.255061
"2019-04-05 10:23:32.927 +0000",1554459812.926826,-0.221589,1.138654,2.928857,-0.092048,-0.908071,-0.408577,0.000000,0.000000,0.000000,-1,1.413067,1.040457,-0.092248,-0.088494,-0.577281,0.264931
"2019-04-05 10:23:32.949 +0000",1554459812.949121,-0.237286,1.161760,2.949816,-0.093492,-0.917505,-0.386581,0.000000,0.000000,0.000000,-1,0.969440,-0.100184,0.200530,0.038774,0.316156,0.430023
"2019-04-05 10:23:32.971 +0000",1554459812.971443,-0.236845,1.186705,2.959676,-0.087922,-0.927139,-0.364256,0.000000,0.000000,0.000000,-1,1.237395,0.873172,-0.387328,-0.048079,0.548141,0.659117
"2019-04-05 10:23:32.994 +0000",1554459812.993721,-0.189361,1.214212,2.936414,-0.065707,-0.937095,-0.342836,0.000000,0.000000,0.000000,-1,1.079637,1.070119,-0.657100,-0.024656,0.256034,0.384202
"2019-04-05 10:23:33.016 +0000",1554459813.016026,-0.152833,1.241309,2.919085,-0.049258,-0.946208,-0.319786,0.000000,0.000000,0.000000,-1,1.181218,0.975440,-0.338638,0.597659,-0.549550,0.312599
"2019-04-05 10:23:33.038 +0000",1554459813.038336,-0.121680,1.268346,2.917202,-0.036154,-0.954610,-0.295658,0.000000,0.000000,0.000000,-1,1.206139,1.405527,-0.143959,0.153326,-0.103587,0.277149
"2019-04-05 10:23:33.061 +0000",1554459813.060644,-0.094122,1.294810,2.916994,-0.025610,-0.962157,-0.271290,0.000000,0.000000,0.000000,-1,1.149548,1.126301,-0.132820,-0.051264,0.229033,0.134647
"2019-04-05 10:23:33.083 +0000",1554459813.082952,-0.068133,1.319424,2.913298,-0.016934,-0.968572,-0.248157,0.000000,0.000000,0.000000,-1,1.066609,0.876562,-0.128158,-0.043750,0.212987,0.119769
"2019-04-05 10:23:33.105 +0000",1554459813.105230,-0.048035,1.343684,2.906472,-0.010812,-0.974321,-0.224905,0.000000,0.000000,0.000000,-1,1.110211,0.462003,-0.131903,0.152856,-0.038451,0.203497
"2019-04-05 10:23:33.128 +0000",1554459813.127537,-0.027750,1.367670,2.898806,-0.005597,-0.979441,-0.201655,0.000000,0.000000,0.000000,-1,1.055285,0.660158,-0.100191,0.210386,-0.027121,0.198252
"2019-04-05 10:23:33.150 +0000",1554459813.149840,-0.010488,1.390803,2.895007,-0.001878,-0.983845,-0.179013,0.000000,0.000000,0.000000,-1,1.029153,0.538639,-0.028412,0.102204,0.049275,0.124066
"2019-04-05 10:23:33.172 +0000",1554459813.172136,0.007222,1.413448,2.888757,0.001132,-0.987646,-0.156695,0.000000,0.000000,0.000000,-1,1.015189,0.516347,-0.065437,0.112668,0.085257,0.065524
"2019-04-05 10:23:33.194 +0000",1554459813.194462,0.027854,1.435775,2.879890,0.003749,-0.990898,-0.134559,0.000000,0.000000,0.000000,-1,0.985304,0.549734,-0.017365,0.118550,0.091347,0.042503
"2019-04-05 10:23:33.217 +0000",1554459813.216739,0.037066,1.457545,2.884126,0.004188,-0.993594,-0.112932,0.000000,0.000000,0.000000,-1,0.974574,0.625251,0.107255,0.164086,0.048602,0.061311
"2019-04-05 10:23:33.239 +0000",1554459813.239037,0.017210,1.479811,2.918498,0.001564,-0.995864,-0.090846,0.000000,0.000000,0.000000,-1,1.007745,0.682344,0.234538,0.136742,0.067305,0.019237
"2019-04-05 10:23:33.261 +0000",1554459813.261355,-0.059186,1.503263,3.010957,-0.003992,-0.997720,-0.067363,0.000000,0.000000,0.000000,-1,1.059577,0.727005,0.325964,0.097131,0.077570,0.013759
"2019-04-05 10:23:33.284 +0000",1554459813.283662,-0.219901,1.523553,-3.094278,-0.010302,-0.998884,-0.046090,0.000000,0.000000,0.000000,-1,0.876474,0.760150,0.328072,0.066775,0.027922,-0.028099
"2019-04-05 10:23:33.306 +0000",1554459813.305971,-0.490723,1.536471,-2.805776,-0.016173,-0.999411,-0.030268,0.000000,0.000000,0.000000,-1,0.717070,0.827608,0.293909,0.029662,-0.004083,-0.108083
"2019-04-05 10:23:33.328 +0000",1554459813.328248,-0.903250,1.542538,-2.373745,-0.022189,-0.999601,-0.017491,0.000000,0.000000,0.000000,-1,0.505144,0.886582,0.298257,0.065218,0.014371,-0.072903
"2019-04-05 10:23:33.351 +0000",1554459813.350556,-1.262501,1.540315,-1.997822,-0.029039,-0.999535,-0.009248,0.000000,0.000000,0.000000,-1,0.320679,0.607369,0.326708,0.189959,-0.024451,-0.085784
"2019-04-05 10:23:33.373 +0000",1554459813.372865,-1.395338,1.534238,-1.854118,-0.035989,-0.999332,-0.006380,0.000000,0.000000,0.000000,-1,0.024458,0.439866,0.306979,0.230051,-0.059888,-0.097074
"2019-04-05 10:23:33.395 +0000",1554459813.395157,-1.316962,1.526409,-1.922866,-0.042951,-0.999015,-0.011143,0.000000,0.000000,0.000000,-1,-0.316670,0.413956,0.324430,0.224073,-0.061227,-0.092541
"2019-04-05 10:23:33.417 +0000",1554459813.417481,-1.137376,1.513901,-2.094820,-0.051606,-0.998382,-0.023882,0.000000,0.000000,0.000000,-1,-0.732653,0.314639,0.454150,0.273179,-0.144379,-0.073805
"2019-04-05 10:23:33.440 +0000",1554459813.439757,-0.870898,1.493588,-2.355285,-0.058998,-0.997021,-0.049683,0.000000,0.000000,0.000000,-1,-1.392171,0.231060,0.226350,0.277092,-0.203739,-0.002059
"2019-04-05 10:23:33.462 +0000",1554459813.462072,-0.615735,1.462093,-2.614209,-0.062659,-0.994098,-0.088566,0.000000,0.000000,0.000000,-1,-1.976040,-0.322965,0.172712,0.335868,-0.277555,0.032444
"2019-04-05 10:23:33.484 +0000",1554459813.484363,-0.451649,1.415237,-2.791026,-0.067621,-0.987925,-0.139398,0.000000,0.000000,0.000000,-1,-2.524491,-0.559518,0.138601,0.282296,-0.507009,0.103997
"2019-04-05 10:23:33.507 +0000",1554459813.506682,-0.352980,1.357093,-2.900931,-0.073315,-0.977252,-0.199004,0.000000,0.000000,0.000000,-1,-2.840065,-0.294847,0.221714,0.288403,-0.511380,0.182235
"2019-04-05 10:23:33.529 +0000",1554459813.528990,-0.291822,1.299425,-2.963275,-0.077118,-0.963404,-0.256720,0.000000,0.000000,0.000000,-1,-2.545088,0.170170,0.194142,0.275757,-0.358053,0.340232
"2019-04-05 10:23:33.551 +0000",1554459813.551267,-0.253130,1.242821,-2.997451,-0.080672,-0.946696,-0.311862,0.000000,0.000000,0.000000,-1,-2.555991,0.405338,0.249115,-0.161973,-0.159474,0.268619
"2019-04-05 10:23:33.574 +0000",1554459813.573575,-0.221670,1.190908,-3.021375,-0.081528,-0.928706,-0.361744,0.000000,0.000000,0.000000,-1,-2.219192,0.175004,0.135934,-0.087753,-0.331289,0.257191
"2019-04-05 10:23:33.596 +0000",1554459813.595883,-0.211938,1.144452,-3.046852,-0.086991,-0.910484,-0.404292,0.000000,0.000000,0.000000,-1,-2.107989,-1.038694,-0.074061,0.189469,-0.320687,0.435420
"2019-04-05 10:23:33.618 +0000",1554459813.618182,-0.218562,1.100451,-3.071578,-0.098264,-0.891412,-0.442413,0.000000,0.000000,0.000000,-1,-1.932388,-1.370553,-0.020178,0.155058,-0.189948,0.381866
"2019-04-05 10:23:33.640 +0000",1554459813.640498,-0.233028,1.060535,-3.087367,-0.112785,-0.872617,-0.475204,0.000000,0.000000,0.000000,-1,-1.764760,-1.104183,0.131356,0.043113,-0.176211,0.340759
"2019-04-05 10:23:33.663 +0000",1554459813.662776,-0.243309,1.023626,-3.098418,-0.125342,-0.854000,-0.504949,0.000000,0.000000,0.000000,-1,-1.621470,-0.791587,0.150973,0.061957,-0.137974,0.358785
"2019-04-05 10:23:33.685 +0000",1554459813.685085,-0.247299,0.990267,-3.108814,-0.134257,-0.836172,-0.531781,0.000000,0.000000,0.000000,-1,-1.422035,-0.420243,0.086975,-0.032323,-0.044458,0.300168
"2019-04-05 10:23:33.707 +0000",1554459813.707393,-0.245459,0.962633,-3.120422,-0.138841,-0.820699,-0.554235,0.000000,0.000000,0.000000,-1,-1.180318,-0.354107,-0.015233,0.018389,-0.017268,0.337957
"2019-04-05 10:23:33.730 +0000",1554459813.729699,-0.246566,0.940817,-3.132983,-0.143791,-0.808040,-0.571311,0.000000,0.000000,0.000000,-1,-0.932576,-0.629964,-0.120605,0.092186,0.043178,0.390479
"2019-04-05 10:23:33.752 +0000",1554459813.752008,-0.253756,0.926023,3.137561,-0.150880,-0.799236,-0.581770,0.000000,0.000000,0.000000,-1,-0.588056,-0.810936,-0.194524,0.120988,0.084026,0.381071
"2019-04-05 10:23:33.774 +0000",1554459813.774285,-0.262681,0.920011,3.125417,-0.157312,-0.795608,-0.585031,0.000000,0.000000,0.000000,-1,-0.198366,-0.870171,-0.285631,0.125543,0.111160,0.383142
"2019-04-05 10:23:33.797 +0000",1554459813.796592,-0.273873,0.923719,3.113655,-0.163050,-0.797849,-0.580389,0.000000,0.000000,0.000000,-1,0.232687,-0.920810,-0.385481,0.144022,0.149549,0.367696
"2019-04-05 10:23:33.819 +0000",1554459813.818900,-0.282653,0.937018,3.103586,-0.165165,-0.805796,-0.568695,0.000000,0.000000,0.000000,-1,0.665394,-0.629310,-0.444948,0.113453,0.203348,0.315674
"2019-04-05 10:23:33.841 +0000",1554459813.841208,-0.287222,0.961351,3.097568,-0.162159,-0.819966,-0.548963,0.000000,0.000000,0.000000,-1,1.223723,-0.314221,-0.462392,0.082752,0.242192,0.284971
"2019-04-05 10:23:33.864 +0000",1554459813.863516,-0.289523,0.998208,3.096738,-0.154684,-0.840502,-0.519259,0.000000,0.000000,0.000000,-1,1.759387,-0.009059,-0.499606,0.076162,0.237047,0.235568
"2019-04-05 10:23:33.886 +0000",1554459813.885794,-0.289625,1.041649,3.100034,-0.144167,-0.863238,-0.483773,0.000000,0.000000,0.000000,-1,1.902679,0.174388,-0.476464,0.034914,0.203371,0.096398
"2019-04-05 10:23:33.908 +0000",1554459813.908101,-0.286181,1.077988,3.102204,-0.133552,-0.881008,-0.453860,0.000000,0.000000,0.000000,-1,1.280998,0.283988,-0.378460,0.026939,0.150493,-0.025555
"2019-04-05 10:23:33.930 +0000",1554459813.930410,-0.273980,1.093468,3.096467,-0.124300,-0.888225,-0.442273,0.000000,0.000000,0.000000,-1,0.255457,0.307399,-0.256294,0.125948,0.003826,-0.109805
"2019-04-05 10:23:33.953 +0000",1554459813.952718,-0.266361,1.089728,3.088734,-0.121800,-0.886501,-0.446409,0.000000,0.000000,0.000000,-1,-0.404937,-0.174176,-0.016599,0.128224,-0.102482,-0.092379
"2019-04-05 10:23:33.975 +0000",1554459813.975026,-0.277215,1.077167,3.087812,-0.129675,-0.880619,-0.455735,0.000000,0.000000,0.000000,-1,-0.598750,-0.688780,0.219867,0.059286,-0.230663,-0.084396
"2019-04-05 10:23:33.997 +0000",1554459813.997303,-0.294839,1.063353,3.094117,-0.141208,-0.873990,-0.464976,0.000000,0.000000,0.000000,-1,-0.478934,-0.393065,0.330183,-0.037411,-0.373004,-0.289022
"2019-04-05 10:23:34.020 +0000",1554459814.019613,-0.309945,1.056031,3.102650,-0.150164,-0.870408,-0.468871,0.000000,0.000000,0.000000,-1,-0.183166,-0.432523,0.273595,-0.078886,-0.264998,-0.196702
"2019-04-05 10:23:34.042 +0000",1554459814.041919,-0.326050,1.050837,3.110322,-0.159141,-0.867839,-0.470668,0.000000,0.000000,0.000000,-1,-0.136945,-0.280243,0.201552,0.037361,-0.149571,-0.000889
"2019-04-05 10:23:34.064 +0000",1554459814.064221,-0.293646,1.071362,3.069678,-0.138623,-0.877854,-0.458428,0.000000,0.000000,0.000000,-1,-0.536554,-0.927774,-0.216071,0.067288,0.057846,0.109719
"2019-04-05 10:23:34.087 +0000",1554459814.086515,-0.284926,1.070182,3.041650,-0.134911,-0.877288,-0.460613,0.000000,0.000000,0.000000,-1,0.215949,-0.048523,-0.697440,0.185692,-0.511063,0.194500
"2019-04-05 10:23:34.109 +0000",1554459814.108813,-0.252919,1.096803,3.029418,-0.114216,-0.889753,-0.441922,0.000000,0.000000,0.000000,-1,1.375878,1.129286,-0.363769,0.020070,-0.703769,0.358349
"2019-04-05 10:23:34.131 +0000",1554459814.131127,-0.270169,1.118551,3.043580,-0.116629,-0.899468,-0.421135,0.000000,0.000000,0.000000,-1,0.803368,-1.014268,0.174800,0.081106,0.054620,0.336952
"2019-04-05 10:23:34.153 +0000",1554459814.153428,-0.300090,1.137932,3.059978,-0.123999,-0.907768,-0.400726,0.000000,0.000000,0.000000,-1,1.030898,-0.130984,-0.160445,0.156317,0.423256,0.599945
"2019-04-05 10:23:34.176 +0000",1554459814.175736,-0.283939,1.160800,3.051530,-0.111665,-0.917122,-0.382646,0.000000,0.000000,0.000000,-1,0.864147,0.423500,-0.542563,0.063570,0.342186,0.508973
"2019-04-05 10:23:34.198 +0000",1554459814.198022,-0.260098,1.183077,3.037924,-0.097232,-0.925774,-0.365361,0.000000,0.000000,0.000000,-1,0.934990,0.669969,-0.436794,0.453266,-0.551750,0.192433
"2019-04-05 10:23:34.220 +0000",1554459814.220322,-0.237626,1.205556,3.032026,-0.084077,-0.934038,-0.347137,0.000000,0.000000,0.000000,-1,0.933068,0.810671,-0.316470,0.115480,-0.206450,0.283233
"2019-04-05 10:23:34.243 +0000",1554459814.242630,-0.214701,1.228607,3.028646,-0.071491,-0.942022,-0.327846,0.000000,0.000000,0.000000,-1,1.054997,0.879811,-0.264929,-0.167660,0.095633,0.074901
"2019-04-05 10:23:34.265 +0000",1554459814.264938,-0.195189,1.253812,3.028505,-0.060455,-0.950180,-0.305784,0.000000,0.000000,0.000000,-1,1.117907,0.871414,-0.216447,-0.029450,0.116440,0.090711
"2019-04-05 10:23:34.287 +0000",1554459814.287245,-0.174943,1.279133,3.026292,-0.050048,-0.957767,-0.283157,0.000000,0.000000,0.000000,-1,1.107596,0.687974,-0.253279,0.097732,0.028217,0.119659
"2019-04-05 10:23:34.310 +0000",1554459814.309539,-0.163748,1.303687,3.022767,-0.043027,-0.964538,-0.260413,0.000000,0.000000,0.000000,-1,1.052234,0.191128,-0.211677,0.206541,0.035552,0.167518
"2019-04-05 10:23:34.332 +0000",1554459814.331831,-0.159668,1.326915,3.022136,-0.038392,-0.970408,-0.238400,0.000000,0.000000,0.000000,-1,1.006012,0.171619,-0.161902,0.186295,0.027079,0.171993
"2019-04-05 10:23:34.354 +0000",1554459814.354150,-0.154931,1.348305,3.022323,-0.034051,-0.975351,-0.218017,0.000000,0.000000,0.000000,-1,0.913341,0.223354,-0.133868,0.111367,0.068963,0.119674
"2019-04-05 10:23:34.376 +0000",1554459814.376447,-0.151610,1.367664,3.023685,-0.030468,-0.979439,-0.199424,0.000000,0.000000,0.000000,-1,0.844443,0.208660,-0.108956,0.111233,0.066735,0.073569
"2019-04-05 10:23:34.399 +0000",1554459814.398755,-0.152564,1.387173,3.028736,-0.027749,-0.983189,-0.180472,0.000000,0.000000,0.000000,-1,0.889702,0.179271,-0.078903,0.100610,0.045383,0.062003
"2019-04-05 10:23:34.421 +0000",1554459814.421042,-0.159643,1.407571,3.040678,-0.025832,-0.986708,-0.160435,0.000000,0.000000,0.000000,-1,0.938875,0.211496,-0.022103,0.085799,0.033751,0.055699
"2019-04-05 10:23:34.443 +0000",1554459814.443341,-0.167628,1.425423,3.056043,-0.024169,-0.989452,-0.142831,0.000000,0.000000,0.000000,-1,0.710778,0.441473,-0.013077,0.082412,0.035396,0.018731
"2019-04-05 10:23:34.466 +0000",1554459814.465647,-0.181949,1.437424,3.079811,-0.024062,-0.991119,-0.130782,0.000000,0.000000,0.000000,-1,0.474064,0.322464,0.094564,0.088042,0.014770,-0.041139
"2019-04-05 10:23:34.488 +0000",1554459814.487956,-0.086155,1.436565,2.988597,-0.011516,-0.991004,-0.133332,0.000000,0.000000,0.000000,-1,0.304729,0.077853,0.157338,0.075191,-0.003273,-0.056869
"2019-04-05 10:23:34.510 +0000",1554459814.510260,-0.126496,1.440613,3.031346,-0.016377,-0.991538,-0.128779,0.000000,0.000000,0.000000,-1,0.153413,0.100352,0.266241,0.131825,0.052283,0.055079
"2019-04-05 10:23:34.533 +0000",1554459814.532573,0.054145,1.453094,2.851701,0.006355,-0.993081,-0.117259,0.000000,0.000000,0.000000,-1,-0.026256,-0.102835,0.210694,0.149819,-0.000907,0.056025
"2019-04-05 10:23:34.555 +0000",1554459814.554850,0.017008,1.449266,2.889429,0.002062,-0.992624,-0.121214,0.000000,0.000000,0.000000,-1,-0.254586,0.032260,0.178384,0.089491,-0.001959,0.003660
"2019-04-05 10:23:34.577 +0000",1554459814.577175,0.050314,1.443322,2.857326,0.006394,-0.991886,-0.126969,0.000000,0.000000,0.000000,-1,-0.564262,0.026122,0.209257,0.093490,-0.066570,0.036682
"2019-04-05 10:23:34.599 +0000",1554459814.599465,-0.005930,1.421464,2.913401,-0.000882,-0.988871,-0.148775,0.000000,0.000000,0.000000,-1,-1.304866,-0.133330,0.411322,0.083020,-0.098150,0.075625
"2019-04-05 10:23:34.622 +0000",1554459814.621772,-0.062958,1.377345,2.963612,-0.012095,-0.981347,-0.191866,0.000000,0.000000,0.000000,-1,-2.366172,-0.468286,0.436171,0.050395,-0.145744,0.090670
"2019-04-05 10:23:34.644 +0000",1554459814.644059,-0.102084,1.310896,2.984709,-0.026189,-0.966416,-0.255647,0.000000,0.000000,0.000000,-1,-3.279454,-1.092068,0.512027,0.184254,-0.106903,0.186494
"2019-04-05 10:23:34.666 +0000",1554459814.666359,-0.149275,1.228466,3.002305,-0.049923,-0.941975,-0.331950,0.000000,0.000000,0.000000,-1,-3.733763,-1.366671,0.808279,0.253414,-0.300243,0.337886
"2019-04-05 10:23:34.689 +0000",1554459814.688667,-0.195010,1.142903,3.027157,-0.080409,-0.909842,-0.407090,0.000000,0.000000,0.000000,-1,-3.648702,-0.746114,1.261807,0.156931,-0.467477,0.446900
"2019-04-05 10:23:34.711 +0000",1554459814.710973,-0.231773,1.063565,3.070379,-0.111581,-0.874093,-0.472771,0.000000,0.000000,0.000000,-1,-3.016075,0.547767,1.766657,-0.225578,-0.326744,0.154396
"2019-04-05 10:23:34.733 +0000",1554459814.733275,-0.245548,0.998490,3.109644,-0.131650,-0.840654,-0.525327,0.000000,0.000000,0.000000,-1,-2.408092,1.003802,1.290224,-0.168948,-0.376524,0.170667
"2019-04-05 10:23:34.756 +0000",1554459814.755592,-0.223347,0.950339,3.110178,-0.128779,-0.813613,-0.566966,0.000000,0.000000,0.000000,-1,-1.951609,0.809829,0.067727,-0.069235,-0.382035,0.245250
"2019-04-05 10:23:34.778 +0000",1554459814.777868,-0.202584,0.912977,3.080736,-0.123013,-0.791327,-0.598890,0.000000,0.000000,0.000000,-1,-1.747111,-0.727848,-0.587187,0.212933,-0.440881,0.340390
"2019-04-05 10:23:34.800 +0000",1554459814.800175,-0.210512,0.878614,3.046836,-0.133362,-0.769855,-0.624129,0.000000,0.000000,0.000000,-1,-1.652621,-1.905099,-0.595305,0.247742,-0.308117,0.186721
"2019-04-05 10:23:34.822 +0000",1554459814.822485,-0.234905,0.847639,3.018805,-0.154024,-0.749720,-0.643581,0.000000,0.000000,0.000000,-1,-1.455069,-1.986795,-0.429503,0.222994,-0.230519,0.223155
"2019-04-05 10:23:34.845 +0000",1554459814.844792,-0.254718,0.821142,2.996662,-0.171691,-0.731925,-0.659400,0.000000,0.000000,0.000000,-1,-1.217157,-1.378596,-0.325632,0.232680,-0.075800,0.322181
"2019-04-05 10:23:34.867 +0000",1554459814.867077,-0.264461,0.800802,2.979571,-0.181961,-0.717915,-0.671929,0.000000,0.000000,0.000000,-1,-0.888989,-0.787624,-0.232735,0.122864,0.136875,0.340142
"2019-04-05 10:23:34.889 +0000",1554459814.889378,-0.267988,0.787604,2.969692,-0.186823,-0.708665,-0.680361,0.000000,0.000000,0.000000,-1,-0.496696,-0.293652,-0.091787,0.066462,0.192826,0.332674
"2019-04-05 10:23:34.912 +0000",1554459814.911684,-0.267103,0.783090,2.967340,-0.187063,-0.705473,-0.683605,0.000000,0.000000,0.000000,-1,-0.038101,0.117866,0.025089,-0.034525,0.177992,0.348324
"2019-04-05 10:23:34.934 +0000",1554459814.933993,-0.266337,0.786951,2.972727,-0.185821,-0.708204,-0.681115,0.000000,0.000000,0.000000,-1,0.345131,0.201016,0.172140,-0.047303,0.164502,0.369409
"2019-04-05 10:23:34.956 +0000",1554459814.956302,-0.269117,0.798115,2.984316,-0.185600,-0.716042,-0.672932,0.000000,0.000000,0.000000,-1,0.725562,0.347815,0.236748,0.044242,0.177879,0.332417
"2019-04-05 10:23:34.979 +0000",1554459814.978609,-0.265334,0.816839,3.000770,-0.179505,-0.728985,-0.660574,0.000000,0.000000,0.000000,-1,1.057348,0.917753,0.297580,0.039903,0.246243,0.353689
"2019-04-05 10:23:35.001 +0000",1554459815.000911,-0.251816,0.840706,3.020305,-0.166176,-0.745114,-0.645903,0.000000,0.000000,0.000000,-1,1.250799,1.396321,0.285971,0.006524,0.275372,0.353758
"2019-04-05 10:23:35.023 +0000",1554459815.023188,-0.236604,0.868006,3.037532,-0.151506,-0.763041,-0.628342,0.000000,0.000000,0.000000,-1,1.337696,1.051279,0.121598,0.008684,0.249827,0.234726
"2019-04-05 10:23:35.046 +0000",1554459815.045503,-0.230805,0.897757,3.046286,-0.142602,-0.781931,-0.606835,0.000000,0.000000,0.000000,-1,1.353559,0.305917,-0.169508,0.058694,0.226862,0.124932
"2019-04-05 10:23:35.068 +0000",1554459815.067811,-0.226258,0.928539,3.045588,-0.134376,-0.800745,-0.583738,0.000000,0.000000,0.000000,-1,1.331159,0.181952,-0.412804,0.052070,0.187129,0.063840
"2019-04-05 10:23:35.090 +0000",1554459815.090114,-0.214370,0.959841,3.039013,-0.122034,-0.819100,-0.560520,0.000000,0.000000,0.000000,-1,1.320903,0.363684,-0.497538,0.090280,0.105035,0.103778
"2019-04-05 10:23:35.112 +0000",1554459815.112395,-0.196191,0.989217,3.028923,-0.107086,-0.835596,-0.538806,0.000000,0.000000,0.000000,-1,1.182907,0.546783,-0.532717,0.107743,0.103663,0.156222
"2019-04-05 10:23:35.135 +0000",1554459815.134702,-0.166438,1.015531,3.014792,-0.087336,-0.849761,-0.519884,0.000000,0.000000,0.000000,-1,1.055119,0.894784,-0.553228,0.101603,0.154189,0.210207
"2019-04-05 10:23:35.157 +0000",1554459815.157012,-0.133773,1.040980,2.999329,-0.067404,-0.862900,-0.500860,0.000000,0.000000,0.000000,-1,1.115481,0.811358,-0.501599,0.102545,0.174973,0.179678
"2019-04-05 10:23:35.179 +0000",1554459815.179320,-0.107290,1.071178,2.987248,-0.051303,-0.877765,-0.476336,0.000000,0.000000,0.000000,-1,1.463307,0.621308,-0.378190,0.154407,0.212482,0.131945
"2019-04-05 10:23:35.202 +0000",1554459815.201628,-0.094616,1.109458,2.979900,-0.042055,-0.895458,-0.443155,0.000000,0.000000,0.000000,-1,1.769249,0.055821,-0.312253,0.120394,0.194728,0.076060
"2019-04-05 10:23:35.224 +0000",1554459815.223903,-0.084583,1.147475,2.966406,-0.034704,-0.911729,-0.409323,0.000000,0.000000,0.000000,-1,1.581582,-0.054400,-0.482550,0.050497,0.162294,0.044256
"2019-04-05 10:23:35.246 +0000",1554459815.246213,-0.055591,1.178774,2.940625,-0.021228,-0.924138,-0.381468,0.000000,0.000000,0.000000,-1,1.220275,0.368294,-0.567092,-0.092343,0.061437,0.024275
"2019-04-05 10:23:35.269 +0000",1554459815.268521,-0.026626,1.200815,2.913851,-0.009627,-0.932334,-0.361470,0.000000,0.000000,0.000000,-1,0.851820,-0.029868,-0.421053,-0.128984,-0.084237,0.028844
"2019-04-05 10:23:35.291 +0000",1554459815.290829,-0.024388,1.215955,2.897123,-0.008472,-0.937702,-0.347339,0.000000,0.000000,0.000000,-1,0.536074,-1.031596,-0.166669,-0.128689,-0.245877,0.002978
"2019-04-05 10:23:35.313 +0000",1554459815.313134,-0.047929,1.223949,2.900557,-0.016286,-0.940449,-0.339545,0.000000,0.000000,0.000000,-1,0.334655,-0.540707,0.188644,-0.011118,-0.192486,-0.007669
"2019-04-05 10:23:35.335 +0000",1554459815.335415,-0.090349,1.232727,2.922182,-0.029925,-0.943397,-0.330314,0.000000,0.000000,0.000000,-1,0.264780,-1.710694,0.167986,0.068225,-0.116754,-0.036706
"2019-04-05 10:23:35.358 +0000",1554459815.357722,-0.124223,1.228073,2.915505,-0.041638,-0.941843,-0.333463,0.000000,0.000000,0.000000,-1,-0.537381,-1.243248,-0.066007,0.122144,-0.732260,0.273374
"2019-04-05 10:23:35.380 +0000",1554459815.380031,-0.107731,1.202211,2.899200,-0.038740,-0.932838,-0.358208,0.000000,0.000000,0.000000,-1,-1.554318,0.220848,-0.537199,-0.018419,-0.654290,0.322029
"2019-04-05 10:23:35.402 +0000",1554459815.402339,-0.082762,1.174780,2.872399,-0.031889,-0.922605,-0.384426,0.000000,0.000000,0.000000,-1,-1.126221,0.120484,0.184630,-0.108309,-0.388140,0.079738
"2019-04-05 10:23:35.425 +0000",1554459815.424646,-0.127097,1.149840,2.901325,-0.051796,-0.912699,-0.405337,0.000000,0.000000,0.000000,-1,-0.914859,-1.421671,0.599104,0.665841,-1.398001,-0.081251
"2019-04-05 10:23:35.447 +0000",1554459815.446940,-0.163033,1.141342,2.916765,-0.067583,-0.909193,-0.410854,0.000000,0.000000,0.000000,-1,-0.042701,-0.244399,0.188333,0.649446,-0.317812,0.043147
"2019-04-05 10:23:35.469 +0000",1554459815.469248,-0.135804,1.143046,2.914237,-0.056162,-0.909901,-0.411006,0.000000,0.000000,0.000000,-1,0.130063,1.604309,-0.205128,-0.233847,0.453373,0.162974
"2019-04-05 10:23:35.492 +0000",1554459815.491539,-0.102866,1.152673,2.900919,-0.041695,-0.913853,-0.403900,0.000000,0.000000,0.000000,-1,0.546281,0.158589,-0.324854,-0.047508,0.350742,0.037887
"2019-04-05 10:23:35.514 +0000",1554459815.513848,-0.108040,1.165814,2.889046,-0.042485,-0.919110,-0.391705,0.000000,0.000000,0.000000,-1,0.534647,-0.761301,-0.254666,0.178121,-0.032154,0.096554
"2019-04-05 10:23:35.536 +0000",1554459815.536140,-0.108851,1.173545,2.876387,-0.042030,-0.922128,-0.384595,0.000000,0.000000,0.000000,-1,0.141124,-0.521419,-0.211064,-0.118264,-0.423438,0.255888
"2019-04-05 10:23:35.558 +0000",1554459815.558433,-0.118375,1.172254,2.868619,-0.045831,-0.921628,-0.385359,0.000000,0.000000,0.000000,-1,-0.145884,-0.925774,-0.084784,0.257196,0.023251,0.058013
"2019-04-05 10:23:35.581 +0000",1554459815.580740,-0.143521,1.169734,2.867739,-0.055838,-0.920647,-0.386383,0.000000,0.000000,0.000000,-1,-0.057719,-1.289284,0.064864,0.402869,0.017967,0.055069
"2019-04-05 10:23:35.603 +0000",1554459815.603059,-0.187904,1.167983,2.884779,-0.073227,-0.919962,-0.385108,0.000000,0.000000,0.000000,-1,-0.099785,-1.180610,0.496830,0.051987,0.159509,0.060752
"2019-04-05 10:23:35.625 +0000",1554459815.625356,-0.235978,1.161795,2.922236,-0.092978,-0.917518,-0.386672,0.000000,0.000000,0.000000,-1,-0.032710,-0.093308,0.767569,-0.144067,0.336097,-0.025636
"2019-04-05 10:23:35.648 +0000",1554459815.647663,-0.256194,1.156412,2.958781,-0.102026,-0.915364,-0.389485,0.000000,0.000000,0.000000,-1,-0.187040,0.779428,0.609651,-0.206309,0.353536,-0.132457
"2019-04-05 10:23:35.670 +0000",1554459815.669942,-0.265262,1.145619,2.974555,-0.108137,-0.910966,-0.398055,0.000000,0.000000,0.000000,-1,-0.507723,-0.256566,0.273839,-0.000673,0.339295,-0.009187
"2019-04-05 10:23:35.692 +0000",1554459815.692250,-0.276244,1.132216,2.971525,-0.115822,-0.905355,-0.408555,0.000000,0.000000,0.000000,-1,-0.615628,-0.654911,0.025499,0.323449,-0.003962,0.096650
"2019-04-05 10:23:35.715 +0000",1554459815.714558,-0.281122,1.117286,2.962848,-0.121550,-0.898915,-0.420925,0.000000,0.000000,0.000000,-1,-0.700592,-0.448101,0.072008,0.290419,-0.127910,0.089672
"2019-04-05 10:23:35.737 +0000",1554459815.736866,-0.291411,1.101892,2.967330,-0.129835,-0.892064,-0.432857,0.000000,0.000000,0.000000,-1,-0.562333,-0.201946,0.407310,0.126509,0.057835,0.059276
"2019-04-05 10:23:35.759 +0000",1554459815.759153,-0.317730,1.088705,2.991880,-0.144844,-0.886027,-0.440427,0.000000,0.000000,0.000000,-1,-0.371266,-0.160954,0.807722,0.173531,0.236293,0.058271
"2019-04-05 10:23:35.781 +0000",1554459815.781452,-0.347408,1.071667,3.031222,-0.162966,-0.878000,-0.450065,0.000000,0.000000,0.000000,-1,-0.587539,0.518209,1.179966,0.156374,0.238275,0.059059
"2019-04-05 10:23:35.804 +0000",1554459815.803759,-0.364792,1.041688,3.071002,-0.180077,-0.863258,-0.471549,0.000000,0.000000,0.000000,-1,-1.187710,0.743553,1.304244,0.130058,0.233604,0.188865
"2019-04-05 10:23:35.826 +0000",1554459815.826069,-0.375132,0.991625,3.086521,-0.200539,-0.836917,-0.509269,0.000000,0.000000,0.000000,-1,-2.474095,-0.354179,1.014466,0.070062,0.078356,0.174567
"2019-04-05 10:23:35.848 +0000",1554459815.848376,-0.384565,0.921270,3.081650,-0.226898,-0.796370,-0.560635,0.000000,0.000000,0.000000,-1,-3.218732,-0.649119,1.173074,0.064651,-0.587510,0.171826
"2019-04-05 10:23:35.871 +0000",1554459815.870682,-0.401614,0.840207,3.082584,-0.260854,-0.744781,-0.614212,0.000000,0.000000,0.000000,-1,-3.222308,-0.648985,1.526625,0.241674,-0.971939,0.351867
"2019-04-05 10:23:35.893 +0000",1554459815.892961,-0.402770,0.777894,3.089155,-0.279236,-0.701780,-0.655387,0.000000,0.000000,0.000000,-1,-2.007778,0.729946,1.062123,0.142075,-0.795519,0.243567
"2019-04-05 10:23:35.915 +0000",1554459815.915267,-0.381898,0.741468,3.093871,-0.274845,-0.675372,-0.684349,0.000000,0.000000,0.000000,-1,-1.187836,1.123350,0.590058,-0.090740,-0.724851,-0.031227
"2019-04-05 10:23:35.938 +0000",1554459815.937575,-0.358534,0.719351,3.091121,-0.263960,-0.658897,-0.704400,0.000000,0.000000,0.000000,-1,-0.794668,0.849980,0.157223,-0.462190,-0.682335,-0.049277
"2019-04-05 10:23:35.960 +0000",1554459815.959884,-0.341436,0.709356,3.085564,-0.254071,-0.651345,-0.714981,0.000000,0.000000,0.000000,-1,-0.335944,0.392547,-0.163542,-0.140186,-0.490455,0.175491
"2019-04-05 10:23:35.982 +0000",1554459815.982190,-0.336227,0.710326,3.073218,-0.250134,-0.652081,-0.715698,0.000000,0.000000,0.000000,-1,0.070940,-0.386159,-0.531098,-0.082782,-0.060581,0.099670
"2019-04-05 10:23:36.004 +0000",1554459816.004470,-0.339199,0.720111,3.061304,-0.250125,-0.659468,-0.708900,0.000000,0.000000,0.000000,-1,0.389686,-0.449817,-0.485737,0.104740,-0.267656,0.208015
"2019-04-05 10:23:36.027 +0000",1554459816.026777,-0.338316,0.736832,3.055857,-0.245804,-0.671945,-0.698620,0.000000,0.000000,0.000000,-1,0.830704,0.132559,-0.401399,0.217942,-0.171362,0.301510
"2019-04-05 10:23:36.049 +0000",1554459816.049077,-0.327641,0.764132,3.055800,-0.232342,-0.691911,-0.683576,0.000000,0.000000,0.000000,-1,1.337826,0.662973,-0.400928,0.266552,0.357133,0.432279
"2019-04-05 10:23:36.071 +0000",1554459816.071401,-0.312444,0.800083,3.059587,-0.214139,-0.717414,-0.662919,0.000000,0.000000,0.000000,-1,1.694216,0.862427,-0.396343,0.073148,0.484611,0.367265
"2019-04-05 10:23:36.094 +0000",1554459816.093701,-0.295507,0.843303,3.066330,-0.193664,-0.746844,-0.636175,0.000000,0.000000,0.000000,-1,2.045656,1.065631,-0.375666,-0.029572,0.518527,0.303549
"2019-04-05 10:23:36.116 +0000",1554459816.115979,-0.277875,0.895030,3.076875,-0.171581,-0.780228,-0.601502,0.000000,0.000000,0.000000,-1,2.481071,1.156936,-0.352720,0.035397,0.523895,0.286698
"2019-04-05 10:23:36.138 +0000",1554459816.138288,-0.267595,0.955668,3.090810,-0.152583,-0.816699,-0.556525,0.000000,0.000000,0.000000,-1,2.839414,0.812488,-0.392928,0.017573,0.495105,0.236976
"2019-04-05 10:23:36.161 +0000",1554459816.160595,-0.263997,1.021095,3.103870,-0.136324,-0.852680,-0.504333,0.000000,0.000000,0.000000,-1,2.900319,0.584555,-0.491362,-0.044157,0.415730,0.176834
"2019-04-05 10:23:36.183 +0000",1554459816.182885,-0.259174,1.079272,3.110170,-0.120958,-0.881614,-0.456207,0.000000,0.000000,0.000000,-1,2.257508,0.337857,-0.593653,0.050813,0.154075,0.082459
"2019-04-05 10:23:36.205 +0000",1554459816.205193,-0.246952,1.119132,3.094402,-0.106693,-0.899722,-0.423222,0.000000,0.000000,0.000000,-1,1.356680,-0.359723,-0.834715,0.091114,0.097354,-0.007747
"2019-04-05 10:23:36.227 +0000",1554459816.227488,-0.233585,1.151121,3.066201,-0.094314,-0.913221,-0.396399,0.000000,0.000000,0.000000,-1,1.256018,-0.587495,-0.873674,0.257751,-0.159990,-0.050638
"2019-04-05 10:23:36.250 +0000",1554459816.249796,-0.211618,1.181605,3.034122,-0.079698,-0.925216,-0.370976,0.000000,0.000000,0.000000,-1,1.139976,-0.204634,-0.787803,0.263338,-0.353089,-0.049068
"2019-04-05 10:23:36.272 +0000",1554459816.272090,-0.199972,1.201116,3.018655,-0.071773,-0.932443,-0.354117,0.000000,0.000000,0.000000,-1,0.579343,-0.024181,-0.187983,0.013133,-0.148581,-0.067255
"2019-04-05 10:23:36.294 +0000",1554459816.294412,-0.227117,1.202149,3.033209,-0.081141,-0.932815,-0.351100,0.000000,0.000000,0.000000,-1,-0.231848,-1.054416,0.384020,-0.084631,-0.067139,-0.054326
"2019-04-05 10:23:36.317 +0000",1554459816.316719,-0.276614,1.187099,3.049541,-0.102235,-0.927287,-0.360121,0.000000,0.000000,0.000000,-1,-0.784922,-1.658176,0.508235,-0.139327,-0.307744,-0.000566
"2019-04-05 10:23:36.339 +0000",1554459816.338997,-0.311586,1.174866,3.065443,-0.118233,-0.922638,-0.367096,0.000000,0.000000,0.000000,-1,-0.029699,-0.047298,0.263518,-0.199363,-0.876312,0.282303
"2019-04-05 10:23:36.361 +0000",1554459816.361306,-0.296646,1.177024,3.073479,-0.112153,-0.923468,-0.366916,0.000000,0.000000,0.000000,-1,-0.008682,1.045319,0.004480,-0.368178,-0.559197,0.190448
"2019-04-05 10:23:36.384 +0000",1554459816.383613,-0.278139,1.170180,3.051056,-0.107077,-0.920821,-0.374998,0.000000,0.000000,0.000000,-1,-0.561143,-0.804305,-0.434617,0.016516,-0.186479,0.034040
"2019-04-05 10:23:36.406 +0000",1554459816.405921,-0.275704,1.160207,3.027180,-0.108659,-0.916886,-0.384076,0.000000,0.000000,0.000000,-1,-0.491011,-0.733118,-0.166021,0.382355,-0.606857,-0.075458
"2019-04-05 10:23:36.428 +0000",1554459816.428229,-0.278041,1.155732,3.017351,-0.110681,-0.915090,-0.387762,0.000000,0.000000,0.000000,-1,-0.070328,-0.396874,-0.105558,0.501504,-0.606760,-0.102426
"2019-04-05 10:23:36.451 +0000",1554459816.450507,-0.281231,1.158028,3.013995,-0.111334,-0.916014,-0.385388,0.000000,0.000000,0.000000,-1,0.156754,-0.327891,-0.106073,0.516363,-0.078569,0.127331
"2019-04-05 10:23:36.473 +0000",1554459816.472814,-0.276660,1.167306,3.004704,-0.107245,-0.919696,-0.377700,0.000000,0.000000,0.000000,-1,0.468120,0.013087,-0.400494,0.156287,0.075122,0.193313
"2019-04-05 10:23:36.495 +0000",1554459816.495113,-0.256704,1.179456,2.981611,-0.096842,-0.924399,-0.368929,0.000000,0.000000,0.000000,-1,0.310447,-0.212786,-0.578434,-0.049795,0.129782,0.116076
"2019-04-05 10:23:36.517 +0000",1554459816.517431,-0.245968,1.185298,2.953760,-0.091559,-0.926611,-0.364703,0.000000,0.000000,0.000000,-1,0.020634,-1.120230,-0.440247,0.020957,0.018713,0.108386
"2019-04-05 10:23:36.540 +0000",1554459816.539738,-0.269552,1.179552,2.935653,-0.101550,-0.924435,-0.367569,0.000000,0.000000,0.000000,-1,-0.433986,-2.045457,-0.110928,0.120029,-0.072894,0.112961
"2019-04-05 10:23:36.562 +0000",1554459816.562016,-0.310454,1.175756,2.943940,-0.117567,-0.922981,-0.366448,0.000000,0.000000,0.000000,-1,0.071643,-0.783886,0.323444,0.206495,0.064903,0.268746
"2019-04-05 10:23:36.584 +0000",1554459816.584323,-0.339583,1.174891,2.971557,-0.128456,-0.922648,-0.363621,0.000000,0.000000,0.000000,-1,0.113097,-0.036403,0.520275,0.148963,0.108546,0.061451
"2019-04-05 10:23:36.607 +0000",1554459816.606621,-0.357486,1.171618,2.998389,-0.136000,-0.921381,-0.364090,0.000000,0.000000,0.000000,-1,-0.038651,0.467596,0.442544,-0.117296,0.269434,-0.072204
"2019-04-05 10:23:36.629 +0000",1554459816.628939,-0.365366,1.166419,3.013797,-0.140575,-0.919348,-0.367476,0.000000,0.000000,0.000000,-1,-0.156181,0.145854,0.281599,-0.090886,0.289114,-0.015443
"2019-04-05 10:23:36.651 +0000",1554459816.651247,-0.376379,1.160852,3.023953,-0.146492,-0.917143,-0.370660,0.000000,0.000000,0.000000,-1,-0.142687,-0.134721,0.254322,0.197365,0.194380,0.051354
"2019-04-05 10:23:36.674 +0000",1554459816.673524,-0.382783,1.155976,3.037281,-0.150532,-0.915189,-0.373858,0.000000,0.000000,0.000000,-1,-0.163183,0.540972,0.343837,0.256992,0.171307,0.192325
"2019-04-05 10:23:36.696 +0000",1554459816.695834,-0.376863,1.144201,3.049585,-0.152271,-0.910380,-0.384736,0.000000,0.000000,0.000000,-1,-0.615474,0.794529,0.430711,0.094333,0.145396,0.122621
"2019-04-05 10:23:36.718 +0000",1554459816.718143,-0.367656,1.121303,3.052034,-0.156175,-0.900667,-0.405472,0.000000,0.000000,0.000000,-1,-1.067551,0.357431,0.378573,0.164018,-0.025785,0.129624
"2019-04-05 10:23:36.740 +0000",1554459816.740449,-0.360000,1.085526,3.044598,-0.164317,-0.884549,-0.436547,0.000000,0.000000,0.000000,-1,-2.004419,-0.229247,0.508674,0.171733,-0.105197,0.188255
"2019-04-05 10:23:36.763 +0000",1554459816.762726,-0.370248,1.021869,3.034331,-0.188802,-0.853085,-0.486416,0.000000,0.000000,0.000000,-1,-3.095486,-1.102390,1.015896,0.174092,-0.177860,0.132519
"2019-04-05 10:23:36.785 +0000",1554459816.785027,-0.394426,0.937523,3.037897,-0.227411,-0.806095,-0.546347,0.000000,0.000000,0.000000,-1,-3.646501,-0.838773,1.807266,0.263223,-0.454983,0.352362
"2019-04-05 10:23:36.807 +0000",1554459816.807358,-0.427992,0.842427,3.060744,-0.276276,-0.746261,-0.605612,0.000000,0.000000,0.000000,-1,-3.530748,-0.606125,2.470180,0.057068,-0.428925,0.216559
"2019-04-05 10:23:36.830 +0000",1554459816.829650,-0.444362,0.764445,3.084122,-0.310274,-0.692137,-0.651672,0.000000,0.000000,0.000000,-1,-2.408531,0.591384,1.857128,0.095186,-0.502626,0.186981
"2019-04-05 10:23:36.852 +0000",1554459816.851959,-0.421503,0.714169,3.098849,-0.309156,-0.654989,-0.689501,0.000000,0.000000,0.000000,-1,-1.554019,1.825161,1.108420,0.003614,-0.698435,0.090197
"2019-04-05 10:23:36.874 +0000",1554459816.874234,-0.387717,0.683560,3.098792,-0.293133,-0.631557,-0.717780,0.000000,0.000000,0.000000,-1,-1.099014,1.130585,0.222832,-0.161930,-0.730381,0.103370
"2019-04-05 10:23:36.897 +0000",1554459816.896544,-0.370749,0.669718,3.091042,-0.284052,-0.620765,-0.730729,0.000000,0.000000,0.000000,-1,-0.379870,0.296589,-0.156494,-0.151800,-0.571908,0.210419
"2019-04-05 10:23:36.919 +0000",1554459816.918851,-0.364205,0.674503,3.084059,-0.278203,-0.624510,-0.729788,0.000000,0.000000,0.000000,-1,0.370463,0.016877,-0.359619,-0.257014,-0.231676,0.160177
"2019-04-05 10:23:36.941 +0000",1554459816.941159,-0.363751,0.691966,3.082605,-0.273950,-0.638052,-0.719612,0.000000,0.000000,0.000000,-1,0.900099,-0.010889,-0.280992,0.135126,-0.004175,0.173637
"2019-04-05 10:23:36.963 +0000",1554459816.963468,-0.367879,0.716245,3.087453,-0.271266,-0.656557,-0.703809,0.000000,0.000000,0.000000,-1,1.148676,-0.113844,-0.210501,0.208613,0.108751,0.215406
"2019-04-05 10:23:36.986 +0000",1554459816.985745,-0.377160,0.743940,3.096540,-0.270984,-0.677192,-0.684089,0.000000,0.000000,0.000000,-1,1.334636,-0.124530,-0.130932,0.289295,0.376243,0.304985
"2019-04-05 10:23:37.008 +0000",1554459817.008044,-0.385543,0.776464,3.111905,-0.268282,-0.700761,-0.661029,0.000000,0.000000,0.000000,-1,1.716470,0.274429,-0.072283,0.056978,0.409852,0.430514
"2019-04-05 10:23:37.030 +0000",1554459817.030359,-0.385360,0.820697,3.135263,-0.256250,-0.731621,-0.631717,0.000000,0.000000,0.000000,-1,2.368059,1.053440,-0.060311,0.016672,0.386940,0.420810
"2019-04-05 10:23:37.053 +0000",1554459817.052681,-0.379443,0.879157,-3.114672,-0.236243,-0.770201,-0.592435,0.000000,0.000000,0.000000,-1,3.030561,1.511237,-0.086420,-0.027673,0.338393,0.366986
"2019-04-05 10:23:37.075 +0000",1554459817.074988,-0.377942,0.949367,-3.074903,-0.214836,-0.813047,-0.541110,0.000000,0.000000,0.000000,-1,3.460303,1.403993,-0.190730,-0.036843,0.300565,0.197451
"2019-04-05 10:23:37.097 +0000",1554459817.097266,-0.384586,1.020740,-3.033438,-0.196117,-0.852495,-0.484552,0.000000,0.000000,0.000000,-1,3.134978,1.148953,-0.258076,-0.095646,0.263002,0.093683
"2019-04-05 10:23:37.120 +0000",1554459817.119572,-0.383640,1.071384,-3.012011,-0.179255,-0.877864,-0.444097,0.000000,0.000000,0.000000,-1,1.714905,0.713056,-0.530215,-0.029225,0.207316,0.053091
"2019-04-05 10:23:37.142 +0000",1554459817.141882,-0.365999,1.103360,-3.021519,-0.161261,-0.892726,-0.420755,0.000000,0.000000,0.000000,-1,1.229284,0.197613,-0.797526,0.136237,0.081508,-0.021842
"2019-04-05 10:23:37.164 +0000",1554459817.164183,-0.355098,1.140415,-3.041653,-0.145059,-0.908807,-0.391188,0.000000,0.000000,0.000000,-1,1.483740,-0.571982,-1.018845,0.343332,-0.131675,0.220213
"2019-04-05 10:23:37.186 +0000",1554459817.186497,-0.338227,1.180729,-3.076646,-0.126173,-0.924883,-0.358708,0.000000,0.000000,0.000000,-1,1.433908,-0.737601,-1.215891,0.251066,-0.061826,0.104130
"2019-04-05 10:23:37.209 +0000",1554459817.208773,-0.315980,1.216524,-3.116310,-0.107801,-0.937899,-0.329733,0.000000,0.000000,0.000000,-1,1.136284,-0.580736,-1.018925,-0.036608,0.011233,-0.206445
"2019-04-05 10:23:37.231 +0000",1554459817.231072,-0.295059,1.230752,3.131994,-0.096989,-0.942740,-0.319115,0.000000,0.000000,0.000000,-1,-0.038020,-0.652842,-0.449379,-0.018307,-0.195566,-0.049827
"2019-04-05 10:23:37.253 +0000",1554459817.253390,-0.322262,1.222027,3.133373,-0.108234,-0.939794,-0.324149,0.000000,0.000000,0.000000,-1,-0.314082,-1.039201,0.512870,-0.088345,-0.051661,0.069404
"2019-04-05 10:23:37.276 +0000",1554459817.275698,-0.372438,1.216056,-3.108915,-0.126395,-0.937737,-0.323534,0.000000,0.000000,0.000000,-1,-0.012810,-0.850765,0.537378,-0.091928,-0.131782,0.125566
"2019-04-05 10:23:37.298 +0000",1554459817.298007,-0.410132,1.200957,-3.092964,-0.144127,-0.932385,-0.331489,0.000000,0.000000,0.000000,-1,-0.942039,-0.818966,0.591281,-0.081276,-0.914676,0.092185
"2019-04-05 10:23:37.320 +0000",1554459817.320283,-0.370298,1.170320,-3.133748,-0.141087,-0.920875,-0.363433,0.000000,0.000000,0.000000,-1,-1.494776,0.488180,-0.754140,-0.475750,-0.186089,0.466506
"2019-04-05 10:23:37.343 +0000",1554459817.342592,-0.328735,1.154087,3.103509,-0.130673,-0.914426,-0.383080,0.000000,0.000000,0.000000,-1,-0.746749,-0.888011,-0.107687,-0.179935,-0.344073,0.196953
"2019-04-05 10:23:37.365 +0000",1554459817.364900,-0.366807,1.147574,3.104766,-0.147293,-0.911770,-0.383380,0.000000,0.000000,0.000000,-1,0.168256,-1.366519,0.116528,0.735000,-1.460758,-0.072873
"2019-04-05 10:23:37.387 +0000",1554459817.387195,-0.376765,1.156700,3.121582,-0.148035,-0.915480,-0.374141,0.000000,0.000000,0.000000,-1,0.506236,1.015379,0.161278,0.291880,0.224806,0.310711
"2019-04-05 10:23:37.410 +0000",1554459817.409515,-0.361071,1.163867,3.126645,-0.139823,-0.918341,-0.370270,0.000000,0.000000,0.000000,-1,0.309906,0.447987,-0.210894,-0.095513,0.591482,0.045563
"2019-04-05 10:23:37.432 +0000",1554459817.431807,-0.366966,1.176627,3.111622,-0.137788,-0.923316,-0.358472,0.000000,0.000000,0.000000,-1,0.471902,-1.604713,-0.435749,0.287370,0.265036,-0.019763
"2019-04-05 10:23:37.454 +0000",1554459817.454104,-0.400836,1.182555,3.111328,-0.147710,-0.925576,-0.348555,0.000000,0.000000,0.000000,-1,0.092875,-1.146609,0.050036,0.189321,-0.667457,0.215086
"2019-04-05 10:23:37.476 +0000",1554459817.476403,-0.421628,1.184134,3.121040,-0.154326,-0.926173,-0.344074,0.000000,0.000000,0.000000,-1,0.225597,-0.205132,0.140979,-0.317033,-0.059942,0.217182
"2019-04-05 10:23:37.499 +0000",1554459817.498711,-0.435442,1.188142,-3.141448,-0.157498,-0.927677,-0.338541,0.000000,0.000000,0.000000,-1,0.271767,0.296195,0.305262,0.101589,0.224521,0.259043
"2019-04-05 10:23:37.521 +0000",1554459817.521025,-0.456140,1.187830,-3.121370,-0.164598,-0.927560,-0.335469,0.000000,0.000000,0.000000,-1,0.095510,-0.351135,0.255108,0.137742,0.144205,0.067280
"2019-04-05 10:23:37.543 +0000",1554459817.543302,-0.473426,1.189786,-3.111828,-0.169545,-0.928289,-0.330958,0.000000,0.000000,0.000000,-1,0.207533,-0.279378,0.029981,0.089665,0.253332,0.028133
"2019-04-05 10:23:37.566 +0000",1554459817.565611,-0.479521,1.188428,-3.112149,-0.172140,-0.927784,-0.331037,0.000000,0.000000,0.000000,-1,-0.264086,-0.387747,0.051830,0.179739,0.204105,0.134534
"2019-04-05 10:23:37.588 +0000",1554459817.587920,-0.482600,1.179499,-3.118203,-0.176996,-0.924415,-0.337830,0.000000,0.000000,0.000000,-1,-0.470734,-0.393678,0.131189,0.220804,0.224540,0.028092
"2019-04-05 10:23:37.610 +0000",1554459817.610227,-0.489083,1.166384,-3.120608,-0.184863,-0.919334,-0.347348,0.000000,0.000000,0.000000,-1,-0.584067,-0.341323,0.321719,0.212756,0.193672,0.134565
"2019-04-05 10:23:37.633 +0000",1554459817.632534,-0.494632,1.150006,-3.117395,-0.193909,-0.912767,-0.359523,0.000000,0.000000,0.000000,-1,-0.624838,0.056331,0.407491,0.208833,0.165757,0.176875
"2019-04-05 10:23:37.655 +0000",1554459817.654821,-0.492327,1.130653,-3.116181,-0.201393,-0.904691,-0.375467,0.000000,0.000000,0.000000,-1,-0.864160,0.057704,0.470644,0.142479,0.274106,0.147455
"2019-04-05 10:23:37.677 +0000",1554459817.677109,-0.498653,1.103874,-3.114035,-0.215276,-0.892958,-0.395325,0.000000,0.000000,0.000000,-1,-1.090436,-0.196149,0.699819,0.174993,0.133513,0.009171
"2019-04-05 10:23:37.699 +0000",1554459817.699428,-0.505804,1.074287,-3.103802,-0.230802,-0.879251,-0.416712,0.000000,0.000000,0.000000,-1,-1.145782,0.104833,0.919181,0.261212,-0.021842,0.218928
"2019-04-05 10:23:37.722 +0000",1554459817.721736,-0.504266,1.028978,-3.101548,-0.249166,-0.856772,-0.451506,0.000000,0.000000,0.000000,-1,-2.187698,0.029824,1.040973,0.129308,-0.059549,0.178954
"2019-04-05 10:23:37.744 +0000",1554459817.744014,-0.490907,0.966564,-3.121127,-0.267831,-0.822938,-0.501038,0.000000,0.000000,0.000000,-1,-2.947325,-0.176508,0.892374,0.119669,-0.069365,0.087555
"2019-04-05 10:23:37.766 +0000",1554459817.766322,-0.477977,0.886969,3.140116,-0.290602,-0.775160,-0.560961,0.000000,0.000000,0.000000,-1,-3.695718,-0.264951,1.325787,0.091245,-0.592698,0.351534
"2019-04-05 10:23:37.789 +0000",1554459817.788630,-0.478013,0.797953,3.128155,-0.321171,-0.715928,-0.619916,0.000000,0.000000,0.000000,-1,-3.560535,-0.379537,1.582413,0.081929,-0.839538,0.254941
"2019-04-05 10:23:37.811 +0000",1554459817.810935,-0.471993,0.728010,3.124561,-0.339405,-0.665385,-0.664881,0.000000,0.000000,0.000000,-1,-2.331206,0.588594,1.128992,0.133656,-0.858861,0.236643
"2019-04-05 10:23:37.833 +0000",1554459817.833244,-0.445821,0.686217,3.124059,-0.333596,-0.633615,-0.698030,0.000000,0.000000,0.000000,-1,-1.388190,1.319034,0.636620,-0.209525,-0.769736,0.056489
"2019-04-05 10:23:37.856 +0000",1554459817.855535,-0.416764,0.662190,3.119153,-0.319247,-0.614846,-0.721142,0.000000,0.000000,0.000000,-1,-0.849800,0.985220,0.144838,-0.356900,-0.539253,-0.004612
"2019-04-05 10:23:37.878 +0000",1554459817.877830,-0.397759,0.653880,3.114498,-0.307454,-0.608271,-0.731764,0.000000,0.000000,0.000000,-1,-0.134879,0.576134,-0.108016,-0.286021,-0.439779,0.022551
"2019-04-05 10:23:37.900 +0000",1554459817.900146,-0.386596,0.661405,3.109614,-0.297532,-0.614226,-0.730890,0.000000,0.000000,0.000000,-1,0.424438,0.248034,-0.392660,0.012544,0.052337,0.118235
"2019-04-05 10:23:37.922 +0000",1554459817.922446,-0.381502,0.678727,3.104749,-0.289800,-0.627802,-0.722413,0.000000,0.000000,0.000000,-1,0.792823,0.024075,-0.451300,0.173970,-0.053197,0.122803
"2019-04-05 10:23:37.945 +0000",1554459817.944755,-0.380628,0.703929,3.105270,-0.283199,-0.647218,-0.707748,0.000000,0.000000,0.000000,-1,1.213413,0.099607,-0.369915,0.190288,-0.003157,0.277557
"2019-04-05 10:23:37.967 +0000",1554459817.967040,-0.381852,0.735319,3.113180,-0.276356,-0.670824,-0.688203,0.000000,0.000000,0.000000,-1,1.501357,0.217179,-0.218249,0.205219,0.213640,0.418503
"2019-04-05 10:23:37.989 +0000",1554459817.989339,-0.387271,0.769885,3.128043,-0.271158,-0.696053,-0.664818,0.000000,0.000000,0.000000,-1,1.693793,0.210379,-0.089090,0.115229,0.439110,0.431740
"2019-04-05 10:23:38.012 +0000",1554459818.011647,-0.396249,0.810152,-3.133217,-0.266077,-0.724392,-0.635971,0.000000,0.000000,0.000000,-1,2.109342,0.397758,-0.032269,0.091287,0.497372,0.413223
"2019-04-05 10:23:38.034 +0000",1554459818.033956,-0.405571,0.861405,-3.101409,-0.256995,-0.758758,-0.598531,0.000000,0.000000,0.000000,-1,2.723099,0.796691,-0.005775,0.107901,0.522125,0.352804
"2019-04-05 10:23:38.056 +0000",1554459818.056263,-0.415687,0.924766,-3.059832,-0.243107,-0.798480,-0.550752,0.000000,0.000000,0.000000,-1,3.271027,1.100364,-0.111200,0.138020,0.436237,0.223619
"2019-04-05 10:23:38.079 +0000",1554459818.078541,-0.427702,0.995613,-3.011578,-0.225636,-0.839093,-0.494987,0.000000,0.000000,0.000000,-1,3.371155,1.299354,-0.198521,0.124241,0.327191,0.152701
"2019-04-05 10:23:38.101 +0000",1554459818.100848,-0.437410,1.056148,-2.974315,-0.208506,-0.870466,-0.445886,0.000000,0.000000,0.000000,-1,2.349854,0.679119,-0.466372,0.024424,0.205732,0.121316
"2019-04-05 10:23:38.123 +0000",1554459818.123143,-0.443988,1.094412,-2.963795,-0.196976,-0.888659,-0.414109,0.000000,0.000000,0.000000,-1,1.384539,-0.173917,-0.500151,-0.011200,-0.241071,0.081177
"2019-04-05 10:23:38.145 +0000",1554459818.145463,-0.456260,1.123752,-2.961464,-0.190470,-0.901729,-0.388080,0.000000,0.000000,0.000000,-1,1.131854,-0.532299,-0.577713,0.076563,-0.337117,0.114933
"2019-04-05 10:23:38.168 +0000",1554459818.167772,-0.459913,1.153142,-2.969169,-0.180041,-0.914043,-0.363470,0.000000,0.000000,0.000000,-1,1.144917,-0.440787,-0.773285,0.229953,-0.155095,0.185400
"2019-04-05 10:23:38.190 +0000",1554459818.190063,-0.470866,1.186105,-2.972013,-0.170246,-0.926914,-0.334434,0.000000,0.000000,0.000000,-1,1.338485,-0.815280,-0.612332,0.177555,0.069706,-0.047768
"2019-04-05 10:23:38.212 +0000",1554459818.212358,-0.492234,1.208801,-2.972369,-0.167366,-0.935192,-0.312097,0.000000,0.000000,0.000000,-1,0.513887,-1.002999,-0.393924,0.149070,-0.014912,-0.064291
"2019-04-05 10:23:38.235 +0000",1554459818.234667,-0.507771,1.207778,-2.981140,-0.172659,-0.934829,-0.310295,0.000000,0.000000,0.000000,-1,-0.345582,-1.083582,0.175832,0.036459,-0.210724,-0.083809
"2019-04-05 10:23:38.257 +0000",1554459818.256973,-0.535671,1.198430,-2.967386,-0.185701,-0.931469,-0.312859,0.000000,0.000000,0.000000,-1,-0.086912,-0.100998,0.385555,-0.152007,-0.132893,0.069039
"2019-04-05 10:23:38.279 +0000",1554459818.279281,-0.547171,1.188327,-2.964012,-0.194172,-0.927746,-0.318723,0.000000,0.000000,0.000000,-1,-0.624665,-0.820015,0.287502,-0.335964,-1.007801,0.017606
"2019-04-05 10:23:38.302 +0000",1554459818.301559,-0.533217,1.165927,-2.981054,-0.200221,-0.919154,-0.339216,0.000000,0.000000,0.000000,-1,-1.322525,0.547503,0.256456,-0.367360,-0.956228,0.123915
"2019-04-05 10:23:38.324 +0000",1554459818.323866,-0.471751,1.139546,-3.043367,-0.189962,-0.908444,-0.372350,0.000000,0.000000,0.000000,-1,-1.384607,-0.227480,-0.688186,-0.447657,-0.011753,0.359914
"2019-04-05 10:23:38.346 +0000",1554459818.346157,-0.469647,1.124141,-3.075751,-0.195489,-0.901897,-0.385184,0.000000,0.000000,0.000000,-1,-0.654091,-1.690916,-0.014915,0.674127,-1.323903,-0.247171
"2019-04-05 10:23:38.368 +0000",1554459818.368481,-0.500087,1.119450,-3.079016,-0.209148,-0.899861,-0.382763,0.000000,0.000000,0.000000,-1,0.032878,-1.075150,0.087841,0.736431,-0.987377,-0.114673
"2019-04-05 10:23:38.391 +0000",1554459818.390791,-0.507721,1.121027,-3.067463,-0.211374,-0.900547,-0.379915,0.000000,0.000000,0.000000,-1,0.193660,0.751915,0.143643,0.316202,0.294285,0.248354
"2019-04-05 10:23:38.413 +0000",1554459818.413068,-0.500581,1.130582,-3.067124,-0.204516,-0.904660,-0.373848,0.000000,0.000000,0.000000,-1,0.551899,-0.330162,-0.413526,0.111117,0.390271,-0.002037
"2019-04-05 10:23:38.435 +0000",1554459818.435377,-0.520936,1.147069,-3.078258,-0.204631,-0.911563,-0.356622,0.000000,0.000000,0.000000,-1,0.410160,-1.634526,-0.501251,0.301723,-0.239103,0.077661
"2019-04-05 10:23:38.458 +0000",1554459818.457684,-0.535573,1.153995,-3.090692,-0.206603,-0.914388,-0.348151,0.000000,0.000000,0.000000,-1,0.060343,-0.824431,-0.293979,0.032073,-0.448786,0.122184
"2019-04-05 10:23:38.480 +0000",1554459818.479968,-0.538850,1.155964,-3.103194,-0.206818,-0.915184,-0.345926,0.000000,0.000000,0.000000,-1,-0.028177,-0.579316,-0.203152,-0.294143,0.103218,0.129205
"2019-04-05 10:23:38.502 +0000",1554459818.502268,-0.548728,1.156205,-3.102393,-0.210110,-0.915281,-0.343678,0.000000,0.000000,0.000000,-1,-0.044107,-0.365100,0.160899,0.274563,0.022703,0.027913
"2019-04-05 10:23:38.525 +0000",1554459818.524577,-0.563096,1.150034,-3.096748,-0.218037,-0.912778,-0.345394,0.000000,0.000000,0.000000,-1,-0.150562,-0.399411,0.207058,0.114857,0.056760,-0.048863
"2019-04-05 10:23:38.547 +0000",1554459818.546885,-0.572859,1.146668,-3.089631,-0.223063,-0.911398,-0.345828,0.000000,0.000000,0.000000,-1,-0.167800,-0.026617,0.223590,0.050104,0.295217,0.003375
"2019-04-05 10:23:38.569 +0000",1554459818.569176,-0.576941,1.135892,-3.089023,-0.229816,-0.906910,-0.353126,0.000000,0.000000,0.000000,-1,-0.469996,-0.251621,0.286245,0.268467,0.163807,-0.059303
"2019-04-05 10:23:38.592 +0000",1554459818.591502,-0.577507,1.122578,-3.090120,-0.236588,-0.901220,-0.363081,0.000000,0.000000,0.000000,-1,-0.554946,0.085514,0.314229,0.266922,0.149298,0.045790
"2019-04-05 10:23:38.614 +0000",1554459818.613778,-0.565624,1.107804,-3.093417,-0.239367,-0.894720,-0.377068,0.000000,0.000000,0.000000,-1,-0.613628,0.520940,0.307858,0.157778,0.162878,0.265694
"2019-04-05 10:23:38.636 +0000",1554459818.636081,-0.550859,1.090260,-3.095684,-0.241953,-0.886747,-0.393876,0.000000,0.000000,0.000000,-1,-0.739702,0.611212,0.443462,0.112177,0.105177,0.114060
"2019-04-05 10:23:38.658 +0000",1554459818.658395,-0.535122,1.065403,-3.093838,-0.246891,-0.874984,-0.416470,0.000000,0.000000,0.000000,-1,-1.129692,0.924597,0.725838,0.077183,-0.041276,0.106626
"2019-04-05 10:23:38.681 +0000",1554459818.680702,-0.515985,1.022193,-3.097387,-0.257302,-0.853254,-0.453601,0.000000,0.000000,0.000000,-1,-2.178761,0.312710,1.029790,0.147027,-0.057360,0.167072
"2019-04-05 10:23:38.703 +0000",1554459818.702988,-0.511371,0.952166,-3.112150,-0.283797,-0.814673,-0.505734,0.000000,0.000000,0.000000,-1,-3.479579,-0.632096,1.478004,0.170364,-0.207833,0.236569
"2019-04-05 10:23:38.725 +0000",1554459818.725288,-0.516450,0.860726,-3.123502,-0.321899,-0.758316,-0.566866,0.000000,0.000000,0.000000,-1,-3.673662,-0.518795,1.850318,0.225891,-0.403687,0.334384
"2019-04-05 10:23:38.748 +0000",1554459818.747596,-0.518853,0.774929,-3.121772,-0.354295,-0.699665,-0.620438,0.000000,0.000000,0.000000,-1,-3.057929,0.196766,2.000538,0.159471,-0.620540,0.405259
"2019-04-05 10:23:38.770 +0000",1554459818.769904,-0.515791,0.706029,-3.112166,-0.375315,-0.648817,-0.661948,0.000000,0.000000,0.000000,-1,-2.186054,0.681642,1.636851,0.046031,-0.790682,0.134314
"2019-04-05 10:23:38.792 +0000",1554459818.792216,-0.493000,0.662910,-3.105383,-0.373034,-0.615413,-0.694343,0.000000,0.000000,0.000000,-1,-1.223161,1.378756,0.794951,-0.292554,-0.704441,0.076408
"2019-04-05 10:23:38.815 +0000",1554459818.814520,-0.467299,0.641737,-3.108795,-0.360858,-0.598588,-0.715175,0.000000,0.000000,0.000000,-1,-0.745772,0.736827,0.160735,-0.140043,-0.526275,0.150920
"2019-04-05 10:23:38.837 +0000",1554459818.836798,-0.458612,0.633937,-3.112899,-0.356688,-0.592321,-0.722447,0.000000,0.000000,0.000000,-1,-0.117593,0.087799,-0.098711,-0.155596,-0.420618,0.099812
"2019-04-05 10:23:38.859 +0000",1554459818.859109,-0.456574,0.643254,-3.116110,-0.352766,-0.599803,-0.718187,0.000000,0.000000,0.000000,-1,0.556072,-0.000312,-0.371800,-0.092043,-0.135442,0.099657
"2019-04-05 10:23:38.881 +0000",1554459818.881413,-0.454595,0.664821,-3.114685,-0.345582,-0.616918,-0.707096,0.000000,0.000000,0.000000,-1,1.074361,0.242322,-0.352642,0.141069,-0.161219,0.149891
"2019-04-05 10:23:38.904 +0000",1554459818.903709,-0.450664,0.695234,-3.104861,-0.334471,-0.640565,-0.691235,0.000000,0.000000,0.000000,-1,1.572953,0.557812,-0.255977,0.153624,0.265565,0.325848
"2019-04-05 10:23:38.926 +0000",1554459818.926028,-0.449418,0.736477,-3.085998,-0.321852,-0.671682,-0.667274,0.000000,0.000000,0.000000,-1,2.170249,0.633270,-0.212972,0.185636,0.420904,0.340309
"2019-04-05 10:23:38.948 +0000",1554459818.948306,-0.455392,0.788666,-3.055462,-0.309978,-0.709414,-0.632966,0.000000,0.000000,0.000000,-1,2.727822,0.702959,-0.066968,0.196331,0.550676,0.401414
"2019-04-05 10:23:38.971 +0000",1554459818.970614,-0.472745,0.847194,-3.009450,-0.301470,-0.749426,-0.589472,0.000000,0.000000,0.000000,-1,3.120252,0.752087,0.188316,0.137957,0.512289,0.349085
"2019-04-05 10:23:38.993 +0000",1554459818.992922,-0.504355,0.911071,-2.946372,-0.296179,-0.790161,-0.536586,0.000000,0.000000,0.000000,-1,3.555636,0.719198,0.224770,0.103674,0.512252,0.245860
"2019-04-05 10:23:39.015 +0000",1554459819.015229,-0.553992,0.984680,-2.869346,-0.290994,-0.833095,-0.470399,0.000000,0.000000,0.000000,-1,3.982130,0.477252,-0.038376,0.111963,0.281124,0.156022
"2019-04-05 10:23:39.038 +0000",1554459819.037507,-0.610040,1.052846,-2.803670,-0.283643,-0.868836,-0.405797,0.000000,0.000000,0.000000,-1,2.709782,-0.269841,-0.636432,0.085355,0.277756,0.080357
"2019-04-05 10:23:39.060 +0000",1554459819.059815,-0.629601,1.089359,-2.795275,-0.272656,-0.886330,-0.374269,0.000000,0.000000,0.000000,-1,0.967634,-0.867871,-0.809267,0.125302,0.088662,-0.155684
"2019-04-05 10:23:39.082 +0000",1554459819.082135,-0.646614,1.116691,-2.807177,-0.264286,-0.898654,-0.350105,0.000000,0.000000,0.000000,-1,0.784773,-1.155317,-1.001559,0.088749,-0.303113,0.049278
"2019-04-05 10:23:39.104 +0000",1554459819.104430,-0.645258,1.142429,-2.829994,-0.249815,-0.909645,-0.331871,0.000000,0.000000,0.000000,-1,0.536693,-0.987964,-0.960973,0.147017,-0.215859,0.348137
"2019-04-05 10:23:39.127 +0000",1554459819.126740,-0.666414,1.155468,-2.849221,-0.249426,-0.914984,-0.317161,0.000000,0.000000,0.000000,-1,0.061677,-1.895111,-0.407288,0.128623,-0.113642,0.051460
"2019-04-05 10:23:39.149 +0000",1554459819.149016,-0.690216,1.149040,-2.850621,-0.260643,-0.912372,-0.315664,0.000000,0.000000,0.000000,-1,-0.401287,-0.302330,0.528630,0.169533,-0.007489,0.070562
"2019-04-05 10:23:39.171 +0000",1554459819.171325,-0.711574,1.120226,-2.851517,-0.284379,-0.900199,-0.329803,0.000000,0.000000,0.000000,-1,-1.299403,-1.996768,0.812483,0.037980,-0.534448,-0.002274
"2019-04-05 10:23:39.194 +0000",1554459819.193634,-0.728808,1.090611,-2.856843,-0.307646,-0.886909,-0.344596,0.000000,0.000000,0.000000,-1,-1.157012,0.803113,0.808780,-0.014650,-1.069878,0.374900
"2019-04-05 10:23:39.216 +0000",1554459819.215940,-0.662513,1.073029,-2.875844,-0.293689,-0.878651,-0.376457,0.000000,0.000000,0.000000,-1,-0.640620,2.218026,-0.142648,-0.447751,-0.417950,0.615486
"2019-04-05 10:23:39.238 +0000",1554459819.238249,-0.645912,1.063801,-2.882381,-0.292267,-0.874207,-0.387739,0.000000,0.000000,0.000000,-1,-0.304073,-0.573339,0.420669,-0.016540,-0.534911,0.182065
"2019-04-05 10:23:39.261 +0000",1554459819.260525,-0.677575,1.054164,-2.871411,-0.309663,-0.869488,-0.384838,0.000000,0.000000,0.000000,-1,0.025591,-0.809453,0.404298,0.505128,-1.224644,-0.345722
"2019-04-05 10:23:39.283 +0000",1554459819.282834,-0.692817,1.059555,-2.849283,-0.312494,-0.872138,-0.376461,0.000000,0.000000,0.000000,-1,0.625886,0.650768,0.026874,0.234994,-0.209039,0.326977
"2019-04-05 10:23:39.305 +0000",1554459819.305128,-0.690553,1.072080,-2.846209,-0.304658,-0.878197,-0.368717,0.000000,0.000000,0.000000,-1,0.327435,-0.357268,-0.398495,0.311952,0.252999,0.204334
"2019-04-05 10:23:39.327 +0000",1554459819.327457,-0.711385,1.082123,-2.854068,-0.306499,-0.882957,-0.355592,0.000000,0.000000,0.000000,-1,0.248745,-1.533439,-0.426545,0.233715,-0.465997,0.028535
"2019-04-05 10:23:39.350 +0000",1554459819.349758,-0.734843,1.092279,-2.858282,-0.308728,-0.887678,-0.341635,0.000000,0.000000,0.000000,-1,0.276086,-0.866169,-0.293516,0.162793,-0.398866,0.220297
"2019-04-05 10:23:39.372 +0000",1554459819.372036,-0.750905,1.094847,-2.857813,-0.312618,-0.888858,-0.334964,0.000000,0.000000,0.000000,-1,-0.085000,-0.842848,0.050993,0.051144,0.076419,0.244754
"2019-04-05 10:23:39.394 +0000",1554459819.394344,-0.772910,1.091075,-2.851425,-0.322251,-0.887124,-0.330402,0.000000,0.000000,0.000000,-1,0.096834,-0.579774,0.303047,0.292176,0.207787,-0.026455
"2019-04-05 10:23:39.417 +0000",1554459819.416650,-0.797556,1.088388,-2.832392,-0.332001,-0.885880,-0.324024,0.000000,0.000000,0.000000,-1,0.205145,-0.264599,0.357360,0.289429,0.237260,0.138737
"2019-04-05 10:23:39.439 +0000",1554459819.438958,-0.808516,1.087121,-2.823416,-0.336343,-0.885292,-0.321141,0.000000,0.000000,0.000000,-1,0.025794,-0.029806,0.015291,0.078332,0.329460,0.075413
"2019-04-05 10:23:39.461 +0000",1554459819.461267,-0.795610,1.091067,-2.833501,-0.329673,-0.887120,-0.323008,0.000000,0.000000,0.000000,-1,-0.078425,0.239319,-0.364267,0.106361,0.445927,-0.050726
"2019-04-05 10:23:39.484 +0000",1554459819.483545,-0.779363,1.087801,-2.854057,-0.326416,-0.885608,-0.330381,0.000000,0.000000,0.000000,-1,-0.659548,-0.377219,-0.041465,0.179856,0.143451,-0.192599
"2019-04-05 10:23:39.506 +0000",1554459819.505852,-0.769817,1.071724,-2.872766,-0.333115,-0.878027,-0.343661,0.000000,0.000000,0.000000,-1,-0.750509,-0.081679,0.365251,0.292725,-0.159571,-0.095334
"2019-04-05 10:23:39.528 +0000",1554459819.528145,-0.759390,1.049445,-2.872304,-0.342898,-0.867147,-0.361216,0.000000,0.000000,0.000000,-1,-0.864380,0.755643,0.907330,0.161944,0.264974,0.170877
"2019-04-05 10:23:39.550 +0000",1554459819.550468,-0.738253,1.003755,-2.882434,-0.361493,-0.843494,-0.397292,0.000000,0.000000,0.000000,-1,-2.142396,0.208152,1.347072,0.153882,0.151401,-0.011674
"2019-04-05 10:23:39.573 +0000",1554459819.572776,-0.710681,0.941870,-2.916504,-0.383762,-0.808660,-0.445865,0.000000,0.000000,0.000000,-1,-2.753989,-0.231695,1.551645,0.458698,-0.054438,-0.075497
"2019-04-05 10:23:39.595 +0000",1554459819.595070,-0.689932,0.867670,-2.942669,-0.411555,-0.762824,-0.498720,0.000000,0.000000,0.000000,-1,-3.188978,0.119971,1.558261,0.270853,-0.223794,0.390856
"2019-04-05 10:23:39.617 +0000",1554459819.617362,-0.662096,0.789837,-2.974029,-0.432775,-0.710239,-0.555218,0.000000,0.000000,0.000000,-1,-3.270141,0.261705,1.317544,-0.039454,-0.568570,0.174618
"2019-04-05 10:23:39.640 +0000",1554459819.639669,-0.637171,0.729484,-3.004217,-0.443526,-0.666485,-0.599234,0.000000,0.000000,0.000000,-1,-2.355246,0.212264,0.519466,-0.031922,-0.612644,0.097983
"2019-04-05 10:23:39.662 +0000",1554459819.661977,-0.596742,0.699692,-3.034573,-0.429915,-0.643982,-0.632819,0.000000,0.000000,0.000000,-1,-1.332098,1.300384,-0.376741,-0.180742,-0.760544,0.083030
"2019-04-05 10:23:39.684 +0000",1554459819.684255,-0.547798,0.691730,-3.071570,-0.401098,-0.637870,-0.657451,0.000000,0.000000,0.000000,-1,-0.787317,0.847480,-1.126736,-0.075938,-0.819313,0.139812
"2019-04-05 10:23:39.707 +0000",1554459819.706562,-0.519272,0.694879,-3.107875,-0.381184,-0.640292,-0.666877,0.000000,0.000000,0.000000,-1,-0.369915,-0.084477,-1.042612,-0.383480,-0.635815,0.113761
"2019-04-05 10:23:39.729 +0000",1554459819.728870,-0.518282,0.700210,-3.128323,-0.378827,-0.644378,-0.664279,0.000000,0.000000,0.000000,-1,-0.007127,-0.810647,-0.543516,-0.531359,-0.391495,-0.089521
"2019-04-05 10:23:39.751 +0000",1554459819.751176,-0.535845,0.707708,-3.135871,-0.387956,-0.650094,-0.653351,0.000000,0.000000,0.000000,-1,0.271924,-1.046011,-0.360188,0.480120,0.096460,0.116730
"2019-04-05 10:23:39.773 +0000",1554459819.773486,-0.555297,0.722883,-3.136448,-0.395345,-0.661549,-0.637224,0.000000,0.000000,0.000000,-1,0.795160,-0.701405,-0.375428,0.465017,0.227986,0.216295
"2019-04-05 10:23:39.796 +0000",1554459819.795764,-0.565964,0.749469,-3.126087,-0.392547,-0.681250,-0.617904,0.000000,0.000000,0.000000,-1,1.411946,0.186076,-0.303647,0.407165,0.365622,0.381743
"2019-04-05 10:23:39.818 +0000",1554459819.818084,-0.565808,0.782287,-3.108237,-0.380256,-0.704903,-0.598763,0.000000,0.000000,0.000000,-1,1.566483,0.675665,-0.324054,-0.038826,0.298089,0.378654
"2019-04-05 10:23:39.840 +0000",1554459819.840380,-0.565785,0.816429,-3.090143,-0.367122,-0.728705,-0.578110,0.000000,0.000000,0.000000,-1,1.647843,0.503426,-0.337376,-0.135945,0.259100,0.357269
"2019-04-05 10:23:39.863 +0000",1554459819.862688,-0.578495,0.855500,-3.064187,-0.358591,-0.754899,-0.549127,0.000000,0.000000,0.000000,-1,2.085675,0.127489,-0.258179,-0.208853,0.205643,0.394495
"2019-04-05 10:23:39.885 +0000",1554459819.884997,-0.616659,0.903083,-3.022044,-0.358087,-0.785239,-0.505146,0.000000,0.000000,0.000000,-1,2.640113,-0.478333,-0.152080,-0.010336,0.222129,0.338307
"2019-04-05 10:23:39.907 +0000",1554459819.907275,-0.680821,0.954707,-2.963259,-0.363716,-0.816144,-0.449020,0.000000,0.000000,0.000000,-1,2.815335,-0.872038,-0.181994,0.153022,0.308011,0.135284
"2019-04-05 10:23:39.930 +0000",1554459819.929583,-0.735857,1.001723,-2.911333,-0.361689,-0.842401,-0.399427,0.000000,0.000000,0.000000,-1,2.076858,-0.124545,-0.533816,0.215892,0.347283,0.065992
"2019-04-05 10:23:39.952 +0000",1554459819.951889,-0.736760,1.036601,-2.896829,-0.342093,-0.860679,-0.377101,0.000000,0.000000,0.000000,-1,1.045855,0.601678,-0.946361,0.282919,0.216452,-0.019506
"2019-04-05 10:23:39.974 +0000",1554459819.974191,-0.720405,1.060053,-2.917260,-0.322473,-0.872382,-0.367371,0.000000,0.000000,0.000000,-1,0.073783,-0.539491,-1.050777,0.240640,-0.340936,-0.050949
"2019-04-05 10:23:39.997 +0000",1554459819.996506,-0.703507,1.062648,-2.962124,-0.314754,-0.873647,-0.371040,0.000000,0.000000,0.000000,-1,-0.775484,-1.103007,-0.666533,-0.129124,-0.347499,-0.405403
"2019-04-05 10:23:40.019 +0000",1554459820.018783,-0.692174,1.056590,-2.994350,-0.313901,-0.870684,-0.378651,0.000000,0.000000,0.000000,-1,-0.552291,-0.449055,-0.180988,-0.091479,-0.230146,-0.477795
"2019-04-05 10:23:40.041 +0000",1554459820.041088,-0.682455,1.041017,-3.012761,-0.318720,-0.862918,-0.392160,0.000000,0.000000,0.000000,-1,-1.070599,-0.204963,0.328966,0.001123,-0.182980,-0.087134
"2019-04-05 10:23:40.063 +0000",1554459820.063398,-0.689053,1.017190,-3.018888,-0.334280,-0.850634,-0.405806,0.000000,0.000000,0.000000,-1,-0.638318,-0.772000,0.617028,0.138281,0.090685,-0.011675
"2019-04-05 10:23:40.086 +0000",1554459820.085708,-0.712622,1.006148,-3.008444,-0.349872,-0.844777,-0.404898,0.000000,0.000000,0.000000,-1,-0.111334,-0.606851,0.320539,0.135425,0.036442,-0.045511
"2019-04-05 10:23:40.108 +0000",1554459820.107984,-0.724882,0.994586,-3.017568,-0.361262,-0.838533,-0.407863,0.000000,0.000000,0.000000,-1,-0.626823,-0.806139,0.057852,0.000055,-0.945967,0.309032
"2019-04-05 10:23:40.130 +0000",1554459820.130291,-0.708974,0.994336,-3.019440,-0.354864,-0.838397,-0.413717,0.000000,0.000000,0.000000,-1,-0.006133,0.401111,0.110669,-0.203669,-0.621579,0.534155
"2019-04-05 10:23:40.153 +0000",1554459820.152604,-0.755572,0.989129,-3.009111,-0.376739,-0.835548,-0.399910,0.000000,0.000000,0.000000,-1,0.174483,-2.566449,0.299600,0.511047,-1.072854,0.081901
"2019-04-05 10:23:40.175 +0000",1554459820.174908,-0.807277,1.006599,-2.978033,-0.386298,-0.845018,-0.369754,0.000000,0.000000,0.000000,-1,1.617611,-0.081899,-0.271396,0.888282,-0.958235,0.274341
"2019-04-05 10:23:40.197 +0000",1554459820.197216,-0.825647,1.041167,-2.952153,-0.371325,-0.862994,-0.342576,0.000000,0.000000,0.000000,-1,1.308949,-0.085723,-0.909132,0.132479,0.125140,0.100969
"2019-04-05 10:23:40.219 +0000",1554459820.219493,-0.853551,1.073935,-2.937348,-0.359227,-0.879083,-0.313319,0.000000,0.000000,0.000000,-1,1.223729,-0.949925,-0.745189,0.296864,-0.050635,-0.131886
"2019-04-05 10:23:40.242 +0000",1554459820.241801,-0.907415,1.099528,-2.902788,-0.357727,-0.890993,-0.279577,0.000000,0.000000,0.000000,-1,1.331030,-0.973862,-0.266082,0.266677,-0.658476,0.032369
"2019-04-05 10:23:40.264 +0000",1554459820.264122,-0.965395,1.119727,-2.853816,-0.358452,-0.899982,-0.248083,0.000000,0.000000,0.000000,-1,1.313277,-0.468828,-0.090694,0.196251,-0.115186,0.281393
"2019-04-05 10:23:40.286 +0000",1554459820.286418,-1.024425,1.135945,-2.795518,-0.359944,-0.906933,-0.218891,0.000000,0.000000,0.000000,-1,1.365445,-0.193959,0.044588,0.094228,0.121853,0.105792
"2019-04-05 10:23:40.309 +0000",1554459820.308725,-1.088422,1.149377,-2.728816,-0.362381,-0.912509,-0.189754,0.000000,0.000000,0.000000,-1,1.373265,-0.138356,0.107365,0.062577,-0.016186,0.118587
"2019-04-05 10:23:40.331 +0000",1554459820.331002,-1.156528,1.159554,-2.659905,-0.365934,-0.916625,-0.160907,0.000000,0.000000,0.000000,-1,1.274204,-0.321541,0.146165,0.141539,0.014907,0.156665
"2019-04-05 10:23:40.353 +0000",1554459820.353308,-1.233020,1.167141,-2.590311,-0.370588,-0.919631,-0.130164,0.000000,0.000000,0.000000,-1,1.283931,-0.656214,0.126811,0.209593,0.121047,0.008781
"2019-04-05 10:23:40.376 +0000",1554459820.375618,-1.312720,1.173433,-2.516785,-0.374172,-0.922085,-0.098767,0.000000,0.000000,0.000000,-1,1.351676,-0.406616,0.087408,0.286175,0.113155,0.028226
"2019-04-05 10:23:40.398 +0000",1554459820.397928,-1.390808,1.178523,-2.437810,-0.376115,-0.924042,-0.068437,0.000000,0.000000,0.000000,-1,1.359348,-0.174126,0.084107,0.318818,0.077302,0.039857
"2019-04-05 10:23:40.420 +0000",1554459820.420233,-1.460694,1.179167,-2.366385,-0.379383,-0.924289,-0.041940,0.000000,0.000000,0.000000,-1,1.111481,-0.168846,0.204286,0.283909,0.108447,-0.101080
"2019-04-05 10:23:40.443 +0000",1554459820.442511,-1.516480,1.173758,-2.313203,-0.386119,-0.922210,-0.020993,0.000000,0.000000,0.000000,-1,0.760856,-0.346690,0.379390,0.199458,0.057128,-0.099292
"2019-04-05 10:23:40.465 +0000",1554459820.464818,-1.552266,1.163755,-2.280704,-0.395826,-0.918296,-0.007336,0.000000,0.000000,0.000000,-1,0.442952,-0.177739,0.522898,0.186979,0.044807,-0.046818
"2019-04-05 10:23:40.487 +0000",1554459820.487138,-1.569464,1.150970,-2.267059,-0.407602,-0.913160,-0.000543,0.000000,0.000000,0.000000,-1,0.111946,-0.263800,0.571901,0.239908,-0.075946,-0.060218
"2019-04-05 10:23:40.509 +0000",1554459820.509435,-1.571513,1.139689,-2.270675,-0.417877,-0.908504,0.000300,0.000000,0.000000,0.000000,-1,-0.185760,-0.226219,0.461032,0.206130,-0.193318,-0.135965
"2019-04-05 10:23:40.532 +0000",1554459820.531743,-1.560464,1.130670,-2.291673,-0.426031,-0.904698,-0.004402,0.000000,0.000000,0.000000,-1,-0.559876,-0.414772,0.414164,0.099050,-0.242915,-0.232674
"2019-04-05 10:23:40.554 +0000",1554459820.554021,-1.526949,1.118049,-2.342556,-0.437018,-0.899249,-0.019174,0.000000,0.000000,0.000000,-1,-1.315720,-0.714556,0.593899,0.269735,-0.375211,-0.201620
"2019-04-05 10:23:40.576 +0000",1554459820.576322,-1.472109,1.101110,-2.433677,-0.450405,-0.891710,-0.044594,0.000000,0.000000,0.000000,-1,-2.191458,-1.509284,0.677492,0.487926,-0.345656,-0.146065
"2019-04-05 10:23:40.599 +0000",1554459820.598636,-1.398627,1.075310,-2.558981,-0.468430,-0.879738,-0.081456,0.000000,0.000000,0.000000,-1,-3.025048,-1.634511,0.833314,0.599671,-0.440636,-0.066661
"2019-04-05 10:23:40.621 +0000",1554459820.620945,-1.297907,1.038668,-2.706056,-0.488594,-0.861729,-0.136743,0.000000,0.000000,0.000000,-1,-3.781796,-0.887779,0.923123,0.557595,-0.744136,0.093225
"2019-04-05 10:23:40.643 +0000",1554459820.643221,-1.182149,0.998483,-2.846993,-0.501188,-0.840650,-0.205224,0.000000,0.000000,0.000000,-1,-3.477387,0.172950,0.339468,0.417082,-0.356279,0.261514
"2019-04-05 10:23:40.666 +0000",1554459820.665531,-1.079091,0.970750,-2.961137,-0.497782,-0.825310,-0.266603,0.000000,0.000000,0.000000,-1,-3.046820,0.393575,-0.234198,0.188670,-0.193199,0.246766
"2019-04-05 10:23:40.688 +0000",1554459820.687838,-0.989886,0.944101,-3.065780,-0.490269,-0.809970,-0.321847,0.000000,0.000000,0.000000,-1,-2.766925,-0.107676,-0.414469,-0.068157,-0.336866,0.125955
"2019-04-05 10:23:40.710 +0000",1554459820.710151,-0.938510,0.922295,3.126588,-0.487228,-0.796990,-0.356954,0.000000,0.000000,0.000000,-1,-2.515532,-1.624018,-0.646528,0.306014,-0.519477,0.562215
"2019-04-05 10:23:40.732 +0000",1554459820.732454,-0.921682,0.893826,3.030213,-0.499030,-0.779474,-0.378668,0.000000,0.000000,0.000000,-1,-3.248564,-2.996758,-0.536654,0.342978,-0.615775,0.289328
"2019-04-05 10:23:40.755 +0000",1554459820.754747,-0.902770,0.858052,2.929585,-0.513351,-0.756570,-0.405058,0.000000,0.000000,0.000000,-1,-2.993323,-2.394917,-0.488544,0.475845,-0.536276,0.104841
"2019-04-05 10:23:40.777 +0000",1554459820.777039,-0.889101,0.836369,2.854345,-0.520384,-0.742215,-0.422276,0.000000,0.000000,0.000000,-1,-2.063194,-1.679602,-0.755009,0.485655,-0.353687,0.434056
"2019-04-05 10:23:40.799 +0000",1554459820.799347,-0.877036,0.825476,2.785080,-0.521437,-0.734871,-0.433668,0.000000,0.000000,0.000000,-1,-1.921585,-1.892305,-1.059474,0.428237,-0.247765,0.291700
"2019-04-05 10:23:40.822 +0000",1554459820.821655,-0.869715,0.818223,2.711509,-0.522308,-0.729933,-0.440900,0.000000,0.000000,0.000000,-1,-1.906344,-2.169913,-1.274097,0.241058,-0.118426,0.020246
"2019-04-05 10:23:40.844 +0000",1554459820.843963,-0.867526,0.815515,2.639581,-0.522847,-0.728079,-0.443319,0.000000,0.000000,0.000000,-1,-1.640876,-2.300542,-1.363384,0.176945,0.003576,0.224081
"2019-04-05 10:23:40.866 +0000",1554459820.866242,-0.875904,0.817509,2.575558,-0.525427,-0.729444,-0.437993,0.000000,0.000000,0.000000,-1,-1.343512,-2.560960,-1.298918,0.268698,0.031797,0.414159
"2019-04-05 10:23:40.889 +0000",1554459820.888549,-0.894900,0.822209,2.519985,-0.530971,-0.732651,-0.425784,0.000000,0.000000,0.000000,-1,-1.071084,-2.674952,-1.222116,0.350857,0.052261,0.357165
"2019-04-05 10:23:40.911 +0000",1554459820.910857,-0.917039,0.832252,2.475063,-0.534398,-0.739450,-0.409430,0.000000,0.000000,0.000000,-1,-0.594035,-2.289603,-1.190588,0.410024,0.077004,0.315619
"2019-04-05 10:23:40.933 +0000",1554459820.933095,-0.941198,0.852113,2.448219,-0.532156,-0.752674,-0.387676,0.000000,0.000000,0.000000,-1,0.300626,-1.810708,-1.194456,0.449102,0.122058,0.334850
"2019-04-05 10:23:40.955 +0000",1554459820.955472,-0.962797,0.874093,2.443180,-0.526697,-0.766962,-0.366552,0.000000,0.000000,0.000000,-1,0.746217,-1.446348,-1.182613,0.304513,0.221262,0.204656
"2019-04-05 10:23:40.978 +0000",1554459820.977764,-1.002574,0.909308,2.452471,-0.517761,-0.789079,-0.330572,0.000000,0.000000,0.000000,-1,1.298236,-1.509940,-1.145836,0.261551,0.218888,0.060964
"2019-04-05 10:23:41.000 +0000",1554459821.000062,-1.061518,0.944386,2.478639,-0.511845,-0.810137,-0.285820,0.000000,0.000000,0.000000,-1,1.383193,-1.868009,-0.861018,0.178623,0.195177,-0.059044
"2019-04-05 10:23:41.022 +0000",1554459821.022366,-1.124234,0.967409,2.500907,-0.511791,-0.823418,-0.245057,0.000000,0.000000,0.000000,-1,0.663180,-1.963033,-0.541664,0.179607,0.144860,-0.218230
"2019-04-05 10:23:41.045 +0000",1554459821.044673,-1.163460,0.975366,2.493614,-0.514974,-0.827907,-0.222195,0.000000,0.000000,0.000000,-1,-0.448705,-2.190251,-0.326751,0.323080,-0.020527,-0.279667
"2019-04-05 10:23:41.067 +0000",1554459821.066951,-1.187806,0.972075,2.456855,-0.522755,-0.826057,-0.210610,0.000000,0.000000,0.000000,-1,-1.067984,-2.431118,-0.195861,0.413273,-0.147484,-0.244026
"2019-04-05 10:23:41.089 +0000",1554459821.089259,-1.192612,0.969280,2.416326,-0.525906,-0.824478,-0.208947,0.000000,0.000000,0.000000,-1,-0.920799,-1.176709,-0.302455,0.017239,-0.276031,-0.217063
"2019-04-05 10:23:41.112 +0000",1554459821.111567,-1.179960,0.970223,2.383582,-0.522501,-0.825012,-0.215287,0.000000,0.000000,0.000000,-1,-0.677422,-0.509032,-0.406280,-0.026038,-0.336090,-0.403319
"2019-04-05 10:23:41.134 +0000",1554459821.133875,-1.169309,0.976023,2.349754,-0.515765,-0.828275,-0.218967,0.000000,0.000000,0.000000,-1,-0.732821,-1.055045,-0.673136,0.040377,-0.143999,-0.499066
"2019-04-05 10:23:41.156 +0000",1554459821.156182,-1.167619,0.981203,2.302309,-0.511440,-0.831167,-0.218152,0.000000,0.000000,0.000000,-1,-1.161010,-1.906374,-0.642192,0.167858,-0.189203,-0.174625
"2019-04-05 10:23:41.178 +0000",1554459821.178480,-1.158103,0.984854,2.269372,-0.506558,-0.833191,-0.221790,0.000000,0.000000,0.000000,-1,-0.689526,-0.370933,-0.321914,0.247693,-0.135696,-0.022015
"2019-04-05 10:23:41.201 +0000",1554459821.200769,-1.143770,0.975192,2.211945,-0.510631,-0.827810,-0.232351,0.000000,0.000000,0.000000,-1,-1.611263,-2.213891,-0.268733,0.221554,0.110113,-0.054850
"2019-04-05 10:23:41.223 +0000",1554459821.223067,-1.162255,0.980269,2.191564,-0.510975,-0.830647,-0.221200,0.000000,0.000000,0.000000,-1,0.519303,-1.022323,-0.300727,0.547749,-1.082408,0.179162
"2019-04-05 10:23:41.245 +0000",1554459821.245384,-1.216425,0.984312,2.237627,-0.519048,-0.832892,-0.192043,0.000000,0.000000,0.000000,-1,1.123435,-0.637841,0.444165,-0.005564,-0.906030,0.389309
"2019-04-05 10:23:41.268 +0000",1554459821.267692,-1.264527,0.978959,2.285204,-0.531925,-0.829917,-0.168205,0.000000,0.000000,0.000000,-1,1.161211,0.115867,0.660788,0.117405,0.321952,0.240821
"2019-04-05 10:23:41.290 +0000",1554459821.289968,-1.293554,0.986720,2.338450,-0.530372,-0.834222,-0.150928,0.000000,0.000000,0.000000,-1,1.371492,0.528719,-0.441906,0.242118,0.683221,0.374195
"2019-04-05 10:23:41.312 +0000",1554459821.312278,-1.328863,1.010233,2.364930,-0.516179,-0.846956,-0.127376,0.000000,0.000000,0.000000,-1,0.619460,-1.200634,-0.933018,0.460317,-0.022215,-0.007954
"2019-04-05 10:23:41.335 +0000",1554459821.334584,-1.379503,1.030221,2.388422,-0.505242,-0.857413,-0.097846,0.000000,0.000000,0.000000,-1,0.903965,-1.230279,-0.677081,0.462944,-1.020700,-0.061425
"2019-04-05 10:23:41.357 +0000",1554459821.356892,-1.438527,1.048552,2.432554,-0.494470,-0.866702,-0.065787,0.000000,0.000000,0.000000,-1,1.196610,-0.845005,-0.648122,0.405343,-0.669782,0.242820
"2019-04-05 10:23:41.379 +0000",1554459821.379183,-1.500248,1.065976,2.485030,-0.482447,-0.875261,-0.034092,0.000000,0.000000,0.000000,-1,1.236844,-0.651888,-0.657262,0.234538,0.085222,-0.260768
"2019-04-05 10:23:41.401 +0000",1554459821.401486,-1.563341,1.079839,2.540413,-0.471457,-0.881882,-0.003515,0.000000,0.000000,0.000000,-1,1.173432,-0.655074,-0.519561,0.259207,0.020203,-0.146097
"2019-04-05 10:23:41.424 +0000",1554459821.423786,-1.625861,1.088929,2.592273,-0.462733,-0.886131,0.025506,0.000000,0.000000,0.000000,-1,1.029594,-0.830543,-0.389049,0.241617,-0.012551,-0.116906
"2019-04-05 10:23:41.446 +0000",1554459821.446101,-1.689326,1.094729,2.642707,-0.455072,-0.888804,0.054194,0.000000,0.000000,0.000000,-1,1.022383,-0.788449,-0.318715,0.218316,-0.035878,-0.110789
"2019-04-05 10:23:41.468 +0000",1554459821.468403,-1.749888,1.098234,2.694405,-0.447890,-0.890405,0.081082,0.000000,0.000000,0.000000,-1,1.026372,-0.549738,-0.303464,0.166045,-0.003898,-0.120099
"2019-04-05 10:23:41.491 +0000",1554459821.490680,-1.806320,1.099522,2.745497,-0.441487,-0.890991,0.105947,0.000000,0.000000,0.000000,-1,0.981452,-0.497900,-0.254322,0.178395,0.009429,-0.198552
"2019-04-05 10:23:41.513 +0000",1554459821.512988,-1.861933,1.099462,2.793078,-0.434968,-0.890963,0.130338,0.000000,0.000000,0.000000,-1,0.918632,-0.648005,-0.254257,0.209428,0.045473,-0.246488
"2019-04-05 10:23:41.535 +0000",1554459821.535295,-1.917851,1.099041,2.840489,-0.427355,-0.890772,0.154572,0.000000,0.000000,0.000000,-1,0.932296,-0.549777,-0.303504,0.277987,0.052607,-0.173340
"2019-04-05 10:23:41.558 +0000",1554459821.557604,-1.972712,1.097771,2.890334,-0.419278,-0.890194,0.178215,0.000000,0.000000,0.000000,-1,0.978715,-0.451401,-0.318004,0.312939,0.007122,-0.182015
"2019-04-05 10:23:41.580 +0000",1554459821.579911,-2.021790,1.094204,2.937362,-0.412885,-0.888563,0.199952,0.000000,0.000000,0.000000,-1,0.934271,-0.172911,-0.190238,0.289457,-0.001436,-0.241762
"2019-04-05 10:23:41.602 +0000",1554459821.602212,-2.053714,1.087285,2.975955,-0.411728,-0.885368,0.215879,0.000000,0.000000,0.000000,-1,0.760870,0.197955,-0.018688,0.191223,-0.042046,-0.261656
"2019-04-05 10:23:41.624 +0000",1554459821.624496,-2.069690,1.080201,2.998882,-0.413723,-0.882053,0.225424,0.000000,0.000000,0.000000,-1,0.465290,0.161372,0.096880,0.120846,-0.039563,-0.293905
"2019-04-05 10:23:41.647 +0000",1554459821.646806,-2.075320,1.074043,3.005453,-0.417195,-0.879135,0.230371,0.000000,0.000000,0.000000,-1,0.119442,-0.137175,0.233361,0.039601,-0.053177,-0.372141
"2019-04-05 10:23:41.669 +0000",1554459821.669112,-2.072494,1.068421,2.995008,-0.422171,-0.876441,0.231565,0.000000,0.000000,0.000000,-1,-0.221231,-0.340910,0.392572,0.059012,-0.180489,-0.314908
"2019-04-05 10:23:41.691 +0000",1554459821.691420,-2.055168,1.064523,2.964289,-0.429140,-0.874558,0.225805,0.000000,0.000000,0.000000,-1,-0.693705,-0.434148,0.509808,0.228746,-0.224105,-0.256612
"2019-04-05 10:23:41.714 +0000",1554459821.713698,-2.013285,1.064243,2.905519,-0.438439,-0.874422,0.207743,0.000000,0.000000,0.000000,-1,-1.431984,-0.415517,0.637102,0.246270,-0.223112,-0.389826
"2019-04-05 10:23:41.736 +0000",1554459821.736006,-1.938540,1.065364,2.810441,-0.451813,-0.874965,0.174070,0.000000,0.000000,0.000000,-1,-2.223930,-0.442139,0.837967,0.220154,-0.292469,-0.312193
"2019-04-05 10:23:41.758 +0000",1554459821.758314,-1.835880,1.064350,2.669343,-0.468129,-0.874474,0.127084,0.000000,0.000000,0.000000,-1,-3.314693,-1.377650,1.122445,0.339299,-0.306679,-0.316568
"2019-04-05 10:23:41.781 +0000",1554459821.780622,-1.734758,1.056975,2.504192,-0.484917,-0.870873,0.080228,0.000000,0.000000,0.000000,-1,-3.386003,-1.952800,0.957565,0.577355,-0.422325,-0.263516
"2019-04-05 10:23:41.803 +0000",1554459821.802918,-1.635325,1.052759,2.368374,-0.494146,-0.868793,0.031931,0.000000,0.000000,0.000000,-1,-2.663767,-0.031221,0.261001,0.292363,-0.382428,-0.024652
"2019-04-05 10:23:41.825 +0000",1554459821.825207,-1.522571,1.053829,2.261228,-0.493672,-0.869322,-0.023826,0.000000,0.000000,0.000000,-1,-2.273288,1.233122,-0.166876,0.274159,-0.391893,-0.147378
"2019-04-05 10:23:41.848 +0000",1554459821.847516,-1.414980,1.057197,2.159679,-0.485363,-0.870982,-0.076246,0.000000,0.000000,0.000000,-1,-2.248998,0.309172,-0.514700,0.353893,-0.546514,-0.168490
"2019-04-05 10:23:41.870 +0000",1554459821.869823,-1.334719,1.063006,2.044596,-0.472761,-0.873821,-0.113729,0.000000,0.000000,0.000000,-1,-2.477527,-1.498222,-0.884562,0.374906,-0.554875,0.049016
"2019-04-05 10:23:41.892 +0000",1554459821.892116,-1.274912,1.071099,1.927729,-0.458337,-0.877728,-0.139716,0.000000,0.000000,0.000000,-1,-2.234004,-2.063412,-1.053116,0.254465,-0.405841,0.226691
"2019-04-05 10:23:41.914 +0000",1554459821.914407,-1.229394,1.077188,1.820362,-0.446461,-0.880629,-0.158634,0.000000,0.000000,0.000000,-1,-2.024122,-2.187026,-0.911558,0.278340,-0.272630,0.136646
"2019-04-05 10:23:41.937 +0000",1554459821.936716,-1.188797,1.078920,1.721605,-0.438239,-0.881448,-0.176055,0.000000,0.000000,0.000000,-1,-1.886709,-2.028957,-0.769000,0.357230,-0.120536,0.047439
"2019-04-05 10:23:41.959 +0000",1554459821.959024,-1.151263,1.078225,1.627143,-0.431883,-0.881120,-0.192625,0.000000,0.000000,0.000000,-1,-1.855392,-2.084303,-0.769735,0.317656,-0.029250,0.084731
"2019-04-05 10:23:41.981 +0000",1554459821.981332,-1.115784,1.077050,1.533471,-0.425709,-0.880563,-0.208279,0.000000,0.000000,0.000000,-1,-1.785286,-2.086863,-0.803177,0.186512,0.051233,0.092526
"2019-04-05 10:23:42.004 +0000",1554459822.003643,-1.085065,1.077155,1.446690,-0.419029,-0.880613,-0.221213,0.000000,0.000000,0.000000,-1,-1.549777,-2.063697,-0.882677,0.175666,0.095366,0.093848
"2019-04-05 10:23:42.026 +0000",1554459822.025918,-1.060782,1.082259,1.366400,-0.409607,-0.883020,-0.229124,0.000000,0.000000,0.000000,-1,-1.274728,-2.113614,-1.096729,0.234375,0.092066,0.129210
"2019-04-05 10:23:42.048 +0000",1554459822.048235,-1.043446,1.092765,1.289687,-0.397534,-0.887902,-0.231509,0.000000,0.000000,0.000000,-1,-1.099939,-2.379858,-1.253080,0.241421,0.071481,0.081668
"2019-04-05 10:23:42.071 +0000",1554459822.070542,-1.030537,1.106216,1.213725,-0.384235,-0.894010,-0.230457,0.000000,0.000000,0.000000,-1,-0.954676,-2.416905,-1.306032,0.166995,0.040326,0.063969
"2019-04-05 10:23:42.093 +0000",1554459822.092850,-1.016991,1.121732,1.146435,-0.369234,-0.900854,-0.228317,0.000000,0.000000,0.000000,-1,-0.654351,-1.871665,-1.266084,0.116320,0.069982,0.078979
"2019-04-05 10:23:42.115 +0000",1554459822.115144,-1.002968,1.139705,1.093208,-0.352288,-0.908510,-0.224728,0.000000,0.000000,0.000000,-1,-0.311278,-1.375486,-1.193428,0.100793,0.145296,0.033001
"2019-04-05 10:23:42.137 +0000",1554459822.137436,-0.992965,1.158213,1.050224,-0.335878,-0.916088,-0.219017,0.000000,0.000000,0.000000,-1,-0.181567,-1.325771,-1.075962,0.077684,0.173778,-0.026985
"2019-04-05 10:23:42.160 +0000",1554459822.159743,-0.994165,1.175573,1.016120,-0.322759,-0.922911,-0.209911,0.000000,0.000000,0.000000,-1,0.017069,-1.545316,-0.928785,0.067433,0.198668,-0.125584
"2019-04-05 10:23:42.182 +0000",1554459822.182034,-1.013327,1.194527,0.998086,-0.311819,-0.930042,-0.194397,0.000000,0.000000,0.000000,-1,0.300816,-1.589202,-0.856323,0.031546,0.189579,-0.101852
"2019-04-05 10:23:42.204 +0000",1554459822.204359,-1.042527,1.214679,0.993826,-0.301112,-0.937257,-0.175727,0.000000,0.000000,0.000000,-1,0.460644,-1.434967,-0.753418,0.024150,0.171266,-0.134301
"2019-04-05 10:23:42.227 +0000",1554459822.226660,-1.078766,1.232051,0.998810,-0.292885,-0.943172,-0.156986,0.000000,0.000000,0.000000,-1,0.398695,-1.441641,-0.563582,0.015663,0.196621,-0.198208
"2019-04-05 10:23:42.249 +0000",1554459822.248945,-1.111381,1.242495,0.998798,-0.289003,-0.946591,-0.142976,0.000000,0.000000,0.000000,-1,0.082332,-1.433465,-0.323126,0.034562,0.196073,-0.212035
"2019-04-05 10:23:42.271 +0000",1554459822.271252,-1.126264,1.244932,0.982048,-0.289015,-0.947374,-0.137666,0.000000,0.000000,0.000000,-1,-0.295713,-1.371430,-0.145200,0.052092,0.136416,-0.338057
"2019-04-05 10:23:42.294 +0000",1554459822.293562,-1.131494,1.243652,0.954726,-0.290828,-0.946964,-0.136668,0.000000,0.000000,0.000000,-1,-0.421021,-1.371363,-0.114241,0.012676,0.113178,-0.383748
"2019-04-05 10:23:42.316 +0000",1554459822.315869,-1.123301,1.242954,0.920098,-0.290295,-0.946739,-0.139333,0.000000,0.000000,0.000000,-1,-0.484020,-0.916794,-0.259725,-0.014088,0.052406,-0.380183
"2019-04-05 10:23:42.338 +0000",1554459822.338145,-1.098355,1.245685,0.873388,-0.284426,-0.947615,-0.145353,0.000000,0.000000,0.000000,-1,-0.597865,-0.984131,-0.482473,-0.021574,-0.037721,-0.494219
"2019-04-05 10:23:42.360 +0000",1554459822.360454,-1.069993,1.246856,0.809142,-0.279215,-0.947989,-0.152827,0.000000,0.000000,0.000000,-1,-0.965710,-1.741874,-0.433726,-0.044652,-0.089716,-0.459615
"2019-04-05 10:23:42.383 +0000",1554459822.382762,-1.034682,1.245826,0.743333,-0.274485,-0.947660,-0.163088,0.000000,0.000000,0.000000,-1,-0.527170,-0.522664,-0.449323,0.013041,-0.148058,-0.217359
"2019-04-05 10:23:42.405 +0000",1554459822.405048,-1.005153,1.248417,0.707068,-0.267477,-0.948484,-0.169805,0.000000,0.000000,0.000000,-1,-0.442365,-0.421097,-0.278993,-0.030603,-0.110659,-0.162654
"2019-04-05 10:23:42.427 +0000",1554459822.427360,-1.006105,1.251517,0.677913,-0.265154,-0.949462,-0.167976,0.000000,0.000000,0.000000,-1,0.033142,-1.444805,-0.387554,-0.059035,-0.400438,-0.092644
"2019-04-05 10:23:42.450 +0000",1554459822.449681,-1.045716,1.266231,0.709793,-0.259480,-0.953977,-0.150324,0.000000,0.000000,0.000000,-1,1.027046,0.214414,-0.245548,-0.226863,-0.180483,0.222544
"2019-04-05 10:23:42.472 +0000",1554459822.471959,-1.097544,1.274111,0.764726,-0.260220,-0.956311,-0.133249,0.000000,0.000000,0.000000,-1,0.574218,-0.414030,0.165493,-0.394718,-0.099155,0.217081
"2019-04-05 10:23:42.494 +0000",1554459822.494272,-1.159922,1.275670,0.806331,-0.266653,-0.956765,-0.116173,0.000000,0.000000,0.000000,-1,0.592310,-1.200266,0.120377,0.162939,0.290078,0.086525
"2019-04-05 10:23:42.517 +0000",1554459822.516579,-1.227638,1.282200,0.850299,-0.268014,-0.958644,-0.095760,0.000000,0.000000,0.000000,-1,0.606263,-1.125080,-0.161887,0.219567,0.242412,0.249217
"2019-04-05 10:23:42.539 +0000",1554459822.538887,-1.289477,1.294865,0.895493,-0.261733,-0.962172,-0.075636,0.000000,0.000000,0.000000,-1,0.812273,-0.637845,-0.478740,0.164962,-0.153184,0.027373
