timestamp,timeIntervalSince1970,attitude.roll,attitude.pitch,attitude.yaw,gravity.x,gravity.y,gravity.z,magneticField.x,magneticField.y,magneticField.z,magneticField.accuracy,rotationRate.x,rotationRate.y,rotationRate.z,userAcceleration.x,userAcceleration.y,userAcceleration.z
"2019-04-16 05:13:38.758 +0000",1555391618.758435,0.189196,0.747139,-0.080769,0.137974,-0.679543,-0.720545,0.000000,0.000000,0.000000,-1,-0.747142,-2.009438,-0.416266,-0.084508,0.094857,-0.112249
"2019-04-16 05:13:38.781 +0000",1555391618.780712,0.160410,0.726355,-0.096076,0.119409,-0.664149,-0.738002,0.000000,0.000000,0.000000,-1,-0.987655,-1.607602,-0.810278,-0.120554,0.107035,-0.093480
"2019-04-16 05:13:38.804 +0000",1555391618.803509,0.137411,0.689704,-0.117578,0.105670,-0.636309,-0.764163,0.000000,0.000000,0.000000,-1,-1.890522,-1.708501,-1.036788,-0.329792,0.140337,-0.020230
"2019-04-16 05:13:38.826 +0000",1555391618.825816,0.115390,0.635499,-0.138663,0.092657,-0.593579,-0.799424,0.000000,0.000000,0.000000,-1,-2.464600,-1.421913,-0.983754,-0.339804,0.130048,0.032593
"2019-04-16 05:13:38.848 +0000",1555391618.848094,0.107194,0.590036,-0.151321,0.088899,-0.556391,-0.826151,0.000000,0.000000,0.000000,-1,-1.410294,0.177235,-0.476470,-0.297868,0.064845,0.045054
"2019-04-16 05:13:38.870 +0000",1555391618.870403,0.110883,0.573458,-0.159059,0.092954,-0.542540,-0.834871,0.000000,0.000000,0.000000,-1,-0.348925,-0.364282,-0.338471,-0.224866,0.032408,0.165987
"2019-04-16 05:13:38.893 +0000",1555391618.892708,0.102007,0.568486,-0.167610,0.085814,-0.538357,-0.838336,0.000000,0.000000,0.000000,-1,-0.151121,-0.665753,-0.381610,0.001085,0.080776,-0.225857
"2019-04-16 05:13:38.915 +0000",1555391618.915016,0.090751,0.565630,-0.180501,0.076511,-0.535948,-0.840777,0.000000,0.000000,0.000000,-1,-0.030362,-0.941942,-0.558985,-0.196705,0.108519,-0.224531
"2019-04-16 05:13:38.937 +0000",1555391618.937294,0.079430,0.562055,-0.192572,0.067140,-0.532926,-0.843494,0.000000,0.000000,0.000000,-1,-0.217342,-0.422122,-0.358991,-0.248613,0.181531,-0.053234
"2019-04-16 05:13:38.960 +0000",1555391618.959604,0.068146,0.555881,-0.199955,0.057841,-0.527692,-0.847464,0.000000,0.000000,0.000000,-1,-0.303002,-1.069146,-0.339638,-0.326197,0.140272,-0.127069
"2019-04-16 05:13:38.982 +0000",1555391618.981911,0.038002,0.540608,-0.214661,0.032575,-0.514657,-0.856777,0.000000,0.000000,0.000000,-1,-0.937884,-2.034549,-0.837481,-0.203580,0.112908,0.086574
"2019-04-16 05:13:39.004 +0000",1555391619.004201,0.003375,0.508186,-0.255944,0.002948,-0.486593,-0.873624,0.000000,0.000000,0.000000,-1,-1.690056,-2.818576,-2.137133,-0.145252,0.026251,0.111569
"2019-04-16 05:13:39.026 +0000",1555391619.026495,-0.042109,0.470916,-0.320842,-0.037514,-0.453703,-0.890363,0.000000,0.000000,0.000000,-1,-1.483523,-3.480211,-2.747720,-0.277503,0.097654,0.139341
"2019-04-16 05:13:39.049 +0000",1555391619.048804,-0.072315,0.449023,-0.408467,-0.065090,-0.434086,-0.898517,0.000000,0.000000,0.000000,-1,-1.130384,-2.992479,-3.589264,-0.448567,-0.102779,0.089740
"2019-04-16 05:13:39.071 +0000",1555391619.071111,-0.103744,0.437371,-0.491914,-0.093810,-0.423559,-0.900998,0.000000,0.000000,0.000000,-1,-0.551533,-3.039656,-3.127116,-0.076188,-0.097818,0.253873
"2019-04-16 05:13:39.093 +0000",1555391619.093389,-0.147576,0.438185,-0.554243,-0.133149,-0.424297,-0.895680,0.000000,0.000000,0.000000,-1,-0.249391,-3.170112,-2.220234,0.028687,-0.037343,0.386907
"2019-04-16 05:13:39.116 +0000",1555391619.115691,-0.205973,0.432220,-0.604363,-0.185711,-0.418888,-0.888844,0.000000,0.000000,0.000000,-1,-0.799132,-3.974704,-1.859773,0.006863,0.094257,0.414800
"2019-04-16 05:13:39.138 +0000",1555391619.138005,-0.287894,0.419817,-0.656569,-0.259277,-0.407593,-0.875582,0.000000,0.000000,0.000000,-1,-1.217032,-4.901967,-2.061373,-0.014099,-0.029312,0.418840
"2019-04-16 05:13:39.160 +0000",1555391619.160283,-0.364984,0.403567,-0.721129,-0.328261,-0.392701,-0.859087,0.000000,0.000000,0.000000,-1,-1.769661,-4.400072,-2.321616,-0.106294,0.015733,0.335573
"2019-04-16 05:13:39.183 +0000",1555391619.182594,-0.434872,0.378176,-0.786978,-0.391525,-0.369226,-0.842840,0.000000,0.000000,0.000000,-1,-2.259307,-4.259413,-1.840504,-0.079224,0.196298,0.334906
"2019-04-16 05:13:39.205 +0000",1555391619.204898,-0.514119,0.351224,-0.845012,-0.461747,-0.344047,-0.817570,0.000000,0.000000,0.000000,-1,-2.043247,-4.595869,-1.707168,-0.040435,0.107689,0.318608
"2019-04-16 05:13:39.227 +0000",1555391619.227190,-0.585766,0.355265,-0.915089,-0.518315,-0.347839,-0.781254,0.000000,0.000000,0.000000,-1,-0.941252,-4.092975,-3.163833,0.171636,0.018478,0.315555
"2019-04-16 05:13:39.249 +0000",1555391619.249483,-0.645930,0.390520,-0.983404,-0.556622,-0.380670,-0.738419,0.000000,0.000000,0.000000,-1,-0.044674,-3.607307,-3.006490,0.226193,0.106286,0.287308
"2019-04-16 05:13:39.272 +0000",1555391619.271790,-0.707330,0.423062,-1.017889,-0.592517,-0.410554,-0.693086,0.000000,0.000000,0.000000,-1,0.431228,-3.186394,-1.414687,-0.187832,0.366212,0.300340
"2019-04-16 05:13:39.294 +0000",1555391619.294101,-0.775651,0.449318,-1.017878,-0.630683,-0.434351,-0.643100,0.000000,0.000000,0.000000,-1,1.094524,-3.048791,-0.577019,-0.123421,0.216532,0.241931
"2019-04-16 05:13:39.316 +0000",1555391619.316378,-0.849583,0.480594,-1.004971,-0.665932,-0.462306,-0.585498,0.000000,0.000000,0.000000,-1,1.503862,-3.032196,-0.784161,0.186272,0.077266,0.210849
"2019-04-16 05:13:39.339 +0000",1555391619.338698,-0.919822,0.520610,-0.984263,-0.690103,-0.497410,-0.525681,0.000000,0.000000,0.000000,-1,1.889017,-2.488590,-0.858292,0.026850,0.105823,0.285295
"2019-04-16 05:13:39.361 +0000",1555391619.360992,-0.984997,0.564178,-0.956593,-0.704137,-0.534721,-0.467187,0.000000,0.000000,0.000000,-1,2.045806,-2.206963,-1.214279,-0.106516,0.241081,0.278558
"2019-04-16 05:13:39.383 +0000",1555391619.383301,-1.046041,0.606827,-0.934128,-0.710931,-0.570264,-0.411554,0.000000,0.000000,0.000000,-1,1.391671,-2.297612,-1.043800,-0.278479,0.056729,0.285028
"2019-04-16 05:13:39.406 +0000",1555391619.405584,-1.110000,0.634357,-0.926465,-0.721443,-0.592660,-0.358154,0.000000,0.000000,0.000000,-1,0.560366,-2.773416,-0.883625,-0.350899,-0.033836,0.156830
"2019-04-16 05:13:39.428 +0000",1555391619.427899,-1.172257,0.653374,-0.924286,-0.731808,-0.607869,-0.308144,0.000000,0.000000,0.000000,-1,0.296821,-2.687639,-0.622745,-0.189228,-0.246272,0.003777
"2019-04-16 05:13:39.450 +0000",1555391619.450192,-1.228790,0.659933,-0.934306,-0.744278,-0.613064,-0.264960,0.000000,0.000000,0.000000,-1,0.000142,-2.548277,-0.498815,-0.192734,0.005322,0.280935
"2019-04-16 05:13:39.472 +0000",1555391619.472472,-1.283276,0.673914,-0.928855,-0.749309,-0.624049,-0.221582,0.000000,0.000000,0.000000,-1,0.547182,-2.091817,-0.539849,-0.312474,-0.149663,0.209283
"2019-04-16 05:13:39.495 +0000",1555391619.494778,-1.330921,0.688949,-0.921279,-0.749813,-0.635726,-0.183392,0.000000,0.000000,0.000000,-1,0.278831,-1.970149,-0.541044,-0.271763,-0.136338,0.228772
"2019-04-16 05:13:39.517 +0000",1555391619.517086,-1.380327,0.694621,-0.920742,-0.754402,-0.640094,-0.145454,0.000000,0.000000,0.000000,-1,0.033259,-2.167955,-0.131255,-0.309807,-0.265652,0.242469
"2019-04-16 05:13:39.539 +0000",1555391619.539395,-1.427102,0.696321,-0.920640,-0.759300,-0.641399,-0.109865,0.000000,0.000000,0.000000,-1,-0.032612,-2.001444,-0.009948,-0.211327,-0.376270,0.193681
"2019-04-16 05:13:39.562 +0000",1555391619.561683,-1.465641,0.691070,-0.926668,-0.766308,-0.637362,-0.080880,0.000000,0.000000,0.000000,-1,-0.350931,-1.818175,0.336881,-0.141758,-0.309766,0.165917
"2019-04-16 05:13:39.584 +0000",1555391619.583980,-1.492744,0.676907,-0.938923,-0.777141,-0.626385,-0.060781,0.000000,0.000000,0.000000,-1,-0.516947,-1.408142,0.774803,-0.056645,-0.416462,0.143285
"2019-04-16 05:13:39.606 +0000",1555391619.606288,-1.512008,0.653618,-0.945573,-0.792517,-0.608063,-0.046644,0.000000,0.000000,0.000000,-1,-0.094780,-0.818474,1.156798,-0.090646,-0.306335,0.133040
"2019-04-16 05:13:39.629 +0000",1555391619.628584,-1.529422,0.626507,-0.934421,-0.809387,-0.586318,-0.033507,0.000000,0.000000,0.000000,-1,0.547977,-0.383736,1.214000,-0.168548,-0.283692,0.156569
"2019-04-16 05:13:39.651 +0000",1555391619.650873,-1.537749,0.596674,-0.949607,-0.826757,-0.561894,-0.027332,0.000000,0.000000,0.000000,-1,-1.942404,-1.167178,1.530023,-0.155542,-0.175380,0.161686
"2019-04-16 05:13:39.673 +0000",1555391619.673182,-1.525271,0.557956,-1.010410,-0.847460,-0.529453,-0.038607,0.000000,0.000000,0.000000,-1,-2.245093,-0.913241,1.698834,-0.102125,-0.060452,0.189089
"2019-04-16 05:13:39.695 +0000",1555391619.695490,-1.532964,0.517500,-1.059317,-0.868437,-0.494709,-0.032871,0.000000,0.000000,0.000000,-1,-1.787636,-1.724783,1.742209,0.111967,-0.167751,0.195865
"2019-04-16 05:13:39.718 +0000",1555391619.717767,-1.558210,0.479334,-1.093052,-0.887232,-0.461188,-0.011168,0.000000,0.000000,0.000000,-1,-1.054441,-1.781589,1.605328,0.412912,-0.577325,0.081740
"2019-04-16 05:13:39.740 +0000",1555391619.740074,-1.589879,0.448826,-1.105833,-0.900793,-0.433908,0.017192,0.000000,0.000000,0.000000,-1,-0.229539,-1.602146,1.155012,0.206045,-0.172354,0.145818
"2019-04-16 05:13:39.762 +0000",1555391619.762382,-1.619925,0.433512,-1.100601,-0.906401,-0.420061,0.044566,0.000000,0.000000,0.000000,-1,0.465333,-0.967455,0.423960,0.028670,-0.110472,0.110067
"2019-04-16 05:13:39.785 +0000",1555391619.784687,-1.638579,0.427120,-1.087090,-0.908073,-0.414251,0.061646,0.000000,0.000000,0.000000,-1,0.566302,-0.351923,0.291553,-0.023324,-0.245005,0.060699
"2019-04-16 05:13:39.807 +0000",1555391619.806968,-1.647918,0.412116,-1.075997,-0.913552,-0.400549,0.070595,0.000000,0.000000,0.000000,-1,0.513464,-0.208341,0.844778,-0.073814,-0.178918,0.122215
"2019-04-16 05:13:39.829 +0000",1555391619.829275,-1.658418,0.388301,-1.062560,-0.922003,-0.378616,0.080995,0.000000,0.000000,0.000000,-1,0.716167,-0.248110,1.036261,-0.141534,-0.130661,0.129043
"2019-04-16 05:13:39.852 +0000",1555391619.851584,-1.668703,0.365406,-1.047123,-0.929506,-0.357328,0.091296,0.000000,0.000000,0.000000,-1,0.665706,-0.175871,0.953723,-0.092818,-0.168017,0.083157
"2019-04-16 05:13:39.874 +0000",1555391619.873887,-1.676952,0.346319,-1.041564,-0.935334,-0.339438,0.099665,0.000000,0.000000,0.000000,-1,0.082354,-0.408501,0.665251,0.045838,-0.083109,0.155858
"2019-04-16 05:13:39.896 +0000",1555391619.896163,-1.687764,0.342867,-1.047270,-0.935360,-0.336188,0.109908,0.000000,0.000000,0.000000,-1,-0.328760,-0.629540,-0.144277,0.066997,-0.067239,0.117982
"2019-04-16 05:13:39.918 +0000",1555391619.918477,-1.698633,0.355249,-1.053112,-0.929910,-0.347824,0.119528,0.000000,0.000000,0.000000,-1,-0.281926,-0.501183,-0.677588,0.149514,-0.040360,0.142221
"2019-04-16 05:13:39.941 +0000",1555391619.940784,-1.705510,0.369895,-1.053723,-0.923918,-0.361518,0.125223,0.000000,0.000000,0.000000,-1,0.019808,-0.271741,-0.546758,0.242094,0.055228,0.164038
"2019-04-16 05:13:39.963 +0000",1555391619.963064,-1.711564,0.374560,-1.049580,-0.921463,-0.365863,0.130576,0.000000,0.000000,0.000000,-1,0.134633,-0.189952,-0.085953,0.178665,-0.000302,0.146799
"2019-04-16 05:13:39.985 +0000",1555391619.985370,-1.712770,0.378089,-1.053529,-0.920021,-0.369145,0.131504,0.000000,0.000000,0.000000,-1,-0.376134,-0.034275,-0.173151,-0.003838,0.015431,0.210980
"2019-04-16 05:13:40.008 +0000",1555391620.007672,-1.709577,0.385594,-1.064898,-0.917667,-0.376109,0.128178,0.000000,0.000000,0.000000,-1,-0.538601,-0.079222,-0.326649,-0.048428,-0.242253,0.223659
"2019-04-16 05:13:40.030 +0000",1555391620.029955,-1.707491,0.396298,-1.078819,-0.913891,-0.386006,0.125708,0.000000,0.000000,0.000000,-1,-0.730852,-0.182887,-0.391560,-0.060581,-0.213069,0.246805
"2019-04-16 05:13:40.052 +0000",1555391620.052292,-1.704224,0.404418,-1.098492,-0.911160,-0.393484,0.122301,0.000000,0.000000,0.000000,-1,-0.923063,-0.193125,-0.154608,-0.089374,-0.121836,0.294096
"2019-04-16 05:13:40.075 +0000",1555391620.074571,-1.698020,0.412831,-1.124829,-0.908586,-0.401204,0.116222,0.000000,0.000000,0.000000,-1,-1.198390,-0.213503,-0.304651,-0.018798,-0.170390,0.314076
"2019-04-16 05:13:40.097 +0000",1555391620.096879,-1.690260,0.419915,-1.151039,-0.906616,-0.407682,0.108826,0.000000,0.000000,0.000000,-1,-0.995028,-0.032594,0.011409,-0.038575,-0.149416,0.336822
"2019-04-16 05:13:40.119 +0000",1555391620.119157,-1.681115,0.413142,-1.172895,-0.910297,-0.401489,0.100832,0.000000,0.000000,0.000000,-1,-0.791963,-0.005677,0.588109,-0.026257,-0.136506,0.300200
"2019-04-16 05:13:40.141 +0000",1555391620.141463,-1.675458,0.402472,-1.189745,-0.915061,-0.391694,0.096123,0.000000,0.000000,0.000000,-1,-0.637259,0.008350,0.380880,-0.062234,-0.160552,0.259712
"2019-04-16 05:13:40.164 +0000",1555391620.163773,-1.662908,0.405515,-1.209376,-0.915004,-0.394492,0.084522,0.000000,0.000000,0.000000,-1,-0.864244,0.345230,-0.278454,-0.028524,-0.159371,0.232327
"2019-04-16 05:13:40.186 +0000",1555391620.186080,-1.645852,0.420608,-1.225046,-0.910271,-0.408315,0.068450,0.000000,0.000000,0.000000,-1,-0.630661,0.571874,-0.864660,0.023750,-0.100016,0.195069
"2019-04-16 05:13:40.208 +0000",1555391620.208357,-1.624982,0.450273,-1.235777,-0.899007,-0.435211,0.048761,0.000000,0.000000,0.000000,-1,-0.453563,0.792310,-1.459520,0.058034,-0.014877,0.167334
"2019-04-16 05:13:40.231 +0000",1555391620.230668,-1.607112,0.477883,-1.245167,-0.887385,-0.459900,0.032241,0.000000,0.000000,0.000000,-1,-0.451701,0.412973,-0.938846,0.134043,-0.018417,0.115815
"2019-04-16 05:13:40.253 +0000",1555391620.252970,-1.602119,0.487185,-1.251289,-0.883221,-0.468140,0.027674,0.000000,0.000000,0.000000,-1,-0.098991,-0.053891,-0.186505,0.118282,0.025574,0.098089
"2019-04-16 05:13:40.275 +0000",1555391620.275251,-1.604099,0.491189,-1.250259,-0.881284,-0.471674,0.029360,0.000000,0.000000,0.000000,-1,0.080452,-0.037766,-0.171685,0.148191,-0.058935,0.049894
"2019-04-16 05:13:40.298 +0000",1555391620.297560,-1.602762,0.487311,-1.247861,-0.883144,-0.468252,0.028240,0.000000,0.000000,0.000000,-1,0.106673,0.143994,0.383716,0.224697,-0.152552,0.083881
"2019-04-16 05:13:40.320 +0000",1555391620.319866,-1.601578,0.478579,-1.245855,-0.887230,-0.460518,0.027319,0.000000,0.000000,0.000000,-1,0.109866,0.107804,0.250060,0.224815,0.005089,0.113306
"2019-04-16 05:13:40.342 +0000",1555391620.342174,-1.597532,0.487157,-1.241268,-0.883352,-0.468115,0.023623,0.000000,0.000000,0.000000,-1,0.237447,0.396538,-0.810629,0.197286,-0.090433,0.171553
"2019-04-16 05:13:40.364 +0000",1555391620.364453,-1.587546,0.507690,-1.233749,-0.873748,-0.486160,0.014636,0.000000,0.000000,0.000000,-1,0.255094,0.638811,-0.830140,0.171279,-0.080705,0.169125
"2019-04-16 05:13:40.387 +0000",1555391620.386747,-1.580427,0.516636,-1.230453,-0.869446,-0.493958,0.008373,0.000000,0.000000,0.000000,-1,0.066879,0.230442,-0.161666,0.258896,-0.103256,0.213047
"2019-04-16 05:13:40.409 +0000",1555391620.409068,-1.583181,0.514478,-1.228630,-0.870483,-0.492080,0.010782,0.000000,0.000000,0.000000,-1,0.059061,-0.281292,0.160452,0.246765,-0.153260,0.241263
"2019-04-16 05:13:40.431 +0000",1555391620.431374,-1.589640,0.513480,-1.227507,-0.870886,-0.491212,0.016413,0.000000,0.000000,0.000000,-1,0.051065,-0.217814,0.034590,0.110906,-0.138320,0.187979
"2019-04-16 05:13:40.454 +0000",1555391620.453649,-1.595741,0.509456,-1.228126,-0.872738,-0.487703,0.021775,0.000000,0.000000,0.000000,-1,-0.039792,-0.308152,0.223915,0.258725,-0.128829,0.211761
"2019-04-16 05:13:40.476 +0000",1555391620.475949,-1.598507,0.506683,-1.231940,-0.874023,-0.485280,0.024226,0.000000,0.000000,0.000000,-1,-0.244902,-0.110929,0.031033,0.256103,-0.131328,0.219976
"2019-04-16 05:13:40.498 +0000",1555391620.498269,-1.594271,0.507071,-1.240877,-0.873930,-0.485619,0.020519,0.000000,0.000000,0.000000,-1,-0.345102,-0.016171,0.051238,0.161115,-0.206382,0.174274
"2019-04-16 05:13:40.521 +0000",1555391620.520546,-1.596905,0.503199,-1.244993,-0.875746,-0.482230,0.022870,0.000000,0.000000,0.000000,-1,-0.026166,-0.276345,0.176498,0.164564,-0.120553,0.187824
"2019-04-16 05:13:40.543 +0000",1555391620.542856,-1.601873,0.506682,-1.244941,-0.873937,-0.485279,0.027168,0.000000,0.000000,0.000000,-1,-0.063470,-0.117382,-0.385653,0.114828,-0.100246,0.161797
"2019-04-16 05:13:40.565 +0000",1555391620.565162,-1.600624,0.520545,-1.244219,-0.867162,-0.497353,0.025873,0.000000,0.000000,0.000000,-1,0.068305,0.143404,-0.720377,0.096502,-0.141746,0.172553
"2019-04-16 05:13:40.587 +0000",1555391620.587470,-1.595404,0.540878,-1.240594,-0.856997,-0.514889,0.021093,0.000000,0.000000,0.000000,-1,0.161409,0.405606,-1.003027,0.027225,-0.059483,0.126857
"2019-04-16 05:13:40.610 +0000",1555391620.609748,-1.590556,0.562922,-1.235902,-0.845534,-0.533660,0.016709,0.000000,0.000000,0.000000,-1,0.100181,0.277950,-0.923766,0.028716,-0.103563,0.153350
"2019-04-16 05:13:40.632 +0000",1555391620.632056,-1.584598,0.578667,-1.237868,-0.837113,-0.546908,0.011554,0.000000,0.000000,0.000000,-1,-0.161592,0.217924,-0.511486,0.020752,-0.005475,0.197048
"2019-04-16 05:13:40.654 +0000",1555391620.654349,-1.580632,0.583387,-1.239502,-0.834561,-0.550854,0.008209,0.000000,0.000000,0.000000,-1,0.017283,0.138767,-0.004566,0.123426,-0.054401,0.220597
"2019-04-16 05:13:40.677 +0000",1555391620.676658,-1.577799,0.581476,-1.243791,-0.835633,-0.549258,0.005852,0.000000,0.000000,0.000000,-1,-0.205563,-0.082206,0.137481,0.042725,-0.101652,0.224434
"2019-04-16 05:13:40.699 +0000",1555391620.698949,-1.588080,0.575335,-1.243733,-0.838885,-0.544116,0.014501,0.000000,0.000000,0.000000,-1,0.011872,-0.638603,0.337278,0.104220,-0.050168,0.247951
"2019-04-16 05:13:40.721 +0000",1555391620.721258,-1.601427,0.567960,-1.242813,-0.842605,-0.537913,0.025818,0.000000,0.000000,0.000000,-1,0.091904,-0.496197,0.252932,0.139480,-0.186757,0.191650
"2019-04-16 05:13:40.744 +0000",1555391620.743564,-1.611246,0.570891,-1.238885,-0.840732,-0.540382,0.034026,0.000000,0.000000,0.000000,-1,0.140960,-0.239027,-0.372081,0.266254,-0.317513,0.216157
"2019-04-16 05:13:40.766 +0000",1555391620.765841,-1.614217,0.584815,-1.236671,-0.833028,-0.552045,0.036193,0.000000,0.000000,0.000000,-1,-0.027139,-0.007954,-0.722796,0.143209,-0.097613,0.203248
"2019-04-16 05:13:40.788 +0000",1555391620.788149,-1.613513,0.604168,-1.239670,-0.822224,-0.568078,0.035144,0.000000,0.000000,0.000000,-1,-0.213471,-0.102470,-0.953435,0.211064,0.019326,0.238110
"2019-04-16 05:13:40.810 +0000",1555391620.810460,-1.616472,0.618603,-1.246545,-0.813840,-0.579897,0.037199,0.000000,0.000000,0.000000,-1,-0.279785,-0.492130,-0.231731,0.166776,0.053011,0.228655
"2019-04-16 05:13:40.833 +0000",1555391620.832766,-1.635590,0.597064,-1.249785,-0.825255,-0.562217,0.053546,0.000000,0.000000,0.000000,-1,0.167420,-1.246351,1.595028,0.318251,-0.082589,0.161374
"2019-04-16 05:13:40.855 +0000",1555391620.855043,-1.668942,0.558863,-1.251150,-0.843778,-0.530222,0.083080,0.000000,0.000000,0.000000,-1,0.010440,-1.579749,1.605364,0.334059,-0.077673,0.137547
"2019-04-16 05:13:40.877 +0000",1555391620.877351,-1.693155,0.535864,-1.258047,-0.853399,-0.510584,0.104945,0.000000,0.000000,0.000000,-1,-0.206261,-0.961065,0.652006,-0.022653,-0.199865,0.031148
"2019-04-16 05:13:40.900 +0000",1555391620.899653,-1.702025,0.534368,-1.254727,-0.853191,-0.509297,0.112610,0.000000,0.000000,0.000000,-1,0.321303,0.033303,-0.257227,-0.081532,-0.202723,0.055115
"2019-04-16 05:13:40.922 +0000",1555391620.921936,-1.698248,0.547982,-1.246396,-0.846654,-0.520966,0.108496,0.000000,0.000000,0.000000,-1,0.140936,0.485959,-0.885315,-0.152110,-0.081375,0.104425
"2019-04-16 05:13:40.944 +0000",1555391620.944245,-1.685299,0.573032,-1.247145,-0.834759,-0.542182,0.096002,0.000000,0.000000,0.000000,-1,-0.311539,0.580795,-1.124534,-0.183354,0.014533,0.180212
"2019-04-16 05:13:40.967 +0000",1555391620.966561,-1.668960,0.593601,-1.252746,-0.824941,-0.559350,0.081240,0.000000,0.000000,0.000000,-1,-0.222187,0.626555,-0.752740,-0.119791,-0.031593,0.206648
"2019-04-16 05:13:40.989 +0000",1555391620.988860,-1.653636,0.608080,-1.255220,-0.817932,-0.571292,0.067913,0.000000,0.000000,0.000000,-1,-0.166373,0.605040,-0.596217,0.042282,0.011264,0.171498
"2019-04-16 05:13:41.011 +0000",1555391621.011137,-1.641521,0.620907,-1.258500,-0.811318,-0.581773,0.057476,0.000000,0.000000,0.000000,-1,-0.174955,0.446623,-0.521620,-0.025276,-0.024154,0.157993
"2019-04-16 05:13:41.033 +0000",1555391621.033446,-1.633358,0.628827,-1.261211,-0.807136,-0.588196,0.050562,0.000000,0.000000,0.000000,-1,-0.164080,0.205239,-0.275086,0.109611,-0.021820,0.208791
"2019-04-16 05:13:41.056 +0000",1555391621.055753,-1.624475,0.636245,-1.273448,-0.803174,-0.594180,0.043155,0.000000,0.000000,0.000000,-1,-0.628518,-0.028847,-0.316626,0.235837,-0.025098,0.161740
"2019-04-16 05:13:41.078 +0000",1555391621.078049,-1.618891,0.641587,-1.290077,-0.800221,-0.598468,0.038516,0.000000,0.000000,0.000000,-1,-0.507267,-0.302153,-0.066040,0.287052,-0.152265,0.193387
"2019-04-16 05:13:41.100 +0000",1555391621.100337,-1.620536,0.642583,-1.308066,-0.799561,-0.599265,0.039803,0.000000,0.000000,0.000000,-1,-0.632922,-0.711791,-0.051293,0.266708,-0.138787,0.174293
"2019-04-16 05:13:41.123 +0000",1555391621.122657,-1.638742,0.642977,-1.304291,-0.798468,-0.599580,0.054336,0.000000,0.000000,0.000000,-1,0.115723,-0.467061,-0.143705,0.153387,-0.050902,0.209626
"2019-04-16 05:13:41.145 +0000",1555391621.144954,-1.643176,0.656921,-1.304908,-0.789803,-0.610681,0.057266,0.000000,0.000000,0.000000,-1,0.058300,0.043443,-0.777215,0.119179,0.054208,0.191834
"2019-04-16 05:13:41.167 +0000",1555391621.167232,-1.640299,0.673488,-1.297684,-0.779764,-0.623716,0.054283,0.000000,0.000000,0.000000,-1,0.304534,0.390588,-0.741734,0.036355,-0.297182,0.135552
"2019-04-16 05:13:41.190 +0000",1555391621.189540,-1.635839,0.689154,-1.285943,-0.770152,-0.635885,0.050163,0.000000,0.000000,0.000000,-1,0.386094,0.595951,-0.769574,0.060512,-0.251185,0.141868
"2019-04-16 05:13:41.212 +0000",1555391621.211848,-1.630551,0.710771,-1.269455,-0.756506,-0.652418,0.045259,0.000000,0.000000,0.000000,-1,0.547755,0.785241,-1.145828,-0.051569,-0.250566,0.125746
"2019-04-16 05:13:41.234 +0000",1555391621.234156,-1.626056,0.738441,-1.247462,-0.738390,-0.673136,0.040845,0.000000,0.000000,0.000000,-1,0.726701,0.845152,-1.260413,0.011721,-0.265722,0.137027
"2019-04-16 05:13:41.256 +0000",1555391621.256433,-1.629129,0.759001,-1.225678,-0.724290,-0.688197,0.042298,0.000000,0.000000,0.000000,-1,0.534049,0.195189,-0.716331,-0.112639,-0.141881,0.174286
"2019-04-16 05:13:41.279 +0000",1555391621.278740,-1.642146,0.764787,-1.222485,-0.719694,-0.692383,0.051438,0.000000,0.000000,0.000000,-1,-0.189848,-0.780212,0.028898,0.119581,-0.041168,0.273285
"2019-04-16 05:13:41.301 +0000",1555391621.301049,-1.654608,0.755355,-1.239842,-0.725473,-0.685547,0.060946,0.000000,0.000000,0.000000,-1,-0.734296,-1.264958,0.710299,0.318918,-0.082168,0.220884
"2019-04-16 05:13:41.323 +0000",1555391621.323358,-1.660391,0.740683,-1.268669,-0.735048,-0.674792,0.066033,0.000000,0.000000,0.000000,-1,-0.959252,-1.044174,0.568062,0.432039,0.002734,0.257225
"2019-04-16 05:13:41.346 +0000",1555391621.345631,-1.656506,0.741164,-1.294624,-0.734975,-0.675147,0.063149,0.000000,0.000000,0.000000,-1,-0.753264,-0.286459,-0.107227,0.314855,-0.161965,0.188743
"2019-04-16 05:13:41.368 +0000",1555391621.367942,-1.653489,0.724087,-1.303515,-0.746545,-0.662452,0.061875,0.000000,0.000000,0.000000,-1,0.001196,-0.285782,1.577744,0.157677,-0.144036,0.319930
"2019-04-16 05:13:41.390 +0000",1555391621.390231,-1.656386,0.683197,-1.329642,-0.772720,-0.631276,0.066299,0.000000,0.000000,0.000000,-1,-1.251813,-1.096337,1.426854,-0.250001,-0.115062,0.259171
"2019-04-16 05:13:41.413 +0000",1555391621.412527,-1.659916,0.675958,-1.351668,-0.777012,-0.625645,0.069431,0.000000,0.000000,0.000000,-1,-0.454388,-0.431073,0.000871,-0.208553,-0.284862,0.097226
"2019-04-16 05:13:41.435 +0000",1555391621.434835,-1.651599,0.696919,-1.373133,-0.764321,-0.641858,0.061894,0.000000,0.000000,0.000000,-1,-0.873590,-0.008381,-1.670347,0.045800,0.314237,0.292323
"2019-04-16 05:13:41.457 +0000",1555391621.457144,-1.654344,0.735945,-1.359462,-0.738611,-0.671288,0.061853,0.000000,0.000000,0.000000,-1,0.921413,0.412767,-1.117555,0.884058,-0.190879,0.166189
"2019-04-16 05:13:41.479 +0000",1555391621.479483,-1.657004,0.740867,-1.368596,-0.735144,-0.674928,0.063533,0.000000,0.000000,0.000000,-1,-0.770504,-0.829497,-0.245076,0.493063,-0.045913,0.067373
"2019-04-16 05:13:41.502 +0000",1555391621.501744,-1.666215,0.747572,-1.371142,-0.730006,-0.679860,0.069868,0.000000,0.000000,0.000000,-1,0.183035,-0.407201,-0.258341,0.459193,0.155553,0.270952
"2019-04-16 05:13:41.524 +0000",1555391621.524036,-1.684959,0.757392,-1.353745,-0.721900,-0.687029,0.082774,0.000000,0.000000,0.000000,-1,0.691041,-0.220086,-0.598452,-0.268945,-0.527983,-0.160975
"2019-04-16 05:13:41.546 +0000",1555391621.546346,-1.696065,0.769666,-1.328955,-0.712516,-0.695895,0.089726,0.000000,0.000000,0.000000,-1,0.700320,0.578243,-0.610497,-0.319894,-0.249966,0.123149
"2019-04-16 05:13:41.569 +0000",1555391621.568636,-1.691413,0.782430,-1.311342,-0.704050,-0.705005,0.085335,0.000000,0.000000,0.000000,-1,0.337440,0.969901,-0.767956,0.000925,-0.019940,0.145485
"2019-04-16 05:13:41.591 +0000",1555391621.590930,-1.663688,0.806787,-1.305705,-0.688839,-0.722068,0.064172,0.000000,0.000000,0.000000,-1,-0.223884,1.695657,-1.352731,0.074597,0.161033,0.340461
"2019-04-16 05:13:41.613 +0000",1555391621.613237,-1.597639,0.849159,-1.329193,-0.660377,-0.750725,0.017731,0.000000,0.000000,0.000000,-1,-1.219624,2.466326,-2.046017,0.163245,0.019768,0.357712
"2019-04-16 05:13:41.636 +0000",1555391621.635546,-1.504609,0.889354,-1.390870,-0.628535,-0.776665,-0.041662,0.000000,0.000000,0.000000,-1,-1.909441,1.523146,-1.561573,-0.049566,0.139077,0.390630
"2019-04-16 05:13:41.658 +0000",1555391621.657822,-1.399420,0.915078,-1.499750,-0.600797,-0.792610,-0.103982,0.000000,0.000000,0.000000,-1,-3.588671,0.305694,-1.273604,-0.223193,0.629585,0.566400
"2019-04-16 05:13:41.680 +0000",1555391621.680130,-1.296041,0.888263,-1.666742,-0.607102,-0.775977,-0.171132,0.000000,0.000000,0.000000,-1,-5.612873,-2.314886,1.089696,-0.054504,-0.014992,0.293630
"2019-04-16 05:13:41.702 +0000",1555391621.702438,-1.284972,0.802701,-1.831082,-0.666580,-0.719235,-0.195888,0.000000,0.000000,0.000000,-1,-5.222406,-6.137760,2.437530,0.342544,-0.176044,0.113887
"2019-04-16 05:13:41.725 +0000",1555391621.724742,-1.350052,0.769016,-1.846967,-0.701159,-0.695428,-0.157341,0.000000,0.000000,0.000000,-1,1.800109,-1.592732,0.610094,0.871950,0.058130,0.359520
"2019-04-16 05:13:41.747 +0000",1555391621.747023,-1.418784,0.787480,-1.756329,-0.697496,-0.708578,-0.106852,0.000000,0.000000,0.000000,-1,2.854870,0.197646,-0.649610,0.739213,-0.397120,-0.299337
"2019-04-16 05:13:41.769 +0000",1555391621.769332,-1.450128,0.815540,-1.699579,-0.680491,-0.728096,-0.082515,0.000000,0.000000,0.000000,-1,1.509379,0.375818,-1.191403,-0.154928,-0.879494,-0.959813
"2019-04-16 05:13:41.792 +0000",1555391621.791645,-1.471549,0.850373,-1.670844,-0.656457,-0.751526,-0.065366,0.000000,0.000000,0.000000,-1,0.815928,-0.320140,-1.667101,-0.179527,0.111985,0.152677
"2019-04-16 05:13:41.814 +0000",1555391621.813947,-1.489428,0.905510,-1.658848,-0.615242,-0.786740,-0.050172,0.000000,0.000000,0.000000,-1,0.662221,-0.428863,-3.045683,-0.297356,0.039105,0.143556
"2019-04-16 05:13:41.836 +0000",1555391621.836225,-1.524098,0.992706,-1.600586,-0.545830,-0.837507,-0.025508,0.000000,0.000000,0.000000,-1,2.261202,1.097235,-3.993912,-0.283927,-0.031511,0.183238
"2019-04-16 05:13:41.859 +0000",1555391621.858533,-1.548700,1.062122,-1.533286,-0.486901,-0.873391,-0.010761,0.000000,0.000000,0.000000,-1,0.767941,1.372402,-2.338392,-0.216270,0.085275,0.226520
"2019-04-16 05:13:41.881 +0000",1555391621.880841,-1.513293,1.104167,-1.565238,-0.449135,-0.893090,-0.025855,0.000000,0.000000,0.000000,-1,-0.768366,-0.259393,-1.690648,-0.051583,0.151726,-0.095742
"2019-04-16 05:13:41.903 +0000",1555391621.903128,-1.510629,1.122368,-1.569949,-0.432765,-0.901130,-0.026070,0.000000,0.000000,0.000000,-1,0.378185,0.140500,-0.200096,1.073329,-0.336511,0.354790
"2019-04-16 05:13:41.925 +0000",1555391621.925426,-1.528021,1.119932,-1.542735,-0.435345,-0.900071,-0.018634,0.000000,0.000000,0.000000,-1,0.404923,0.330166,0.172875,0.464093,-0.324844,0.522189
"2019-04-16 05:13:41.948 +0000",1555391621.947734,-1.537966,1.112810,-1.534037,-0.441905,-0.896945,-0.014513,0.000000,0.000000,0.000000,-1,0.090795,-0.253237,0.445876,0.187190,-0.216672,-0.033812
"2019-04-16 05:13:41.970 +0000",1555391621.970044,-1.540578,1.096932,-1.538532,-0.456120,-0.889812,-0.013788,0.000000,0.000000,0.000000,-1,-0.248643,-0.307007,0.575224,0.229511,0.281322,0.103494
"2019-04-16 05:13:41.992 +0000",1555391621.992319,-1.522755,1.100499,-1.567800,-0.452629,-0.891433,-0.021762,0.000000,0.000000,0.000000,-1,-0.638142,-0.509280,-0.473885,0.235680,-0.065567,0.175128
"2019-04-16 05:13:42.015 +0000",1555391622.014615,-1.520613,1.110136,-1.580315,-0.443980,-0.895759,-0.022299,0.000000,0.000000,0.000000,-1,-0.056715,-0.358422,-0.336035,-0.057271,0.637947,0.195364
"2019-04-16 05:13:42.037 +0000",1555391622.036929,-1.526413,1.110851,-1.577329,-0.443462,-0.896077,-0.019695,0.000000,0.000000,0.000000,-1,0.162373,0.033352,0.109657,-0.070653,0.335454,0.255962
"2019-04-16 05:13:42.059 +0000",1555391622.059244,-1.537218,1.105785,-1.559078,-0.448180,-0.893816,-0.015055,0.000000,0.000000,0.000000,-1,0.447017,0.303802,0.349284,0.215468,-0.143323,0.010691
"2019-04-16 05:13:42.082 +0000",1555391622.081522,-1.551645,1.092483,-1.535130,-0.460198,-0.887773,-0.008814,0.000000,0.000000,0.000000,-1,0.513147,0.480442,0.848923,0.305489,-0.151503,0.107523
"2019-04-16 05:13:42.104 +0000",1555391622.103818,-1.537013,1.086251,-1.530198,-0.465540,-0.884887,-0.015734,0.000000,0.000000,0.000000,-1,-0.364598,0.394464,-0.294469,0.266932,0.115859,0.130236
"2019-04-16 05:13:42.126 +0000",1555391622.126136,-1.509650,1.095027,-1.555235,-0.457167,-0.888940,-0.027989,0.000000,0.000000,0.000000,-1,-0.352864,0.402267,-0.186606,0.261030,0.171335,0.108174
"2019-04-16 05:13:42.148 +0000",1555391622.148413,-1.475692,1.100467,-1.572859,-0.451132,-0.891419,-0.043034,0.000000,0.000000,0.000000,-1,-0.404777,1.259877,-0.449792,0.297690,0.290955,0.247945
"2019-04-16 05:13:42.171 +0000",1555391622.170722,-1.433436,1.126885,-1.579031,-0.425430,-0.903079,-0.058807,0.000000,0.000000,0.000000,-1,0.288472,1.629990,-1.842186,0.174499,-0.059598,0.049683
"2019-04-16 05:13:42.193 +0000",1555391622.193030,-1.418275,1.178779,-1.553630,-0.377619,-0.924140,-0.058046,0.000000,0.000000,0.000000,-1,0.824928,1.612664,-2.246219,0.138254,-0.093758,0.151567
"2019-04-16 05:13:42.215 +0000",1555391622.215338,-1.400387,1.240826,-1.552932,-0.319322,-0.946052,-0.054948,0.000000,0.000000,0.000000,-1,0.342270,0.425277,-2.904537,-0.028701,-0.037255,0.157670
"2019-04-16 05:13:42.238 +0000",1555391622.237617,-1.398911,1.295973,-1.552683,-0.267378,-0.962473,-0.046416,0.000000,0.000000,0.000000,-1,0.735421,0.081652,-2.098689,-0.163072,-0.295019,0.140365
"2019-04-16 05:13:42.260 +0000",1555391622.259922,-1.491437,1.335763,-1.437998,-0.232143,-0.972507,-0.018462,0.000000,0.000000,0.000000,-1,1.814528,1.231782,-1.278514,-0.247151,-0.392728,0.155928
"2019-04-16 05:13:42.282 +0000",1555391622.282231,-1.578454,1.351580,-1.312360,-0.217458,-0.976068,0.001665,0.000000,0.000000,0.000000,-1,0.638044,1.590221,-0.392732,0.176824,0.061990,0.194197
"2019-04-16 05:13:42.305 +0000",1555391622.304539,-1.571711,1.353200,-1.304292,-0.215883,-0.976419,0.000198,0.000000,0.000000,0.000000,-1,-0.196262,0.279176,0.094916,0.669298,-0.049002,-0.093551
"2019-04-16 05:13:42.327 +0000",1555391622.326816,-1.531764,1.348253,-1.346315,-0.220543,-0.975339,-0.008613,0.000000,0.000000,0.000000,-1,-0.458003,-0.121310,0.264591,0.183281,-0.083834,0.541343
"2019-04-16 05:13:42.349 +0000",1555391622.349137,-1.497934,1.340585,-1.384189,-0.227578,-0.973618,-0.016611,0.000000,0.000000,0.000000,-1,-0.400125,-0.182585,0.318503,0.203973,-0.151214,0.272364
"2019-04-16 05:13:42.371 +0000",1555391622.371425,-1.464483,1.333915,-1.429078,-0.233347,-0.972075,-0.024902,0.000000,0.000000,0.000000,-1,-0.534945,-0.639307,0.246826,0.247812,-0.081087,0.205902
"2019-04-16 05:13:42.394 +0000",1555391622.393733,-1.459827,1.325866,-1.455740,-0.240998,-0.970154,-0.026854,0.000000,0.000000,0.000000,-1,-0.075435,-1.130458,0.432502,0.256623,-0.022186,0.153624
"2019-04-16 05:13:42.416 +0000",1555391622.416018,-1.518459,1.308485,-1.416791,-0.258959,-0.965793,-0.013566,0.000000,0.000000,0.000000,-1,0.309238,-0.658736,1.175285,0.158815,0.119083,0.324647
"2019-04-16 05:13:42.438 +0000",1555391622.438325,-1.437410,1.299881,-1.560683,-0.265237,-0.963526,-0.035590,0.000000,0.000000,0.000000,-1,-0.906134,-1.780131,-0.152584,0.219720,-0.062124,-0.001611
"2019-04-16 05:13:42.461 +0000",1555391622.460608,-1.435060,1.301858,-1.554089,-0.263264,-0.964053,-0.035955,0.000000,0.000000,0.000000,-1,-0.018952,-0.116137,-0.036718,0.487919,0.221897,0.212698
"2019-04-16 05:13:42.483 +0000",1555391622.482910,-1.439253,1.302693,-1.554157,-0.262614,-0.964275,-0.034746,0.000000,0.000000,0.000000,-1,0.062559,-0.196031,-0.028531,-0.386449,0.224972,1.120058
"2019-04-16 05:13:42.505 +0000",1555391622.505218,-1.446586,1.303908,-1.551728,-0.261699,-0.964596,-0.032674,0.000000,0.000000,0.000000,-1,0.014770,-0.215838,-0.055668,0.347179,-0.150043,-0.218638
"2019-04-16 05:13:42.528 +0000",1555391622.527510,-1.449578,1.305080,-1.552700,-0.260674,-0.964905,-0.031754,0.000000,0.000000,0.000000,-1,-0.008994,-0.156774,-0.048759,0.098961,-0.009247,0.139878
"2019-04-16 05:13:42.550 +0000",1555391622.549826,-1.453493,1.305884,-1.552734,-0.260025,-0.965115,-0.030642,0.000000,0.000000,0.000000,-1,0.008609,-0.193608,-0.032297,0.223053,-0.042300,0.176394
"2019-04-16 05:13:42.572 +0000",1555391622.572111,-1.459359,1.306123,-1.552528,-0.259971,-0.965178,-0.029091,0.000000,0.000000,0.000000,-1,-0.000092,-0.304178,0.005897,0.214409,-0.039583,0.180077
"2019-04-16 05:13:42.594 +0000",1555391622.594419,-1.466198,1.305861,-1.553396,-0.260416,-0.965110,-0.027339,0.000000,0.000000,0.000000,-1,-0.016418,-0.349689,0.008775,0.228006,-0.026468,0.160090
"2019-04-16 05:13:42.617 +0000",1555391622.616727,-1.471197,1.305912,-1.556356,-0.260500,-0.965123,-0.026032,0.000000,0.000000,0.000000,-1,-0.046631,-0.353493,-0.017256,0.233217,-0.032024,0.154053
"2019-04-16 05:13:42.639 +0000",1555391622.639005,-1.476181,1.306603,-1.559810,-0.259963,-0.965303,-0.024670,0.000000,0.000000,0.000000,-1,-0.020408,-0.388016,-0.040508,0.227859,-0.040007,0.167157
"2019-04-16 05:13:42.661 +0000",1555391622.661312,-1.486367,1.307751,-1.558757,-0.259097,-0.965603,-0.021927,0.000000,0.000000,0.000000,-1,0.040983,-0.421251,-0.052593,0.224978,-0.025578,0.162659
"2019-04-16 05:13:42.684 +0000",1555391622.683622,-1.501844,1.309184,-1.552673,-0.258024,-0.965974,-0.017820,0.000000,0.000000,0.000000,-1,0.091109,-0.432339,-0.062397,0.201063,-0.015624,0.146909
"2019-04-16 05:13:42.706 +0000",1555391622.705928,-1.520056,1.310644,-1.543570,-0.256897,-0.966351,-0.013046,0.000000,0.000000,0.000000,-1,0.116239,-0.413848,-0.055107,0.199401,-0.019977,0.138611
"2019-04-16 05:13:42.728 +0000",1555391622.728215,-1.928167,1.399408,-1.152692,-0.159776,-0.985349,0.059661,0.000000,0.000000,0.000000,-1,0.123008,-0.405834,-0.043373,0.101304,-0.002902,0.067628
"2019-04-16 05:13:42.751 +0000",1555391622.750514,-1.952684,1.398928,-1.136807,-0.158703,-0.985267,0.063736,0.000000,0.000000,0.000000,-1,0.124410,-0.388483,-0.010032,0.102948,-0.000329,0.061951
"2019-04-16 05:13:42.773 +0000",1555391622.772820,-2.118755,1.414163,-0.980750,-0.133154,-0.987758,0.081264,0.000000,0.000000,0.000000,-1,0.123322,-0.359059,0.001949,0.076865,0.000225,0.036763
"2019-04-16 05:13:42.795 +0000",1555391622.795130,-2.237639,1.421833,-0.869924,-0.116620,-0.988925,0.091795,0.000000,0.000000,0.000000,-1,0.119552,-0.290093,-0.003658,0.064801,-0.011975,0.025484
"2019-04-16 05:13:42.817 +0000",1555391622.817407,-2.288476,1.423897,-0.824473,-0.110266,-0.989230,0.096259,0.000000,0.000000,0.000000,-1,0.088254,-0.191733,-0.008298,0.051306,-0.014326,0.008569
"2019-04-16 05:13:42.840 +0000",1555391622.839715,-2.305066,1.425285,-0.810367,-0.107635,-0.989432,0.097156,0.000000,0.000000,0.000000,-1,0.056946,-0.054010,-0.018232,-0.016068,-0.013574,-0.013675
"2019-04-16 05:13:42.862 +0000",1555391622.862024,-2.311336,1.425382,-0.802808,-0.106953,-0.989446,0.097764,0.000000,0.000000,0.000000,-1,0.021814,0.116846,-0.049537,-0.036174,-0.026545,-0.007340
"2019-04-16 05:13:42.884 +0000",1555391622.884301,-2.314811,1.426096,-0.794030,-0.106093,-0.989549,0.097656,0.000000,0.000000,0.000000,-1,0.021875,0.303766,-0.066083,-0.051728,-0.037367,0.013199
"2019-04-16 05:13:42.907 +0000",1555391622.906597,-2.315657,1.426841,-0.784035,-0.105469,-0.989656,0.097247,0.000000,0.000000,0.000000,-1,0.032015,0.450164,-0.064897,-0.064179,0.002413,0.026594
"2019-04-16 05:13:42.929 +0000",1555391622.928916,-2.315134,1.427159,-0.774070,-0.105288,-0.989702,0.096978,0.000000,0.000000,0.000000,-1,0.038358,0.458839,-0.048844,-0.054594,0.007082,0.034431
"2019-04-16 05:13:42.951 +0000",1555391622.951225,-2.314440,1.427144,-0.765372,-0.105366,-0.989700,0.096915,0.000000,0.000000,0.000000,-1,0.048409,0.390015,-0.033342,-0.027157,0.012390,0.040246
"2019-04-16 05:13:42.974 +0000",1555391622.973502,-2.318630,1.426793,-0.753543,-0.105214,-0.989649,0.097592,0.000000,0.000000,0.000000,-1,0.078414,0.307567,-0.043763,0.010060,0.009379,0.029346
"2019-04-16 05:13:42.996 +0000",1555391622.995810,-2.329158,1.426326,-0.736998,-0.104516,-0.989582,0.099012,0.000000,0.000000,0.000000,-1,0.103378,0.234929,-0.061715,0.064965,0.011631,0.023760
"2019-04-16 05:13:43.018 +0000",1555391623.018117,-2.345304,1.425611,-0.716239,-0.103409,-0.989479,0.101181,0.000000,0.000000,0.000000,-1,0.122102,0.179529,-0.074861,0.088318,0.002174,0.023178
"2019-04-16 05:13:43.040 +0000",1555391623.040426,-2.359710,1.425373,-0.697903,-0.102107,-0.989445,0.102827,0.000000,0.000000,0.000000,-1,0.068157,0.167205,-0.074775,0.082941,-0.008175,0.039751
"2019-04-16 05:13:43.063 +0000",1555391623.062713,-2.366188,1.425845,-0.687469,-0.101112,-0.989513,0.103153,0.000000,0.000000,0.000000,-1,0.013067,0.175884,-0.051306,0.055732,-0.019825,0.089581
"2019-04-16 05:13:43.085 +0000",1555391623.085012,-2.363803,1.426597,-0.686045,-0.100836,-0.989621,0.102382,0.000000,0.000000,0.000000,-1,-0.038209,0.161254,-0.011500,0.055822,-0.022250,0.099538
"2019-04-16 05:13:43.107 +0000",1555391623.107320,-2.352330,1.427559,-0.694632,-0.101327,-0.989759,0.100547,0.000000,0.000000,0.000000,-1,-0.090786,0.113387,0.022397,0.071329,-0.022265,0.123833
"2019-04-16 05:13:43.130 +0000",1555391623.129584,-2.332525,1.428806,-0.713033,-0.102406,-0.989936,0.097669,0.000000,0.000000,0.000000,-1,-0.139653,0.045801,0.046546,0.110493,-0.012246,0.142718
"2019-04-16 05:13:43.152 +0000",1555391623.151904,-2.311075,1.430207,-0.734346,-0.103452,-0.990134,0.094514,0.000000,0.000000,0.000000,-1,-0.143464,0.002727,0.041964,0.109236,-0.010553,0.143447
"2019-04-16 05:13:43.174 +0000",1555391623.174211,-2.294070,1.431393,-0.751889,-0.104165,-0.990299,0.091964,0.000000,0.000000,0.000000,-1,-0.097133,-0.034210,0.028666,0.109292,-0.011669,0.143479
"2019-04-16 05:13:43.197 +0000",1555391623.196520,-2.286081,1.432346,-0.761107,-0.104184,-0.990431,0.090510,0.000000,0.000000,0.000000,-1,-0.030899,-0.039332,-0.030806,0.102612,0.003691,0.119252
"2019-04-16 05:13:43.219 +0000",1555391623.218798,-2.299591,1.433410,-0.749092,-0.102165,-0.990577,0.091208,0.000000,0.000000,0.000000,-1,0.050225,-0.115905,-0.118170,0.095558,0.002830,0.086359
"2019-04-16 05:13:43.241 +0000",1555391623.241113,-2.320424,1.434055,-0.727355,-0.099776,-0.990665,0.092881,0.000000,0.000000,0.000000,-1,0.069298,0.109320,-0.092869,0.080183,0.010044,0.071304
"2019-04-16 05:13:43.263 +0000",1555391623.263414,-2.370999,1.434006,-0.674762,-0.094985,-0.990659,0.097840,0.000000,0.000000,0.000000,-1,-0.049156,0.103733,0.073327,-0.007477,0.034101,0.008132
"2019-04-16 05:13:43.286 +0000",1555391623.285690,-2.372279,1.432718,-0.666148,-0.095748,-0.990482,0.098879,0.000000,0.000000,0.000000,-1,0.094964,0.361836,-0.002094,-0.027512,-0.022686,-0.002687
"2019-04-16 05:13:43.308 +0000",1555391623.307998,-2.358910,1.432520,-0.676078,-0.097199,-0.990455,0.097729,0.000000,0.000000,0.000000,-1,-0.123154,0.101251,0.075798,0.027467,-0.031029,0.002079
"2019-04-16 05:13:43.330 +0000",1555391623.330306,-2.320150,1.434725,-0.713480,-0.099315,-0.990757,0.092402,0.000000,0.000000,0.000000,-1,-0.272361,0.061906,0.097173,0.112667,-0.018231,-0.008433
"2019-04-16 05:13:43.353 +0000",1555391623.352615,-2.279943,1.436966,-0.752678,-0.101263,-0.991058,0.086889,0.000000,0.000000,0.000000,-1,-0.213551,0.056876,0.062508,0.094428,-0.027405,0.018809
"2019-04-16 05:13:43.375 +0000",1555391623.374914,-2.260229,1.438466,-0.771450,-0.101809,-0.991257,0.083930,0.000000,0.000000,0.000000,-1,-0.063302,0.049306,-0.003110,0.070498,-0.018554,0.070916
"2019-04-16 05:13:43.397 +0000",1555391623.397200,-2.262530,1.438651,-0.767681,-0.101475,-0.991282,0.084047,0.000000,0.000000,0.000000,-1,0.030698,0.072632,-0.025606,0.041004,-0.018225,0.078352
"2019-04-16 05:13:43.420 +0000",1555391623.419507,-2.269560,1.438455,-0.758152,-0.101030,-0.991256,0.084884,0.000000,0.000000,0.000000,-1,0.059563,0.142732,-0.033659,0.050036,0.009566,0.082093
"2019-04-16 05:13:43.442 +0000",1555391623.441815,-2.275217,1.438272,-0.748708,-0.100687,-0.991231,0.085571,0.000000,0.000000,0.000000,-1,0.029514,0.157524,-0.022639,0.062143,0.025243,0.074402
"2019-04-16 05:13:43.464 +0000",1555391623.464091,-2.270547,1.438586,-0.751257,-0.100847,-0.991273,0.084899,0.000000,0.000000,0.000000,-1,-0.048194,0.057971,0.009225,0.064501,0.015824,0.059601
"2019-04-16 05:13:43.486 +0000",1555391623.486402,-2.260643,1.438970,-0.760827,-0.101389,-0.991324,0.083654,0.000000,0.000000,0.000000,-1,-0.050658,0.002692,0.029564,0.057749,0.015219,0.045268
"2019-04-16 05:13:43.509 +0000",1555391623.508709,-2.257024,1.438566,-0.764494,-0.102001,-0.991270,0.083540,0.000000,0.000000,0.000000,-1,0.034573,0.003896,0.013462,0.049694,-0.008699,0.058595
"2019-04-16 05:13:43.531 +0000",1555391623.530985,-2.269433,1.437517,-0.750955,-0.101753,-0.991131,0.085468,0.000000,0.000000,0.000000,-1,0.109693,0.082473,-0.034343,0.033058,-0.002536,0.058025
"2019-04-16 05:13:43.553 +0000",1555391623.553293,-2.323912,1.434596,-0.694035,-0.099060,-0.990739,0.092862,0.000000,0.000000,0.000000,-1,0.052137,0.132931,-0.017462,0.017029,0.015473,0.047656
"2019-04-16 05:13:43.576 +0000",1555391623.575605,-2.319837,1.434755,-0.695369,-0.099321,-0.990761,0.092350,0.000000,0.000000,0.000000,-1,-0.045623,0.113294,0.005000,0.018236,-0.011604,0.037182
"2019-04-16 05:13:43.598 +0000",1555391623.597910,-2.308745,1.435848,-0.704436,-0.099539,-0.990908,0.090514,0.000000,0.000000,0.000000,-1,-0.074531,0.086181,-0.004696,0.012793,-0.017393,0.034318
"2019-04-16 05:13:43.620 +0000",1555391623.620187,-2.326071,1.436333,-0.685551,-0.097606,-0.990973,0.091895,0.000000,0.000000,0.000000,-1,-0.019417,0.081188,-0.026970,0.015941,-0.026971,0.024438
"2019-04-16 05:13:43.642 +0000",1555391623.642495,-2.326611,1.436739,-0.683116,-0.097263,-0.991028,0.091672,0.000000,0.000000,0.000000,-1,-0.003078,0.077539,-0.018247,0.037922,-0.024567,0.034060
"2019-04-16 05:13:43.665 +0000",1555391623.664803,-2.324418,1.436850,-0.684392,-0.097384,-0.991043,0.091384,0.000000,0.000000,0.000000,-1,-0.015550,0.014903,0.009596,0.069369,-0.006653,0.033082
"2019-04-16 05:13:43.687 +0000",1555391623.687110,-2.368317,1.439147,-0.641738,-0.091690,-0.991347,0.093940,0.000000,0.000000,0.000000,-1,-0.031812,-0.063779,0.028848,0.065124,0.001616,0.028939
"2019-04-16 05:13:43.709 +0000",1555391623.709388,-2.360008,1.439429,-0.652127,-0.092269,-0.991384,0.092976,0.000000,0.000000,0.000000,-1,-0.066904,-0.095729,0.041522,0.069305,0.001851,0.028164
"2019-04-16 05:13:43.732 +0000",1555391623.731697,-2.394299,1.441570,-0.620843,-0.087585,-0.991662,0.094528,0.000000,0.000000,0.000000,-1,-0.104535,-0.119145,0.039192,0.056183,-0.006278,0.037613
"2019-04-16 05:13:43.754 +0000",1555391623.754003,-2.382498,1.442487,-0.635961,-0.088069,-0.991780,0.092828,0.000000,0.000000,0.000000,-1,-0.075762,-0.159775,0.027159,0.050242,-0.008541,0.039633
"2019-04-16 05:13:43.776 +0000",1555391623.776285,-2.409399,1.442924,-0.613187,-0.085250,-0.991836,0.094841,0.000000,0.000000,0.000000,-1,-0.043201,-0.170906,0.011123,0.032455,-0.004731,0.031868
"2019-04-16 05:13:43.799 +0000",1555391623.798585,-2.469309,1.442597,-0.557377,-0.079621,-0.991794,0.100029,0.000000,0.000000,0.000000,-1,-0.039463,-0.153555,0.014749,0.036438,-0.002438,0.036553
"2019-04-16 05:13:43.821 +0000",1555391623.820896,-2.491336,1.442345,-0.538822,-0.077550,-0.991761,0.101957,0.000000,0.000000,0.000000,-1,-0.028185,-0.140060,0.005938,0.026723,-0.002547,0.034945
"2019-04-16 05:13:43.843 +0000",1555391623.843204,-2.516532,1.441176,-0.516872,-0.075635,-0.991611,0.104819,0.000000,0.000000,0.000000,-1,-0.040677,-0.125293,0.010754,0.009366,-0.006054,0.023462
"2019-04-16 05:13:43.866 +0000",1555391623.865503,-2.514490,1.441543,-0.521321,-0.075635,-0.991658,0.104369,0.000000,0.000000,0.000000,-1,-0.028104,-0.095755,0.012978,-0.000674,-0.005320,0.021119
"2019-04-16 05:13:43.888 +0000",1555391623.887788,-2.520521,1.440674,-0.517011,-0.075506,-0.991546,0.105525,0.000000,0.000000,0.000000,-1,-0.019287,-0.055160,0.012621,0.001745,-0.002442,0.012288
"2019-04-16 05:13:43.910 +0000",1555391623.910098,-2.522494,1.440211,-0.515788,-0.075563,-0.991486,0.106047,0.000000,0.000000,0.000000,-1,-0.011729,-0.015794,0.012274,0.001116,-0.003647,0.007799
"2019-04-16 05:13:43.932 +0000",1555391623.932406,-2.522039,1.439655,-0.516277,-0.075932,-0.991413,0.106461,0.000000,0.000000,0.000000,-1,0.013382,0.010054,0.013297,0.000752,0.002156,0.005371
"2019-04-16 05:13:43.955 +0000",1555391623.954682,-2.523409,1.438643,-0.514619,-0.076367,-0.991280,0.107383,0.000000,0.000000,0.000000,-1,0.033451,0.012518,0.012044,-0.000995,-0.003959,0.005502
"2019-04-16 05:13:43.977 +0000",1555391623.976977,-2.530604,1.437460,-0.507125,-0.076265,-0.991124,0.108889,0.000000,0.000000,0.000000,-1,0.039694,0.016176,0.003329,0.003710,-0.002299,0.007383
"2019-04-16 05:13:43.999 +0000",1555391623.999299,-2.538537,1.436572,-0.499187,-0.075899,-0.991005,0.110217,0.000000,0.000000,0.000000,-1,0.047172,-0.014603,-0.003840,0.007143,-0.000968,0.007673
"2019-04-16 05:13:44.022 +0000",1555391624.021595,-2.562206,1.435413,-0.476459,-0.073897,-0.990850,0.112943,0.000000,0.000000,0.000000,-1,0.060931,-0.050300,-0.009732,0.020660,-0.000788,0.016650
"2019-04-16 05:13:44.044 +0000",1555391624.043884,-2.578739,1.434396,-0.461228,-0.072558,-0.990712,0.115001,0.000000,0.000000,0.000000,-1,0.059649,-0.060168,-0.015854,0.021578,-0.001231,0.015416
"2019-04-16 05:13:44.066 +0000",1555391624.066191,-2.601123,1.433437,-0.440207,-0.070455,-0.990581,0.117411,0.000000,0.000000,0.000000,-1,0.047106,-0.057727,-0.018373,0.017583,-0.004384,0.014852
"2019-04-16 05:13:44.088 +0000",1555391624.088499,-2.607914,1.432968,-0.435072,-0.069892,-0.990517,0.118287,0.000000,0.000000,0.000000,-1,0.025786,-0.089695,-0.011895,0.014045,-0.004585,0.010131
"2019-04-16 05:13:44.111 +0000",1555391624.110777,-2.622015,1.432887,-0.423256,-0.068257,-0.990506,0.119330,0.000000,0.000000,0.000000,-1,-0.001778,-0.103207,-0.003112,0.015660,-0.008182,0.006875
"2019-04-16 05:13:44.133 +0000",1555391624.133085,-2.630947,1.433499,-0.416735,-0.066892,-0.990589,0.119406,0.000000,0.000000,0.000000,-1,-0.024328,-0.101966,0.003061,0.014432,-0.011638,0.006006
"2019-04-16 05:13:44.155 +0000",1555391624.155392,-2.634378,1.434383,-0.415494,-0.066057,-0.990710,0.118870,0.000000,0.000000,0.000000,-1,-0.041859,-0.088424,0.007890,0.019579,-0.008954,0.004879
"2019-04-16 05:13:44.178 +0000",1555391624.177700,-2.639550,1.435228,-0.412229,-0.065038,-0.990825,0.118476,0.000000,0.000000,0.000000,-1,-0.043077,-0.076102,0.013975,0.010686,-0.011022,0.008462
"2019-04-16 05:13:44.200 +0000",1555391624.199978,-2.638197,1.435767,-0.415108,-0.064941,-0.990897,0.117920,0.000000,0.000000,0.000000,-1,-0.040556,-0.061340,0.013844,0.005615,-0.010751,0.012054
"2019-04-16 05:13:44.222 +0000",1555391624.222286,-2.638322,1.435731,-0.416331,-0.064943,-0.990893,0.117958,0.000000,0.000000,0.000000,-1,-0.007933,-0.050256,0.013758,0.002840,-0.006513,0.010398
"2019-04-16 05:13:44.245 +0000",1555391624.244572,-2.636113,1.435513,-0.419004,-0.065308,-0.990863,0.118005,0.000000,0.000000,0.000000,-1,-0.029242,-0.002309,0.008363,-0.004623,-0.006512,0.008842
"2019-04-16 05:13:44.267 +0000",1555391624.266871,-2.633212,1.435633,-0.421974,-0.065592,-0.990879,0.117710,0.000000,0.000000,0.000000,-1,-0.026741,-0.003547,0.005895,-0.004446,-0.006481,0.013119
"2019-04-16 05:13:44.289 +0000",1555391624.289179,-2.630791,1.435050,-0.424411,-0.066160,-0.990801,0.118056,0.000000,0.000000,0.000000,-1,-0.014208,0.002590,0.000888,-0.007662,-0.002409,0.009279
"2019-04-16 05:13:44.311 +0000",1555391624.311486,-2.629607,1.435006,-0.425275,-0.066320,-0.990795,0.118014,0.000000,0.000000,0.000000,-1,-0.007945,0.024711,-0.005507,-0.004404,-0.004048,0.007047
"2019-04-16 05:13:44.334 +0000",1555391624.333796,-2.633141,1.434655,-0.421208,-0.066072,-0.990747,0.118552,0.000000,0.000000,0.000000,-1,-0.005421,0.024721,-0.003026,0.005632,-0.004492,0.013055
"2019-04-16 05:13:44.356 +0000",1555391624.356073,-2.640420,1.434066,-0.413612,-0.065488,-0.990667,0.119541,0.000000,0.000000,0.000000,-1,0.012133,0.009961,-0.004133,0.009305,0.000250,0.014843
"2019-04-16 05:13:44.378 +0000",1555391624.378381,-2.644759,1.433804,-0.409230,-0.065093,-0.990631,0.120053,0.000000,0.000000,0.000000,-1,-0.006678,0.002576,-0.002837,0.013472,-0.004806,0.019244
"2019-04-16 05:13:44.401 +0000",1555391624.400689,-2.653091,1.433456,-0.401136,-0.064252,-0.990584,0.120896,0.000000,0.000000,0.000000,-1,-0.009187,-0.010959,-0.002724,0.013043,-0.000734,0.016174
"2019-04-16 05:13:44.423 +0000",1555391624.422996,-2.657392,1.433407,-0.397265,-0.063754,-0.990577,0.121214,0.000000,0.000000,0.000000,-1,-0.006661,-0.022011,0.002333,0.016070,-0.001839,0.016878
"2019-04-16 05:13:44.445 +0000",1555391624.445273,-2.667528,1.432809,-0.387864,-0.062792,-0.990495,0.122380,0.000000,0.000000,0.000000,-1,0.007135,-0.030623,0.001168,0.015475,-0.003676,0.016993
"2019-04-16 05:13:44.468 +0000",1555391624.467560,-2.674846,1.432475,-0.380904,-0.062044,-0.990449,0.123132,0.000000,0.000000,0.000000,-1,0.014644,-0.008512,-0.007715,0.009386,-0.004653,0.006598
"2019-04-16 05:13:44.490 +0000",1555391624.489889,-2.680277,1.431855,-0.375632,-0.061647,-0.990363,0.124017,0.000000,0.000000,0.000000,-1,0.035981,-0.007264,-0.005237,0.006792,-0.003167,0.008841
"2019-04-16 05:13:44.512 +0000",1555391624.512167,-2.687134,1.430492,-0.369119,-0.061388,-0.990173,0.125650,0.000000,0.000000,0.000000,-1,0.066070,-0.028168,-0.006281,0.001208,-0.000870,0.005865
"2019-04-16 05:13:44.534 +0000",1555391624.534473,-2.693110,1.429211,-0.363641,-0.061186,-0.989994,0.127157,0.000000,0.000000,0.000000,-1,0.064806,-0.019573,-0.010079,-0.001451,-0.002392,0.004602
"2019-04-16 05:13:44.557 +0000",1555391624.556784,-2.700683,1.427914,-0.356283,-0.060770,-0.989810,0.128778,0.000000,0.000000,0.000000,-1,0.047206,-0.007327,-0.022600,-0.000220,-0.001035,0.006659
"2019-04-16 05:13:44.579 +0000",1555391624.579092,-2.707546,1.427133,-0.349475,-0.060209,-0.989698,0.129893,0.000000,0.000000,0.000000,-1,0.037110,-0.005982,-0.018783,0.002180,-0.003435,0.004445
"2019-04-16 05:13:44.601 +0000",1555391624.601371,-2.713266,1.426349,-0.344161,-0.059788,-0.989586,0.130942,0.000000,0.000000,0.000000,-1,0.039653,-0.034226,-0.006126,0.003452,-0.006142,0.006616
"2019-04-16 05:13:44.624 +0000",1555391624.623675,-2.719066,1.425138,-0.339292,-0.059519,-0.989411,0.132379,0.000000,0.000000,0.000000,-1,0.034670,-0.041575,0.002620,0.001062,-0.010315,0.008475
"2019-04-16 05:13:44.646 +0000",1555391624.645983,-2.722244,1.424301,-0.336745,-0.059435,-0.989289,0.133324,0.000000,0.000000,0.000000,-1,0.030915,-0.015754,-0.000092,-0.000273,-0.010589,0.006233
"2019-04-16 05:13:44.668 +0000",1555391624.668261,-2.725113,1.423727,-0.334026,-0.059282,-0.989205,0.134013,0.000000,0.000000,0.000000,-1,0.014593,-0.003484,-0.006411,0.001359,-0.007606,0.004918
"2019-04-16 05:13:44.691 +0000",1555391624.690578,-2.728545,1.423431,-0.330588,-0.058939,-0.989161,0.134484,0.000000,0.000000,0.000000,-1,0.014618,0.002685,-0.001506,0.003992,-0.003575,0.002342
"2019-04-16 05:13:44.713 +0000",1555391624.712877,-2.730107,1.423114,-0.329134,-0.058854,-0.989115,0.134863,0.000000,0.000000,0.000000,-1,0.015885,-0.010826,0.003576,0.003343,-0.004492,0.003549
"2019-04-16 05:13:44.735 +0000",1555391624.735184,-2.731826,1.422722,-0.327685,-0.058777,-0.989057,0.135320,0.000000,0.000000,0.000000,-1,0.013371,-0.012062,0.002345,-0.000687,-0.008120,0.002024
"2019-04-16 05:13:44.757 +0000",1555391624.757462,-2.732500,1.422598,-0.327163,-0.058734,-0.989039,0.135472,0.000000,0.000000,0.000000,-1,0.000819,-0.003394,-0.002547,-0.004941,-0.009573,0.000316
"2019-04-16 05:13:44.780 +0000",1555391624.779770,-2.731376,1.422459,-0.328367,-0.058941,-0.989018,0.135532,0.000000,0.000000,0.000000,-1,-0.006695,-0.002157,-0.000078,-0.003238,-0.006862,0.005429
"2019-04-16 05:13:44.802 +0000",1555391624.802068,-2.730170,1.422364,-0.329599,-0.059142,-0.989004,0.135547,0.000000,0.000000,0.000000,-1,-0.011714,0.000297,-0.001341,-0.003724,-0.007822,0.006161
"2019-04-16 05:13:44.824 +0000",1555391624.824386,-2.728566,1.422467,-0.331109,-0.059319,-0.989019,0.135359,0.000000,0.000000,0.000000,-1,-0.020466,0.004007,0.004825,-0.003089,-0.005777,0.007021
"2019-04-16 05:13:44.847 +0000",1555391624.846658,-2.728000,1.422447,-0.331528,-0.059403,-0.989016,0.135343,0.000000,0.000000,0.000000,-1,-0.030457,0.010187,0.013449,0.003602,-0.005185,0.007418
"2019-04-16 05:13:44.869 +0000",1555391624.868971,-2.725177,1.422601,-0.334299,-0.059723,-0.989039,0.135035,0.000000,0.000000,0.000000,-1,-0.019132,0.001619,0.023453,0.005341,-0.003972,0.006628
"2019-04-16 05:13:44.891 +0000",1555391624.891281,-2.725950,1.422455,-0.333627,-0.059677,-0.989018,0.135214,0.000000,0.000000,0.000000,-1,-0.009123,-0.004552,0.017306,0.008133,-0.003338,0.009196
"2019-04-16 05:13:44.914 +0000",1555391624.913577,-2.725924,1.422166,-0.333860,-0.059796,-0.988975,0.135474,0.000000,0.000000,0.000000,-1,0.002126,-0.007046,0.007408,0.001325,-0.005196,0.004693
"2019-04-16 05:13:44.936 +0000",1555391624.935865,-2.726328,1.422013,-0.333578,-0.059803,-0.988952,0.135637,0.000000,0.000000,0.000000,-1,0.005895,-0.001994,0.000117,-0.000622,-0.000535,0.004317
"2019-04-16 05:13:44.958 +0000",1555391624.958173,-2.727878,1.421504,-0.332063,-0.059795,-0.988877,0.136190,0.000000,0.000000,0.000000,-1,0.012154,-0.000775,-0.003612,-0.001362,-0.000839,0.007517
"2019-04-16 05:13:44.981 +0000",1555391624.980565,-2.729802,1.421113,-0.330121,-0.059687,-0.988818,0.136659,0.000000,0.000000,0.000000,-1,0.028460,-0.001999,-0.003594,-0.000860,-0.003278,0.005706
"2019-04-16 05:13:45.003 +0000",1555391625.002757,-2.733174,1.420403,-0.326739,-0.059505,-0.988712,0.137504,0.000000,0.000000,0.000000,-1,0.022183,0.001679,-0.006112,0.001781,-0.007061,0.006310
"2019-04-16 05:13:45.025 +0000",1555391625.025076,-2.737243,1.419577,-0.322654,-0.059266,-0.988588,0.138496,0.000000,0.000000,0.000000,-1,0.024729,0.000484,0.002582,0.002092,-0.004439,0.003991
"2019-04-16 05:13:45.047 +0000",1555391625.047373,-2.738784,1.419141,-0.321300,-0.059222,-0.988522,0.138983,0.000000,0.000000,0.000000,-1,0.022188,-0.017988,-0.002217,0.002261,-0.003070,0.007028
"2019-04-16 05:13:45.070 +0000",1555391625.069670,-2.742449,1.418533,-0.318350,-0.058946,-0.988430,0.139753,0.000000,0.000000,0.000000,-1,0.022175,-0.041361,-0.002011,0.001969,-0.007679,0.004534
"2019-04-16 05:13:45.092 +0000",1555391625.091959,-2.745790,1.418109,-0.315444,-0.058640,-0.988366,0.140336,0.000000,0.000000,0.000000,-1,0.020926,-0.010623,-0.006006,0.003388,-0.008811,0.003417
"2019-04-16 05:13:45.114 +0000",1555391625.114267,-2.748569,1.417667,-0.312783,-0.058417,-0.988299,0.140902,0.000000,0.000000,0.000000,-1,0.018482,-0.003052,-0.004644,0.001258,-0.007978,0.004102
"2019-04-16 05:13:45.137 +0000",1555391625.136548,-2.751801,1.417179,-0.309537,-0.058145,-0.988224,0.141536,0.000000,0.000000,0.000000,-1,0.010972,0.003105,-0.002222,0.003320,-0.007015,0.007649
"2019-04-16 05:13:45.159 +0000",1555391625.158853,-2.753365,1.416871,-0.307970,-0.058039,-0.988177,0.141909,0.000000,0.000000,0.000000,-1,0.008468,0.000649,-0.000962,0.002695,-0.007963,0.007642
"2019-04-16 05:13:45.181 +0000",1555391625.181159,-2.755319,1.416526,-0.306026,-0.057890,-0.988124,0.142338,0.000000,0.000000,0.000000,-1,0.010957,-0.000600,-0.005912,0.001279,-0.005300,0.006054
"2019-04-16 05:13:45.203 +0000",1555391625.203468,-2.756543,1.416290,-0.304717,-0.057803,-0.988088,0.142624,0.000000,0.000000,0.000000,-1,0.018492,0.004329,-0.004712,0.002764,-0.006862,0.005752
"2019-04-16 05:13:45.226 +0000",1555391625.225775,-2.760282,1.415872,-0.300802,-0.057423,-0.988023,0.143223,0.000000,0.000000,0.000000,-1,0.020987,0.012921,-0.009751,0.002369,-0.006453,0.005123
"2019-04-16 05:13:45.248 +0000",1555391625.248053,-2.764089,1.415388,-0.296713,-0.057054,-0.987948,0.143885,0.000000,0.000000,0.000000,-1,0.020995,0.015386,-0.008533,0.002290,-0.005765,0.004552
"2019-04-16 05:13:45.270 +0000",1555391625.270362,-2.766688,1.415022,-0.293765,-0.056812,-0.987892,0.144370,0.000000,0.000000,0.000000,-1,0.015968,0.015375,-0.011017,0.002002,-0.003167,0.004129
"2019-04-16 05:13:45.293 +0000",1555391625.292669,-2.770317,1.414701,-0.289842,-0.056403,-0.987842,0.144871,0.000000,0.000000,0.000000,-1,0.008493,0.011902,-0.009554,0.003775,-0.008038,0.006161
"2019-04-16 05:13:45.315 +0000",1555391625.314977,-2.772401,1.414616,-0.287546,-0.056131,-0.987829,0.145065,0.000000,0.000000,0.000000,-1,0.009746,0.009442,-0.009532,0.003762,-0.007563,0.003205
"2019-04-16 05:13:45.337 +0000",1555391625.337255,-2.775024,1.414394,-0.284822,-0.055829,-0.987794,0.145417,0.000000,0.000000,0.000000,-1,0.007254,0.003310,-0.004517,0.000271,-0.008300,0.004394
"2019-04-16 05:13:45.360 +0000",1555391625.359576,-2.777501,1.414164,-0.282361,-0.055549,-0.987758,0.145767,0.000000,0.000000,0.000000,-1,0.009761,-0.001610,-0.004473,0.004905,-0.009266,0.006211
"2019-04-16 05:13:45.382 +0000",1555391625.381870,-2.779721,1.413960,-0.280148,-0.055297,-0.987726,0.146079,0.000000,0.000000,0.000000,-1,-0.000242,-0.000355,0.002953,0.003737,-0.005575,0.005654
"2019-04-16 05:13:45.404 +0000",1555391625.404147,-2.780897,1.414010,-0.278985,-0.055108,-0.987734,0.146098,0.000000,0.000000,0.000000,-1,-0.010280,-0.000365,0.001707,0.004891,-0.005964,0.003576
"2019-04-16 05:13:45.426 +0000",1555391625.426456,-2.780056,1.414182,-0.279955,-0.055170,-0.987761,0.145892,0.000000,0.000000,0.000000,-1,-0.007760,-0.005270,0.005473,0.004725,-0.006196,0.003782
"2019-04-16 05:13:45.449 +0000",1555391625.448767,-2.781257,1.414069,-0.278937,-0.055034,-0.987743,0.146063,0.000000,0.000000,0.000000,-1,0.004764,-0.006514,0.000526,-0.000385,-0.008686,0.002405
"2019-04-16 05:13:45.471 +0000",1555391625.471071,-2.782566,1.413907,-0.277687,-0.054899,-0.987718,0.146285,0.000000,0.000000,0.000000,-1,0.008521,-0.005122,-0.005487,0.000685,-0.005705,0.002946
"2019-04-16 05:13:45.493 +0000",1555391625.493349,-2.783281,1.413809,-0.277149,-0.054829,-0.987703,0.146414,0.000000,0.000000,0.000000,-1,0.001005,-0.012492,-0.001702,-0.002346,-0.003630,0.001245
"2019-04-16 05:13:45.516 +0000",1555391625.515661,-2.784584,1.413541,-0.276358,-0.054731,-0.987661,0.146734,0.000000,0.000000,0.000000,-1,0.002256,-0.028478,-0.000320,0.000318,-0.007670,0.005915
"2019-04-16 05:13:45.538 +0000",1555391625.537943,-2.786062,1.413492,-0.275491,-0.054530,-0.987653,0.146859,0.000000,0.000000,0.000000,-1,-0.002759,-0.024790,-0.000355,0.002101,-0.006213,0.003989
"2019-04-16 05:13:45.560 +0000",1555391625.560242,-2.787913,1.413549,-0.274108,-0.054238,-0.987662,0.146906,0.000000,0.000000,0.000000,-1,-0.003998,-0.018630,0.002070,0.004205,-0.003549,0.002187
"2019-04-16 05:13:45.583 +0000",1555391625.582548,-2.788613,1.413709,-0.274146,-0.054081,-0.987687,0.146797,0.000000,0.000000,0.000000,-1,-0.006525,-0.039548,0.001013,0.003926,-0.006377,0.003060
"2019-04-16 05:13:45.605 +0000",1555391625.604857,-2.789949,1.413739,-0.273695,-0.053875,-0.987692,0.146841,0.000000,0.000000,0.000000,-1,-0.007777,-0.043234,0.002285,0.000454,-0.008417,0.002542
"2019-04-16 05:13:45.627 +0000",1555391625.627340,-2.790221,1.413772,-0.274281,-0.053824,-0.987697,0.146825,0.000000,0.000000,0.000000,-1,-0.006506,-0.034613,0.004690,-0.000253,-0.005513,0.002512
"2019-04-16 05:13:45.649 +0000",1555391625.649443,-2.790068,1.413908,-0.274991,-0.053800,-0.987718,0.146691,0.000000,0.000000,0.000000,-1,-0.005258,-0.020880,-0.000254,-0.002352,-0.007124,0.002174
"2019-04-16 05:13:45.672 +0000",1555391625.671751,-2.790352,1.413881,-0.275016,-0.053768,-0.987714,0.146732,0.000000,0.000000,0.000000,-1,-0.005279,-0.014753,-0.006511,-0.001729,-0.006640,0.005734
"2019-04-16 05:13:45.694 +0000",1555391625.694058,-2.789735,1.413805,-0.275861,-0.053884,-0.987702,0.146769,0.000000,0.000000,0.000000,-1,-0.002743,-0.013498,-0.000317,-0.002482,-0.005523,0.001928
"2019-04-16 05:13:45.716 +0000",1555391625.716366,-2.789940,1.413865,-0.275991,-0.053833,-0.987712,0.146724,0.000000,0.000000,0.000000,-1,-0.005228,-0.008559,0.004600,-0.002182,-0.003652,0.002400
"2019-04-16 05:13:45.739 +0000",1555391625.738647,-2.789542,1.413907,-0.276539,-0.053877,-0.987718,0.146663,0.000000,0.000000,0.000000,-1,-0.007747,-0.001194,0.000812,-0.002046,-0.005843,0.000874
"2019-04-16 05:13:45.761 +0000",1555391625.760944,-2.790019,1.414131,-0.276169,-0.053731,-0.987753,0.146481,0.000000,0.000000,0.000000,-1,-0.007743,-0.003649,0.002073,0.003591,-0.005197,0.001422
"2019-04-16 05:13:45.783 +0000",1555391625.783260,-2.789518,1.414248,-0.276703,-0.053765,-0.987771,0.146346,0.000000,0.000000,0.000000,-1,-0.010256,-0.002425,0.000821,0.000969,-0.006736,0.002366
"2019-04-16 05:13:45.806 +0000",1555391625.805562,-2.789259,1.414464,-0.277020,-0.053729,-0.987805,0.146131,0.000000,0.000000,0.000000,-1,-0.011493,0.000049,0.004519,0.002643,-0.006412,0.002672
"2019-04-16 05:13:45.828 +0000",1555391625.827845,-2.789067,1.414767,-0.277098,-0.053654,-0.987852,0.145841,0.000000,0.000000,0.000000,-1,-0.016519,0.008886,0.004595,0.003956,-0.005434,0.001575
"2019-04-16 05:13:45.850 +0000",1555391625.850155,-2.787886,1.414924,-0.278160,-0.053772,-0.987876,0.145631,0.000000,0.000000,0.000000,-1,-0.008997,0.002739,0.004653,-0.000976,-0.005089,0.001021
"2019-04-16 05:13:45.872 +0000",1555391625.872461,-2.786631,1.415158,-0.279383,-0.053875,-0.987913,0.145348,0.000000,0.000000,0.000000,-1,-0.011505,0.002738,0.004652,-0.001255,-0.004290,0.002724
"2019-04-16 05:13:45.895 +0000",1555391625.894739,-2.785370,1.415242,-0.280538,-0.054029,-0.987926,0.145201,0.000000,0.000000,0.000000,-1,-0.001478,0.007653,0.002132,-0.000308,-0.006901,-0.000762
"2019-04-16 05:13:45.917 +0000",1555391625.917046,-2.784273,1.415301,-0.281392,-0.054168,-0.987935,0.145088,0.000000,0.000000,0.000000,-1,-0.001449,0.012598,0.008290,-0.000642,-0.006908,0.000115
"2019-04-16 05:13:45.939 +0000",1555391625.939337,-2.782848,1.415338,-0.282579,-0.054362,-0.987941,0.144976,0.000000,0.000000,0.000000,-1,-0.008981,0.011360,0.007058,-0.001104,-0.003530,0.001310
"2019-04-16 05:13:45.962 +0000",1555391625.961636,-2.782038,1.415720,-0.283158,-0.054346,-0.988000,0.144579,0.000000,0.000000,0.000000,-1,-0.015258,0.011352,0.005813,0.003779,-0.006919,-0.000215
"2019-04-16 05:13:45.984 +0000",1555391625.983939,-2.780956,1.415938,-0.284076,-0.054427,-0.988033,0.144319,0.000000,0.000000,0.000000,-1,-0.014021,0.007648,0.002125,0.001357,-0.007587,0.003448
"2019-04-16 05:13:46.006 +0000",1555391626.006248,-2.780529,1.416121,-0.284297,-0.054424,-0.988062,0.144126,0.000000,0.000000,0.000000,-1,-0.012790,0.009100,0.004737,0.000057,-0.007361,0.003747
"2019-04-16 05:13:46.029 +0000",1555391626.028531,-2.778995,1.416228,-0.285718,-0.054608,-0.988078,0.143944,0.000000,0.000000,0.000000,-1,-0.007785,0.005402,0.002291,-0.003452,-0.004033,0.002907
"2019-04-16 05:13:46.051 +0000",1555391626.050845,-2.777511,1.416059,-0.287114,-0.054881,-0.988052,0.144018,0.000000,0.000000,0.000000,-1,-0.010275,0.001730,0.007285,0.000209,-0.007340,0.004099
"2019-04-16 05:13:46.073 +0000",1555391626.073141,-2.776998,1.416131,-0.287690,-0.054929,-0.988063,0.143923,0.000000,0.000000,0.000000,-1,-0.009052,-0.000759,-0.000136,0.001844,-0.008122,0.003660
"2019-04-16 05:13:46.095 +0000",1555391626.095448,-2.776309,1.416226,-0.288335,-0.054995,-0.988078,0.143797,0.000000,0.000000,0.000000,-1,-0.006519,0.005412,0.004773,0.001391,-0.003515,-0.000472
"2019-04-16 05:13:46.118 +0000",1555391626.117756,-2.774957,1.416277,-0.289668,-0.055172,-0.988086,0.143676,0.000000,0.000000,0.000000,-1,0.001007,-0.001960,0.006082,-0.002018,-0.004621,0.000412
"2019-04-16 05:13:46.140 +0000",1555391626.140034,-2.773726,1.416138,-0.290896,-0.055398,-0.988064,0.143736,0.000000,0.000000,0.000000,-1,0.004771,0.000502,0.006063,-0.002815,-0.007618,0.002656
"2019-04-16 05:13:46.162 +0000",1555391626.162341,-2.773026,1.416116,-0.291545,-0.055506,-0.988061,0.143718,0.000000,0.000000,0.000000,-1,-0.007784,0.005403,0.002292,-0.000738,-0.007484,0.002186
"2019-04-16 05:13:46.185 +0000",1555391626.184639,-2.772758,1.416297,-0.291754,-0.055480,-0.988089,0.143536,0.000000,0.000000,0.000000,-1,-0.014092,0.003145,0.006162,0.001052,-0.005777,0.002383
"2019-04-16 05:13:46.207 +0000",1555391626.206927,-2.771680,1.416510,-0.292727,-0.055558,-0.988122,0.143280,0.000000,0.000000,0.000000,-1,-0.011591,0.005597,0.003660,0.001405,-0.006431,0.002030
"2019-04-16 05:13:46.229 +0000",1555391626.229235,-2.769957,1.416649,-0.294397,-0.055756,-0.988143,0.143057,0.000000,0.000000,0.000000,-1,-0.011581,-0.001769,0.007447,-0.001297,-0.006929,0.001948
"2019-04-16 05:13:46.252 +0000",1555391626.251542,-2.768364,1.416810,-0.296069,-0.055925,-0.988168,0.142819,0.000000,0.000000,0.000000,-1,-0.010327,-0.002999,0.007459,-0.002165,-0.007438,0.001163
"2019-04-16 05:13:46.274 +0000",1555391626.273843,-2.766440,1.416949,-0.298016,-0.056150,-0.988189,0.142583,0.000000,0.000000,0.000000,-1,-0.007842,0.000669,0.001225,0.000028,-0.005708,-0.000829
"2019-04-16 05:13:46.296 +0000",1555391626.296129,-2.766097,1.417148,-0.298390,-0.056126,-0.988219,0.142381,0.000000,0.000000,0.000000,-1,-0.011590,-0.000548,0.004956,0.003163,-0.006959,0.001265
"2019-04-16 05:13:46.318 +0000",1555391626.318437,-2.765057,1.417308,-0.299482,-0.056217,-0.988244,0.142176,0.000000,0.000000,0.000000,-1,-0.009077,-0.001772,0.006208,0.004306,-0.004127,-0.000758
"2019-04-16 05:13:46.341 +0000",1555391626.340744,-2.764216,1.417529,-0.300399,-0.056256,-0.988277,0.141926,0.000000,0.000000,0.000000,-1,-0.011591,-0.001778,0.004966,0.001828,-0.006397,-0.001621
"2019-04-16 05:13:46.363 +0000",1555391626.363053,-2.762206,1.417765,-0.302466,-0.056454,-0.988314,0.141595,0.000000,0.000000,0.000000,-1,-0.006631,-0.002820,0.005096,-0.001346,-0.007704,-0.001672
"2019-04-16 05:13:46.385 +0000",1555391626.385329,-2.760988,1.417826,-0.303785,-0.056604,-0.988323,0.141470,0.000000,0.000000,0.000000,-1,0.000908,-0.006493,0.008854,-0.001929,-0.006428,0.000833
"2019-04-16 05:13:46.408 +0000",1555391626.407631,-2.759580,1.417697,-0.305287,-0.056851,-0.988303,0.141509,0.000000,0.000000,0.000000,-1,0.003408,-0.004041,0.006353,-0.003025,-0.007134,-0.001265
"2019-04-16 05:13:46.430 +0000",1555391626.429945,-2.758783,1.417568,-0.306122,-0.057011,-0.988284,0.141581,0.000000,0.000000,0.000000,-1,0.005899,0.000862,0.001349,-0.003246,-0.005689,-0.000407
"2019-04-16 05:13:46.452 +0000",1555391626.452224,-2.756880,1.417538,-0.308016,-0.057292,-0.988279,0.141501,0.000000,0.000000,0.000000,-1,-0.002867,-0.000358,0.005078,-0.002965,-0.005435,-0.001410
"2019-04-16 05:13:46.475 +0000",1555391626.474544,-2.755921,1.417561,-0.308986,-0.057419,-0.988282,0.141424,0.000000,0.000000,0.000000,-1,-0.004117,-0.000353,0.006318,0.000259,-0.005736,-0.001028
"2019-04-16 05:13:46.497 +0000",1555391626.496839,-2.754455,1.417900,-0.310453,-0.057500,-0.988334,0.141030,0.000000,0.000000,0.000000,-1,-0.015375,0.000901,0.013745,0.001561,-0.006402,-0.002511
"2019-04-16 05:13:46.519 +0000",1555391626.519146,-2.752204,1.418344,-0.312690,-0.057651,-0.988402,0.140494,0.000000,0.000000,0.000000,-1,-0.025420,0.002117,0.011248,0.002505,-0.007829,-0.001258
"2019-04-16 05:13:46.541 +0000",1555391626.541424,-2.749205,1.418805,-0.315492,-0.057897,-0.988472,0.139899,0.000000,0.000000,0.000000,-1,-0.024199,0.012126,0.007544,0.001089,-0.009697,0.000588
"2019-04-16 05:13:46.564 +0000",1555391626.563732,-2.746014,1.418885,-0.318494,-0.058313,-0.988484,0.139641,0.000000,0.000000,0.000000,-1,-0.012918,0.005976,0.006364,-0.006491,-0.003551,0.002525
"2019-04-16 05:13:46.586 +0000",1555391626.586040,-2.742641,1.418854,-0.321661,-0.058796,-0.988479,0.139472,0.000000,0.000000,0.000000,-1,-0.007898,0.009669,0.006335,-0.006207,-0.004197,0.001656
"2019-04-16 05:13:46.608 +0000",1555391626.608317,-2.741132,1.418811,-0.323087,-0.059023,-0.988472,0.139422,0.000000,0.000000,0.000000,-1,-0.004135,0.002294,0.007642,-0.005156,-0.004905,0.004148
"2019-04-16 05:13:46.631 +0000",1555391626.630634,-2.740363,1.418956,-0.323737,-0.059074,-0.988494,0.139245,0.000000,0.000000,0.000000,-1,-0.010417,0.009658,0.003852,0.001044,-0.004303,-0.000283
"2019-04-16 05:13:46.653 +0000",1555391626.652943,-2.739218,1.419211,-0.324762,-0.059134,-0.988533,0.138945,0.000000,0.000000,0.000000,-1,-0.010405,0.004752,0.007617,0.003043,-0.004692,-0.001921
"2019-04-16 05:13:46.675 +0000",1555391626.675241,-2.738486,1.419231,-0.325402,-0.059228,-0.988536,0.138884,0.000000,0.000000,0.000000,-1,-0.004144,0.003515,0.005149,-0.000510,-0.006017,0.001970
"2019-04-16 05:13:46.698 +0000",1555391626.697519,-2.737512,1.419365,-0.326309,-0.059312,-0.988556,0.138705,0.000000,0.000000,0.000000,-1,-0.010431,0.003498,0.001425,-0.002212,-0.007309,0.002836
"2019-04-16 05:13:46.720 +0000",1555391626.719826,-2.736580,1.419524,-0.327116,-0.059379,-0.988580,0.138504,0.000000,0.000000,0.000000,-1,-0.010461,0.003618,0.005236,0.000480,-0.005438,0.000579
"2019-04-16 05:13:46.742 +0000",1555391626.742135,-2.735637,1.419467,-0.328000,-0.059532,-0.988572,0.138500,0.000000,0.000000,0.000000,-1,-0.000406,0.003642,0.010202,-0.001351,-0.004684,0.003742
"2019-04-16 05:13:46.764 +0000",1555391626.764443,-2.733766,1.419368,-0.329914,-0.059830,-0.988557,0.138479,0.000000,0.000000,0.000000,-1,0.002118,-0.003719,0.015230,-0.001923,-0.008163,0.004603
"2019-04-16 05:13:46.787 +0000",1555391626.786719,-2.731908,1.419156,-0.331896,-0.060170,-0.988525,0.138559,0.000000,0.000000,0.000000,-1,-0.002908,-0.002500,0.012737,-0.001750,-0.005860,0.001517
"2019-04-16 05:13:46.809 +0000",1555391626.809027,-2.730686,1.419064,-0.333165,-0.060376,-0.988511,0.138569,0.000000,0.000000,0.000000,-1,-0.005428,0.002405,0.008970,-0.000019,-0.007430,0.001629
"2019-04-16 05:13:46.831 +0000",1555391626.831336,-2.728952,1.419177,-0.334939,-0.060571,-0.988528,0.138362,0.000000,0.000000,0.000000,-1,-0.012951,-0.001284,0.010240,0.003290,-0.006528,0.002401
"2019-04-16 05:13:46.854 +0000",1555391626.853617,-2.728379,1.419531,-0.335567,-0.060510,-0.988581,0.138006,0.000000,0.000000,0.000000,-1,-0.028012,-0.000070,0.007741,0.004281,-0.007162,0.003321
"2019-04-16 05:13:46.876 +0000",1555391626.875920,-2.726238,1.419693,-0.337717,-0.060741,-0.988606,0.137730,0.000000,0.000000,0.000000,-1,-0.011685,-0.000043,0.012710,0.000011,-0.005291,0.001354
"2019-04-16 05:13:46.898 +0000",1555391626.898229,-2.724460,1.419726,-0.339587,-0.060972,-0.988611,0.137592,0.000000,0.000000,0.000000,-1,-0.006716,-0.004803,0.010353,-0.000826,-0.006919,-0.000004
"2019-04-16 05:13:46.921 +0000",1555391626.920537,-2.723205,1.419837,-0.340833,-0.061100,-0.988627,0.137415,0.000000,0.000000,0.000000,-1,-0.007996,0.002548,0.002844,-0.000729,-0.005834,0.003897
"2019-04-16 05:13:46.943 +0000",1555391626.942814,-2.723398,1.419868,-0.340681,-0.061062,-0.988632,0.137400,0.000000,0.000000,0.000000,-1,-0.006761,-0.003616,-0.000823,0.000972,-0.003968,0.002814
"2019-04-16 05:13:46.965 +0000",1555391626.965118,-2.724031,1.419838,-0.340144,-0.060987,-0.988627,0.137465,0.000000,0.000000,0.000000,-1,-0.005501,-0.004841,0.000429,0.001676,-0.005879,0.002519
"2019-04-16 05:13:46.987 +0000",1555391626.987431,-2.723844,1.419709,-0.340344,-0.061064,-0.988608,0.137569,0.000000,0.000000,0.000000,-1,-0.001734,0.000081,0.000387,-0.001162,-0.006219,0.004200
"2019-04-16 05:13:47.010 +0000",1555391627.009706,-2.723581,1.419609,-0.340566,-0.061140,-0.988593,0.137644,0.000000,0.000000,0.000000,-1,-0.007999,0.002544,0.001603,-0.001924,-0.004647,0.002935
"2019-04-16 05:13:47.032 +0000",1555391627.032015,-2.722884,1.419608,-0.341324,-0.061236,-0.988593,0.137602,0.000000,0.000000,0.000000,-1,-0.005473,-0.002357,0.006610,0.000903,-0.006997,0.002214
"2019-04-16 05:13:47.054 +0000",1555391627.054324,-2.722107,1.419717,-0.342134,-0.061299,-0.988609,0.137456,0.000000,0.000000,0.000000,-1,-0.005491,0.000085,0.001626,0.002416,-0.006722,0.004267
"2019-04-16 05:13:47.077 +0000",1555391627.076618,-2.722665,1.419707,-0.341649,-0.061227,-0.988608,0.137499,0.000000,0.000000,0.000000,-1,0.000769,0.001454,0.002913,0.000466,-0.008691,0.001569
"2019-04-16 05:13:47.099 +0000",1555391627.098909,-2.722890,1.419611,-0.341384,-0.061234,-0.988593,0.137600,0.000000,0.000000,0.000000,-1,0.001995,0.003886,-0.004551,-0.001083,-0.008797,0.003132
"2019-04-16 05:13:47.121 +0000",1555391627.121216,-2.723098,1.419377,-0.341158,-0.061300,-0.988558,0.137824,0.000000,0.000000,0.000000,-1,0.004506,-0.001028,-0.003266,-0.003245,-0.005354,0.005395
"2019-04-16 05:13:47.144 +0000",1555391627.143525,-2.723459,1.419306,-0.340927,-0.061279,-0.988547,0.137911,0.000000,0.000000,0.000000,-1,0.003259,-0.005939,-0.000741,-0.004960,-0.002679,0.003035
"2019-04-16 05:13:47.166 +0000",1555391627.165832,-2.722830,1.419054,-0.341801,-0.061467,-0.988509,0.138100,0.000000,0.000000,0.000000,-1,0.008303,-0.019435,0.008065,-0.000575,-0.006120,0.001076
"2019-04-16 05:13:47.188 +0000",1555391627.188108,-2.723747,1.418761,-0.341310,-0.061458,-0.988465,0.138421,0.000000,0.000000,0.000000,-1,0.008289,-0.016989,0.004321,0.002650,-0.004959,-0.000954
"2019-04-16 05:13:47.210 +0000",1555391627.210417,-2.724999,1.418566,-0.340490,-0.061362,-0.988435,0.138673,0.000000,0.000000,0.000000,-1,0.015796,-0.023151,0.000657,0.003256,-0.004912,-0.003038
"2019-04-16 05:13:47.233 +0000",1555391627.232726,-2.727419,1.418213,-0.338623,-0.061167,-0.988382,0.139141,0.000000,0.000000,0.000000,-1,0.028328,-0.024385,-0.001809,0.002344,-0.004279,-0.002667
"2019-04-16 05:13:47.255 +0000",1555391627.255002,-2.729768,1.417812,-0.336867,-0.060998,-0.988321,0.139647,0.000000,0.000000,0.000000,-1,0.027052,-0.023043,-0.005497,-0.003226,-0.006507,-0.000594
"2019-04-16 05:13:47.277 +0000",1555391627.277311,-2.732303,1.417269,-0.334694,-0.060858,-0.988238,0.140294,0.000000,0.000000,0.000000,-1,0.025792,-0.016903,-0.008033,-0.004023,-0.002515,0.000408
"2019-04-16 05:13:47.300 +0000",1555391627.299596,-2.732870,1.416745,-0.334264,-0.060984,-0.988158,0.140803,0.000000,0.000000,0.000000,-1,0.015775,-0.004596,-0.005665,-0.005407,-0.009615,0.003026
"2019-04-16 05:13:47.322 +0000",1555391627.321921,-2.734728,1.416276,-0.332683,-0.060905,-0.988086,0.141342,0.000000,0.000000,0.000000,-1,0.020782,-0.021815,-0.005509,-0.002739,-0.007306,0.002594
"2019-04-16 05:13:47.344 +0000",1555391627.344204,-2.737194,1.415659,-0.330938,-0.060797,-0.987990,0.142053,0.000000,0.000000,0.000000,-1,0.024548,-0.034105,-0.002917,-0.000498,-0.005601,0.002890
"2019-04-16 05:13:47.367 +0000",1555391627.366513,-2.739671,1.415058,-0.329166,-0.060677,-0.987897,0.142749,0.000000,0.000000,0.000000,-1,0.028317,-0.031639,-0.001697,0.002129,-0.006411,-0.000354
"2019-04-16 05:13:47.389 +0000",1555391627.388819,-2.744721,1.414578,-0.324858,-0.060138,-0.987823,0.143491,0.000000,0.000000,0.000000,-1,0.025800,-0.029189,-0.004203,0.006565,-0.003983,0.000903
"2019-04-16 05:13:47.411 +0000",1555391627.411098,-2.749251,1.414550,-0.320640,-0.059499,-0.987818,0.143788,0.000000,0.000000,0.000000,-1,0.019533,-0.005829,-0.006895,0.008336,-0.005117,-0.002888
"2019-04-16 05:13:47.433 +0000",1555391627.433405,-2.752069,1.414408,-0.317782,-0.059147,-0.987796,0.144085,0.000000,0.000000,0.000000,-1,0.024545,0.000419,-0.010640,0.001926,-0.008313,-0.005810
"2019-04-16 05:13:47.456 +0000",1555391627.455711,-2.752936,1.414055,-0.316862,-0.059153,-0.987741,0.144458,0.000000,0.000000,0.000000,-1,0.027041,-0.002050,-0.013097,-0.006215,-0.005362,-0.002368
"2019-04-16 05:13:47.478 +0000",1555391627.478021,-2.753013,1.413607,-0.316660,-0.059310,-0.987671,0.144873,0.000000,0.000000,0.000000,-1,0.024545,0.002880,-0.010660,-0.009827,-0.005310,-0.003317
"2019-04-16 05:13:47.500 +0000",1555391627.500300,-2.752934,1.413196,-0.316641,-0.059475,-0.987607,0.145243,0.000000,0.000000,0.000000,-1,0.020789,-0.002033,-0.008135,-0.006442,-0.005603,-0.001216
"2019-04-16 05:13:47.523 +0000",1555391627.522616,-2.753845,1.413066,-0.315782,-0.059391,-0.987586,0.145416,0.000000,0.000000,0.000000,-1,0.012026,-0.004477,-0.003155,0.001378,-0.008507,-0.003342
"2019-04-16 05:13:47.545 +0000",1555391627.544913,-2.754938,1.412890,-0.314781,-0.059298,-0.987559,0.145642,0.000000,0.000000,0.000000,-1,0.012042,-0.003233,0.000555,0.002032,-0.008169,-0.002392
"2019-04-16 05:13:47.567 +0000",1555391627.567191,-2.754820,1.412850,-0.314850,-0.059330,-0.987552,0.145671,0.000000,0.000000,0.000000,-1,0.009532,0.004142,-0.000752,-0.000622,-0.006695,-0.003215
"2019-04-16 05:13:47.589 +0000",1555391627.589500,-2.754958,1.412757,-0.314486,-0.059345,-0.987538,0.145765,0.000000,0.000000,0.000000,-1,0.002005,0.011515,-0.002061,-0.001675,-0.008098,-0.001996
"2019-04-16 05:13:47.612 +0000",1555391627.611808,-2.754425,1.412835,-0.314869,-0.059393,-0.987550,0.145662,0.000000,0.000000,0.000000,-1,0.002035,0.003014,0.001751,-0.001169,-0.004409,-0.003542
"2019-04-16 05:13:47.634 +0000",1555391627.634115,-2.753643,1.413145,-0.315564,-0.059392,-0.987599,0.145332,0.000000,0.000000,0.000000,-1,-0.006764,0.006681,-0.003247,-0.000026,-0.006588,-0.002861
"2019-04-16 05:13:47.656 +0000",1555391627.656393,-2.753112,1.413404,-0.316062,-0.059371,-0.987639,0.145063,0.000000,0.000000,0.000000,-1,-0.004254,0.000536,-0.001951,0.000732,-0.005311,0.001787
"2019-04-16 05:13:47.679 +0000",1555391627.678700,-2.751743,1.413636,-0.317536,-0.059483,-0.987676,0.144770,0.000000,0.000000,0.000000,-1,-0.000492,-0.006838,-0.000643,-0.003322,-0.007396,-0.002864
"2019-04-16 05:13:47.701 +0000",1555391627.701009,-2.750015,1.413715,-0.319362,-0.059703,-0.987688,0.144595,0.000000,0.000000,0.000000,-1,-0.002968,-0.003119,0.006767,-0.003605,-0.008833,-0.002795
"2019-04-16 05:13:47.723 +0000",1555391627.723316,-2.748721,1.413855,-0.320714,-0.059838,-0.987710,0.144390,0.000000,0.000000,0.000000,-1,-0.009263,0.000545,0.000529,-0.002006,-0.004600,0.000034
"2019-04-16 05:13:47.746 +0000",1555391627.745586,-2.747306,1.414367,-0.322035,-0.059847,-0.987790,0.143838,0.000000,0.000000,0.000000,-1,-0.023052,0.007924,0.001698,0.001193,-0.009876,-0.000802
"2019-04-16 05:13:47.768 +0000",1555391627.767901,-2.746515,1.414761,-0.322612,-0.059812,-0.987851,0.143432,0.000000,0.000000,0.000000,-1,-0.019312,0.010362,-0.004525,0.001355,-0.009372,0.002824
"2019-04-16 05:13:47.790 +0000",1555391627.790210,-2.746035,1.415026,-0.322940,-0.059779,-0.987892,0.143161,0.000000,0.000000,0.000000,-1,-0.012987,0.003091,0.001748,0.000667,-0.001396,0.001385
"2019-04-16 05:13:47.812 +0000",1555391627.812487,-2.744679,1.415061,-0.324391,-0.059960,-0.987898,0.143048,0.000000,0.000000,0.000000,-1,-0.002961,-0.010435,0.001873,-0.004676,-0.001345,0.000369
"2019-04-16 05:13:47.835 +0000",1555391627.834795,-2.743596,1.414961,-0.325939,-0.060153,-0.987882,0.143074,0.000000,0.000000,0.000000,-1,0.000812,-0.017800,0.005662,-0.002011,-0.007906,0.001060
"2019-04-16 05:13:47.857 +0000",1555391627.857103,-2.743908,1.414854,-0.326095,-0.060149,-0.987866,0.143190,0.000000,0.000000,0.000000,-1,0.004555,-0.017818,0.000701,0.000503,-0.003773,0.001768
"2019-04-16 05:13:47.879 +0000",1555391627.879412,-2.744889,1.414879,-0.325383,-0.059999,-0.987870,0.143226,0.000000,0.000000,0.000000,-1,-0.000468,-0.011679,-0.001837,0.003023,-0.004165,0.002037
"2019-04-16 05:13:47.902 +0000",1555391627.901682,-2.747293,1.414853,-0.323321,-0.059665,-0.987865,0.143395,0.000000,0.000000,0.000000,-1,-0.001750,-0.015394,-0.008008,0.003787,-0.006535,0.004127
"2019-04-16 05:13:47.924 +0000",1555391627.923997,-2.748972,1.414956,-0.321883,-0.059385,-0.987882,0.143400,0.000000,0.000000,0.000000,-1,-0.004224,-0.010445,-0.000611,0.001890,-0.005313,0.002825
"2019-04-16 05:13:47.946 +0000",1555391627.946305,-2.749747,1.414885,-0.321379,-0.059301,-0.987870,0.143511,0.000000,0.000000,0.000000,-1,-0.000444,-0.015345,0.004396,0.002065,-0.004866,0.003309
"2019-04-16 05:13:47.969 +0000",1555391627.968589,-2.750422,1.414834,-0.321108,-0.059223,-0.987863,0.143598,0.000000,0.000000,0.000000,-1,0.002089,-0.015276,0.001911,0.000751,-0.007453,0.002826
"2019-04-16 05:13:47.991 +0000",1555391627.990888,-2.750208,1.415034,-0.321462,-0.059179,-0.987894,0.143403,0.000000,0.000000,0.000000,-1,-0.019226,-0.001753,0.001781,0.002355,-0.008383,0.003311
"2019-04-16 05:13:48.013 +0000",1555391628.013198,-2.749902,1.415655,-0.321856,-0.058988,-0.987990,0.142817,0.000000,0.000000,0.000000,-1,-0.028018,0.003149,-0.001988,0.004133,-0.005785,0.001958
"2019-04-16 05:13:48.036 +0000",1555391628.035505,-2.748429,1.416382,-0.323200,-0.058923,-0.988102,0.142066,0.000000,0.000000,0.000000,-1,-0.031788,0.008058,-0.004514,-0.000296,-0.006832,0.003838
"2019-04-16 05:13:48.058 +0000",1555391628.057783,-2.748673,1.416535,-0.322992,-0.058831,-0.988125,0.141942,0.000000,0.000000,0.000000,-1,-0.007949,-0.006679,-0.000652,0.000313,-0.003543,0.004604
"2019-04-16 05:13:48.080 +0000",1555391628.080090,-2.749947,1.416291,-0.321818,-0.058742,-0.988088,0.142239,0.000000,0.000000,0.000000,-1,0.005848,-0.001757,-0.001930,-0.000234,-0.005000,0.005649
"2019-04-16 05:13:48.102 +0000",1555391628.102396,-2.750936,1.416214,-0.320769,-0.058630,-0.988076,0.142367,0.000000,0.000000,0.000000,-1,0.003331,0.000693,-0.004434,0.000540,-0.004127,0.005048
"2019-04-16 05:13:48.125 +0000",1555391628.124680,-2.752111,1.416011,-0.319685,-0.058539,-0.988045,0.142621,0.000000,0.000000,0.000000,-1,-0.000441,-0.006694,-0.005611,0.001044,-0.002663,0.003726
"2019-04-16 05:13:48.147 +0000",1555391628.146984,-2.752548,1.416102,-0.319507,-0.058442,-0.988059,0.142564,0.000000,0.000000,0.000000,-1,-0.005411,-0.015196,0.001898,0.000901,-0.008722,0.001510
"2019-04-16 05:13:48.169 +0000",1555391628.169292,-2.751217,1.416250,-0.321140,-0.058577,-0.988081,0.142351,0.000000,0.000000,0.000000,-1,-0.006655,-0.013957,0.004368,-0.002016,-0.006593,-0.000750
"2019-04-16 05:13:48.192 +0000",1555391628.191584,-2.750751,1.416227,-0.321737,-0.058652,-0.988078,0.142345,0.000000,0.000000,0.000000,-1,-0.000385,-0.001663,0.001781,-0.001941,-0.005635,-0.000255
"2019-04-16 05:13:48.214 +0000",1555391628.213876,-2.750729,1.416359,-0.321715,-0.058605,-0.988098,0.142223,0.000000,0.000000,0.000000,-1,-0.002932,0.001988,-0.008177,-0.001362,-0.006149,-0.000637
"2019-04-16 05:13:48.236 +0000",1555391628.236185,-2.752242,1.416331,-0.320163,-0.058400,-0.988094,0.142337,0.000000,0.000000,0.000000,-1,0.000817,0.003206,-0.011908,0.000264,-0.007100,0.002866
"2019-04-16 05:13:48.258 +0000",1555391628.258493,-2.753553,1.416524,-0.318709,-0.058142,-0.988124,0.142237,0.000000,0.000000,0.000000,-1,-0.006707,0.006893,-0.011944,0.002249,-0.005910,0.006521
"2019-04-16 05:13:48.281 +0000",1555391628.280800,-2.753900,1.416561,-0.318292,-0.058078,-0.988129,0.142223,0.000000,0.000000,0.000000,-1,-0.005415,0.002012,-0.001975,-0.002728,-0.001815,0.002720
"2019-04-16 05:13:48.303 +0000",1555391628.303078,-2.753073,1.416450,-0.319124,-0.058237,-0.988112,0.142276,0.000000,0.000000,0.000000,-1,0.005883,-0.001664,0.000544,-0.003805,-0.006364,0.001919
"2019-04-16 05:13:48.325 +0000",1555391628.325386,-2.753018,1.416099,-0.319226,-0.058376,-0.988058,0.142594,0.000000,0.000000,0.000000,-1,0.003390,0.000881,0.002996,-0.001697,-0.008249,0.005371
"2019-04-16 05:13:48.348 +0000",1555391628.347682,-2.754552,1.416135,-0.317655,-0.058145,-0.988064,0.142651,0.000000,0.000000,0.000000,-1,-0.002906,0.002084,-0.003221,0.002496,-0.004551,0.001804
"2019-04-16 05:13:48.370 +0000",1555391628.369972,-2.754931,1.416245,-0.317199,-0.058049,-0.988081,0.142572,0.000000,0.000000,0.000000,-1,0.003368,0.004547,-0.003240,0.002385,-0.004504,0.001013
"2019-04-16 05:13:48.392 +0000",1555391628.392280,-2.756107,1.416152,-0.316022,-0.057916,-0.988066,0.142725,0.000000,0.000000,0.000000,-1,0.008381,-0.002832,-0.003173,-0.002615,-0.006563,0.003332
"2019-04-16 05:13:48.415 +0000",1555391628.414559,-2.757795,1.416057,-0.314365,-0.057710,-0.988052,0.142910,0.000000,0.000000,0.000000,-1,0.003354,-0.001613,-0.005667,0.001573,-0.004304,0.002872
"2019-04-16 05:13:48.437 +0000",1555391628.436895,-2.759254,1.415964,-0.312910,-0.057536,-0.988037,0.143079,0.000000,0.000000,0.000000,-1,0.005859,-0.000387,-0.006918,0.000056,-0.005508,0.003741
"2019-04-16 05:13:48.459 +0000",1555391628.459171,-2.761171,1.415938,-0.311020,-0.057271,-0.988033,0.143213,0.000000,0.000000,0.000000,-1,-0.001657,-0.001610,-0.004430,0.004964,-0.006641,0.002982
"2019-04-16 05:13:48.481 +0000",1555391628.481481,-2.761487,1.416051,-0.310819,-0.057185,-0.988051,0.143128,0.000000,0.000000,0.000000,-1,-0.002905,-0.007752,-0.001895,0.002543,-0.008287,0.003646
"2019-04-16 05:13:48.504 +0000",1555391628.503788,-2.763244,1.416061,-0.309160,-0.056929,-0.988052,0.143219,0.000000,0.000000,0.000000,-1,-0.001653,-0.002754,-0.003185,0.004759,-0.004959,0.001358
"2019-04-16 05:13:48.526 +0000",1555391628.526079,-2.764689,1.415993,-0.307681,-0.056747,-0.988042,0.143363,0.000000,0.000000,0.000000,-1,0.004624,0.004629,-0.003248,0.001220,-0.006221,0.002740
"2019-04-16 05:13:48.548 +0000",1555391628.548373,-2.766036,1.415849,-0.306271,-0.056606,-0.988020,0.143572,0.000000,0.000000,0.000000,-1,0.005867,0.003390,-0.005717,0.002407,-0.004977,0.004896
"2019-04-16 05:13:48.571 +0000",1555391628.570681,-2.768189,1.415657,-0.304060,-0.056366,-0.987990,0.143870,0.000000,0.000000,0.000000,-1,0.002100,0.003384,-0.006960,0.002243,-0.006852,0.003591
"2019-04-16 05:13:48.593 +0000",1555391628.592989,-2.769733,1.415611,-0.302397,-0.056160,-0.987983,0.143999,0.000000,0.000000,0.000000,-1,0.002113,0.007084,-0.004512,0.002816,-0.005044,0.003172
"2019-04-16 05:13:48.615 +0000",1555391628.615268,-2.771137,1.415638,-0.300892,-0.055948,-0.987987,0.144053,0.000000,0.000000,0.000000,-1,0.000840,0.002148,-0.008191,0.003840,-0.007908,0.003164
"2019-04-16 05:13:48.638 +0000",1555391628.637583,-2.772503,1.415596,-0.299403,-0.055767,-0.987981,0.144168,0.000000,0.000000,0.000000,-1,-0.002900,0.005856,-0.003264,0.001857,-0.006755,0.003445
"2019-04-16 05:13:48.660 +0000",1555391628.659883,-2.773055,1.415573,-0.298735,-0.055695,-0.987977,0.144220,0.000000,0.000000,0.000000,-1,0.002133,0.005873,0.000460,0.002945,-0.006118,0.002265
"2019-04-16 05:13:48.682 +0000",1555391628.682160,-2.773945,1.415512,-0.297778,-0.055589,-0.987968,0.144326,0.000000,0.000000,0.000000,-1,0.005881,0.001025,-0.001981,0.001908,-0.008431,0.001563
"2019-04-16 05:13:48.704 +0000",1555391628.704467,-2.773949,1.415392,-0.297799,-0.055631,-0.987949,0.144437,0.000000,0.000000,0.000000,-1,0.000882,-0.001418,0.003000,0.001752,-0.006100,0.000842
"2019-04-16 05:13:48.727 +0000",1555391628.726789,-2.775378,1.415418,-0.296384,-0.055415,-0.987953,0.144492,0.000000,0.000000,0.000000,-1,0.000869,0.001028,-0.000744,0.002696,-0.007515,0.001871
"2019-04-16 05:13:48.749 +0000",1555391628.749085,-2.775876,1.415561,-0.295842,-0.055292,-0.987975,0.144387,0.000000,0.000000,0.000000,-1,0.000869,0.002258,-0.000755,0.003840,-0.007264,-0.001046
"2019-04-16 05:13:48.771 +0000",1555391628.771362,-2.776241,1.415568,-0.295513,-0.055237,-0.987976,0.144401,0.000000,0.000000,0.000000,-1,0.002116,-0.001437,-0.001963,0.003464,-0.005539,0.000740
"2019-04-16 05:13:48.794 +0000",1555391628.793634,-2.777518,1.415801,-0.294293,-0.054971,-0.988012,0.144257,0.000000,0.000000,0.000000,-1,-0.004136,-0.002650,0.003007,0.005502,-0.007410,0.001022
"2019-04-16 05:13:48.816 +0000",1555391628.815942,-2.777841,1.415949,-0.294061,-0.054872,-0.988035,0.144137,0.000000,0.000000,0.000000,-1,-0.002882,-0.002650,0.003007,0.003358,-0.010408,-0.000110
"2019-04-16 05:13:48.838 +0000",1555391628.838250,-2.778680,1.416031,-0.293319,-0.054722,-0.988048,0.144108,0.000000,0.000000,0.000000,-1,-0.004163,-0.005134,-0.003175,0.001988,-0.007649,0.003018
"2019-04-16 05:13:48.861 +0000",1555391628.860518,-2.778330,1.415996,-0.293818,-0.054785,-0.988042,0.144120,0.000000,0.000000,0.000000,-1,0.000870,-0.008720,0.001818,-0.002115,-0.005335,0.000548
"2019-04-16 05:13:48.883 +0000",1555391628.882837,-2.777538,1.415894,-0.294762,-0.054935,-0.988027,0.144172,0.000000,0.000000,0.000000,-1,0.000882,-0.006250,0.004278,-0.001904,-0.007091,0.001931
"2019-04-16 05:13:48.905 +0000",1555391628.905143,-2.778141,1.415739,-0.294195,-0.054902,-0.988003,0.144348,0.000000,0.000000,0.000000,-1,0.002132,0.002351,0.001720,0.000764,-0.005924,0.002320
"2019-04-16 05:13:48.927 +0000",1555391628.927421,-2.777966,1.415775,-0.294256,-0.054915,-0.988008,0.144305,0.000000,0.000000,0.000000,-1,0.003375,0.007258,-0.002044,0.003829,-0.004698,-0.000980
"2019-04-16 05:13:48.950 +0000",1555391628.949730,-2.776818,1.415749,-0.295254,-0.055090,-0.988004,0.144266,0.000000,0.000000,0.000000,-1,-0.000370,0.003585,0.002949,-0.003214,-0.007128,0.003424
"2019-04-16 05:13:48.972 +0000",1555391628.972036,-2.776006,1.415716,-0.296029,-0.055219,-0.987999,0.144252,0.000000,0.000000,0.000000,-1,-0.001628,-0.001335,0.002993,-0.002810,-0.008598,0.002446
"2019-04-16 05:13:48.994 +0000",1555391628.994344,-2.775261,1.415831,-0.296756,-0.055286,-0.988017,0.144105,0.000000,0.000000,0.000000,-1,-0.007900,0.004808,0.001695,-0.001111,-0.006917,0.001708
"2019-04-16 05:13:49.017 +0000",1555391629.016639,-2.774606,1.415907,-0.297248,-0.055353,-0.988029,0.143998,0.000000,0.000000,0.000000,-1,-0.004133,0.010960,0.001642,0.000727,-0.007287,0.001982
"2019-04-16 05:13:49.039 +0000",1555391629.038930,-2.774249,1.415953,-0.297383,-0.055388,-0.988036,0.143936,0.000000,0.000000,0.000000,-1,-0.007897,0.008584,0.001660,0.001082,-0.007356,0.003373
"2019-04-16 05:13:49.061 +0000",1555391629.061238,-2.773575,1.415939,-0.297839,-0.055490,-0.988034,0.143911,0.000000,0.000000,0.000000,-1,-0.001608,0.011062,0.005363,0.000299,-0.006443,0.001978
"2019-04-16 05:13:49.084 +0000",1555391629.083511,-2.772556,1.415961,-0.298646,-0.055629,-0.988037,0.143834,0.000000,0.000000,0.000000,-1,-0.006621,0.011065,0.006601,0.001628,-0.006485,0.002803
"2019-04-16 05:13:49.106 +0000",1555391629.105822,-2.771651,1.415991,-0.299374,-0.055748,-0.988042,0.143757,0.000000,0.000000,0.000000,-1,-0.006622,0.008604,0.006623,0.001900,-0.007030,0.003506
"2019-04-16 05:13:49.128 +0000",1555391629.128131,-2.772332,1.416080,-0.298464,-0.055619,-0.988055,0.143712,0.000000,0.000000,0.000000,-1,-0.006636,0.009820,0.002889,0.003983,-0.005292,0.002512
"2019-04-16 05:13:49.150 +0000",1555391629.150422,-2.772301,1.416012,-0.298153,-0.055647,-0.988045,0.143773,0.000000,0.000000,0.000000,-1,0.003389,0.017191,-0.000894,0.001402,-0.007439,0.003596
"2019-04-16 05:13:49.173 +0000",1555391629.172709,-2.772927,1.416018,-0.297256,-0.055555,-0.988046,0.143803,0.000000,0.000000,0.000000,-1,-0.001633,0.009808,-0.000831,0.003721,-0.006980,0.003765
"2019-04-16 05:13:49.195 +0000",1555391629.195024,-2.773795,1.416183,-0.296205,-0.055372,-0.988071,0.143699,0.000000,0.000000,0.000000,-1,-0.010388,0.009828,0.005367,0.004728,-0.007427,0.003320
"2019-04-16 05:13:49.217 +0000",1555391629.217332,-2.772604,1.416402,-0.297255,-0.055465,-0.988105,0.143431,0.000000,0.000000,0.000000,-1,-0.015412,0.004974,0.004170,0.002181,-0.005715,0.004823
"2019-04-16 05:13:49.240 +0000",1555391629.239620,-2.772004,1.416475,-0.297793,-0.055525,-0.988116,0.143330,0.000000,0.000000,0.000000,-1,-0.005368,0.003758,0.006666,0.000120,-0.006696,0.002666
"2019-04-16 05:13:49.262 +0000",1555391629.261917,-2.771279,1.416587,-0.298430,-0.055588,-0.988133,0.143186,0.000000,0.000000,0.000000,-1,-0.007880,0.006212,0.005402,0.001984,-0.007838,0.001528
"2019-04-16 05:13:49.284 +0000",1555391629.284225,-2.770537,1.416726,-0.298986,-0.055645,-0.988155,0.143018,0.000000,0.000000,0.000000,-1,-0.004125,0.009894,0.002890,0.001263,-0.007466,0.000873
"2019-04-16 05:13:49.307 +0000",1555391629.306526,-2.769215,1.416733,-0.300153,-0.055831,-0.988156,0.142937,0.000000,0.000000,0.000000,-1,-0.005367,0.004988,0.006655,0.000366,-0.006031,0.000343
"2019-04-16 05:13:49.329 +0000",1555391629.328810,-2.768504,1.416773,-0.300726,-0.055919,-0.988162,0.142861,0.000000,0.000000,0.000000,-1,-0.004122,0.006209,0.004163,0.001567,-0.003980,0.001213
"2019-04-16 05:13:49.351 +0000",1555391629.351129,-2.767596,1.416887,-0.301492,-0.056007,-0.988179,0.142706,0.000000,0.000000,0.000000,-1,-0.004121,0.008669,0.004141,-0.000114,-0.003688,-0.001471
"2019-04-16 05:13:49.373 +0000",1555391629.373426,-2.766999,1.416961,-0.301894,-0.056066,-0.988191,0.142604,0.000000,0.000000,0.000000,-1,-0.006643,0.011114,0.000397,-0.000804,-0.005691,-0.000300
"2019-04-16 05:13:49.396 +0000",1555391629.395734,-2.767122,1.416918,-0.301612,-0.056064,-0.988184,0.142650,0.000000,0.000000,0.000000,-1,-0.002887,0.006237,-0.000792,-0.000516,-0.008322,0.000950
"2019-04-16 05:13:49.418 +0000",1555391629.418011,-2.766081,1.416937,-0.302486,-0.056205,-0.988187,0.142574,0.000000,0.000000,0.000000,-1,0.000886,0.006248,0.001690,-0.002740,-0.007022,-0.000164
"2019-04-16 05:13:49.440 +0000",1555391629.440320,-2.764965,1.416945,-0.303477,-0.056362,-0.988188,0.142505,0.000000,0.000000,0.000000,-1,0.000914,0.002587,0.009166,-0.001332,-0.005495,0.000851
"2019-04-16 05:13:49.463 +0000",1555391629.462622,-2.764315,1.416929,-0.304210,-0.056460,-0.988186,0.142482,0.000000,0.000000,0.000000,-1,-0.001616,-0.006039,0.005520,0.001406,-0.007603,0.001713
"2019-04-16 05:13:49.485 +0000",1555391629.484929,-2.765182,1.416953,-0.303461,-0.056328,-0.988189,0.142510,0.000000,0.000000,0.000000,-1,0.002140,-0.002357,0.003007,0.003685,-0.004868,-0.001442
"2019-04-16 05:13:49.507 +0000",1555391629.507213,-2.765476,1.416910,-0.303148,-0.056301,-0.988183,0.142565,0.000000,0.000000,0.000000,-1,0.007149,0.001326,0.000495,0.001583,-0.003074,-0.000048
"2019-04-16 05:13:49.530 +0000",1555391629.529525,-2.765095,1.416841,-0.303511,-0.056381,-0.988172,0.142607,0.000000,0.000000,0.000000,-1,0.007155,-0.004815,0.003031,-0.002244,-0.006426,-0.002623
"2019-04-16 05:13:49.552 +0000",1555391629.551828,-2.764029,1.416608,-0.304635,-0.056618,-0.988137,0.142761,0.000000,0.000000,0.000000,-1,0.007156,-0.003584,0.003020,-0.003044,-0.006782,0.000351
"2019-04-16 05:13:49.574 +0000",1555391629.574105,-2.763074,1.416590,-0.305616,-0.056760,-0.988134,0.142723,0.000000,0.000000,0.000000,-1,0.005902,-0.002319,0.003018,-0.001925,-0.003123,-0.000526
"2019-04-16 05:13:49.596 +0000",1555391629.596414,-2.762229,1.416634,-0.306538,-0.056865,-0.988140,0.142636,0.000000,0.000000,0.000000,-1,-0.004123,-0.003544,0.005506,0.000713,-0.006046,-0.000897
"2019-04-16 05:13:49.619 +0000",1555391629.618721,-2.761229,1.416635,-0.307556,-0.057007,-0.988141,0.142577,0.000000,0.000000,0.000000,-1,-0.001607,0.000152,0.006714,-0.001327,-0.006702,0.001023
"2019-04-16 05:13:49.641 +0000",1555391629.640998,-2.760565,1.416496,-0.308080,-0.057153,-0.988119,0.142667,0.000000,0.000000,0.000000,-1,-0.000381,0.003814,-0.000761,-0.002631,-0.006037,0.002918
"2019-04-16 05:13:49.663 +0000",1555391629.663308,-2.759470,1.416364,-0.309002,-0.057358,-0.988099,0.142725,0.000000,0.000000,0.000000,-1,0.004658,0.005066,0.004193,-0.002792,-0.004882,0.001654
"2019-04-16 05:13:49.686 +0000",1555391629.685605,-2.758488,1.416284,-0.309812,-0.057527,-0.988087,0.142742,0.000000,0.000000,0.000000,-1,0.002166,0.007540,0.007891,0.000475,-0.007977,0.001103
"2019-04-16 05:13:49.708 +0000",1555391629.707922,-2.757460,1.416216,-0.310605,-0.057699,-0.988076,0.142744,0.000000,0.000000,0.000000,-1,-0.000346,0.011224,0.006617,0.001120,-0.006385,0.001573
"2019-04-16 05:13:49.730 +0000",1555391629.730199,-2.757373,1.416108,-0.310438,-0.057752,-0.988060,0.142839,0.000000,0.000000,0.000000,-1,0.003402,0.011211,0.002897,-0.000033,-0.006249,0.000975
"2019-04-16 05:13:49.752 +0000",1555391629.752494,-2.757092,1.416018,-0.310565,-0.057825,-0.988046,0.142905,0.000000,0.000000,0.000000,-1,0.002151,0.007554,0.004179,-0.002371,-0.006690,-0.000449
"2019-04-16 05:13:49.775 +0000",1555391629.774806,-2.755788,1.416129,-0.311632,-0.057970,-0.988063,0.142728,0.000000,0.000000,0.000000,-1,-0.000370,0.012459,0.000413,0.000048,-0.006002,-0.001249
"2019-04-16 05:13:49.797 +0000",1555391629.797118,-2.754982,1.416098,-0.312242,-0.058097,-0.988058,0.142711,0.000000,0.000000,0.000000,-1,0.003400,0.007550,0.002939,-0.001565,-0.006281,-0.000880
"2019-04-16 05:13:49.819 +0000",1555391629.819393,-2.755088,1.415895,-0.312049,-0.058157,-0.988027,0.142901,0.000000,0.000000,0.000000,-1,0.010934,0.003873,0.005456,-0.001016,-0.006480,0.000943
"2019-04-16 05:13:49.842 +0000",1555391629.841709,-2.755195,1.415633,-0.311844,-0.058239,-0.987986,0.143147,0.000000,0.000000,0.000000,-1,0.012173,0.003859,0.001735,-0.000949,-0.006124,0.001094
"2019-04-16 05:13:49.864 +0000",1555391629.864017,-2.755631,1.415342,-0.311275,-0.058285,-0.987941,0.143439,0.000000,0.000000,0.000000,-1,0.012155,0.006300,-0.003249,-0.001651,-0.007191,0.001505
"2019-04-16 05:13:49.886 +0000",1555391629.886295,-2.754960,1.415231,-0.311769,-0.058423,-0.987924,0.143501,0.000000,0.000000,0.000000,-1,-0.000358,0.007554,0.004178,-0.002429,-0.005789,0.000618
"2019-04-16 05:13:49.909 +0000",1555391629.908591,-2.754161,1.415318,-0.312513,-0.058505,-0.987938,0.143376,0.000000,0.000000,0.000000,-1,-0.010376,0.001418,0.009190,0.002750,-0.006508,0.000347
"2019-04-16 05:13:49.931 +0000",1555391629.930911,-2.753717,1.415396,-0.313028,-0.058540,-0.987950,0.143278,0.000000,0.000000,0.000000,-1,-0.001601,-0.004672,0.008016,0.005195,-0.007961,0.001558
"2019-04-16 05:13:49.953 +0000",1555391629.953188,-2.753172,1.415552,-0.313509,-0.058559,-0.987974,0.143103,0.000000,0.000000,0.000000,-1,-0.004139,0.005134,-0.000756,-0.000309,-0.007891,0.001489
"2019-04-16 05:13:49.976 +0000",1555391629.975513,-2.752972,1.415624,-0.313575,-0.058561,-0.987985,0.143025,0.000000,0.000000,0.000000,-1,-0.005402,0.006355,-0.003249,-0.001895,-0.005561,0.001780
"2019-04-16 05:13:49.998 +0000",1555391629.997802,-2.752555,1.415707,-0.313884,-0.058590,-0.987998,0.142926,0.000000,0.000000,0.000000,-1,-0.001625,0.005141,0.000486,-0.001850,-0.003717,0.000674
"2019-04-16 05:13:50.020 +0000",1555391630.020112,-2.752337,1.415538,-0.314077,-0.058684,-0.987972,0.143068,0.000000,0.000000,0.000000,-1,0.010925,-0.000995,0.003027,-0.000871,-0.003850,0.001479
"2019-04-16 05:13:50.042 +0000",1555391630.042388,-2.752626,1.415208,-0.313925,-0.058766,-0.987921,0.143386,0.000000,0.000000,0.000000,-1,0.014690,-0.005909,0.004312,-0.000102,-0.004908,0.002259
"2019-04-16 05:13:50.065 +0000",1555391630.064697,-2.754135,1.415030,-0.312484,-0.058616,-0.987893,0.143637,0.000000,0.000000,0.000000,-1,0.008398,0.001445,-0.001959,0.002510,-0.003486,0.000604
"2019-04-16 05:13:50.087 +0000",1555391630.087006,-2.754678,1.414990,-0.311813,-0.058553,-0.987887,0.143706,0.000000,0.000000,0.000000,-1,0.005887,0.005130,-0.003233,-0.000346,-0.006986,0.000017
"2019-04-16 05:13:50.109 +0000",1555391630.109283,-2.754862,1.414964,-0.311569,-0.058536,-0.987883,0.143740,0.000000,0.000000,0.000000,-1,0.004641,0.000256,-0.001945,-0.004055,-0.004625,0.002500
"2019-04-16 05:13:50.132 +0000",1555391630.131591,-2.754502,1.414854,-0.312022,-0.058629,-0.987866,0.143820,0.000000,0.000000,0.000000,-1,-0.006636,-0.005885,0.001827,-0.002040,-0.008152,0.004999
"2019-04-16 05:13:50.154 +0000",1555391630.153898,-2.753799,1.414961,-0.312843,-0.058690,-0.987882,0.143681,0.000000,0.000000,0.000000,-1,-0.007885,-0.005880,0.003067,0.000325,-0.006045,0.001995
"2019-04-16 05:13:50.176 +0000",1555391630.176208,-2.753366,1.415157,-0.313405,-0.058679,-0.987913,0.143476,0.000000,0.000000,0.000000,-1,-0.010392,-0.003421,0.003044,0.000284,-0.007937,0.001422
"2019-04-16 05:13:50.198 +0000",1555391630.198483,-2.753234,1.415259,-0.313616,-0.058660,-0.987928,0.143376,0.000000,0.000000,0.000000,-1,-0.002886,-0.002207,-0.001926,0.000585,-0.006975,0.003902
"2019-04-16 05:13:50.221 +0000",1555391630.220791,-2.753580,1.415218,-0.313373,-0.058626,-0.987922,0.143433,0.000000,0.000000,0.000000,-1,0.007160,-0.008339,0.001854,0.000200,-0.005807,0.000107
"2019-04-16 05:13:50.243 +0000",1555391630.243099,-2.753490,1.415190,-0.313569,-0.058649,-0.987918,0.143453,0.000000,0.000000,0.000000,-1,0.004651,-0.000964,0.000547,-0.000448,-0.005963,0.001979
"2019-04-16 05:13:50.265 +0000",1555391630.265406,-2.753900,1.415059,-0.313162,-0.058639,-0.987897,0.143597,0.000000,0.000000,0.000000,-1,0.004653,0.001496,0.000525,0.000671,-0.006854,-0.000241
"2019-04-16 05:13:50.288 +0000",1555391630.287684,-2.754831,1.414975,-0.312111,-0.058537,-0.987884,0.143728,0.000000,0.000000,0.000000,-1,0.002131,0.005197,-0.005710,0.000035,-0.006317,0.000879
"2019-04-16 05:13:50.310 +0000",1555391630.309993,-2.755528,1.414963,-0.311283,-0.058441,-0.987882,0.143781,0.000000,0.000000,0.000000,-1,0.005897,0.002743,-0.004446,-0.000488,-0.004610,0.001041
"2019-04-16 05:13:50.332 +0000",1555391630.332302,-2.755904,1.414970,-0.310786,-0.058384,-0.987884,0.143795,0.000000,0.000000,0.000000,-1,0.000887,0.005206,-0.003229,-0.001110,-0.006318,0.001682
"2019-04-16 05:13:50.355 +0000",1555391630.354600,-2.755987,1.414962,-0.310614,-0.058375,-0.987882,0.143808,0.000000,0.000000,0.000000,-1,-0.005370,0.003988,0.000500,-0.000432,-0.005785,0.001746
"2019-04-16 05:13:50.377 +0000",1555391630.376886,-2.755374,1.415034,-0.311133,-0.058437,-0.987894,0.143707,0.000000,0.000000,0.000000,-1,-0.004104,0.006459,0.002960,-0.000157,-0.006064,0.001969
"2019-04-16 05:13:50.399 +0000",1555391630.399179,-2.755408,1.415106,-0.311015,-0.058405,-0.987905,0.143642,0.000000,0.000000,0.000000,-1,-0.005350,0.004007,0.005462,0.001292,-0.006953,0.001515
"2019-04-16 05:13:50.422 +0000",1555391630.421502,-2.755156,1.415122,-0.311132,-0.058436,-0.987907,0.143613,0.000000,0.000000,0.000000,-1,0.000906,0.002766,0.001754,-0.000479,-0.007332,0.003772
"2019-04-16 05:13:50.444 +0000",1555391630.443780,-2.755345,1.415167,-0.310839,-0.058392,-0.987914,0.143583,0.000000,0.000000,0.000000,-1,-0.000361,0.006441,-0.002001,0.000164,-0.005387,0.001315
"2019-04-16 05:13:50.466 +0000",1555391630.466087,-2.755129,1.415117,-0.310897,-0.058441,-0.987906,0.143616,0.000000,0.000000,0.000000,-1,0.004676,0.006479,0.000480,0.000443,-0.005441,-0.000245
"2019-04-16 05:13:50.488 +0000",1555391630.488396,-2.755255,1.415093,-0.310568,-0.058432,-0.987903,0.143645,0.000000,0.000000,0.000000,-1,0.002166,0.011394,-0.000806,-0.001031,-0.004666,0.000291
"2019-04-16 05:13:50.511 +0000",1555391630.510689,-2.756078,1.415121,-0.309539,-0.058304,-0.987907,0.143668,0.000000,0.000000,0.000000,-1,-0.001582,0.011407,0.002914,0.002823,-0.006875,-0.000175
"2019-04-16 05:13:50.533 +0000",1555391630.532980,-2.756316,1.415188,-0.309076,-0.058245,-0.987917,0.143621,0.000000,0.000000,0.000000,-1,-0.002852,0.010162,-0.000797,0.002382,-0.007200,0.001841
"2019-04-16 05:13:50.555 +0000",1555391630.555289,-2.756153,1.415469,-0.309062,-0.058164,-0.987961,0.143354,0.000000,0.000000,0.000000,-1,-0.011639,0.008923,-0.002031,0.003858,-0.009232,0.002337
"2019-04-16 05:13:50.578 +0000",1555391630.577566,-2.756431,1.415632,-0.308639,-0.058063,-0.987986,0.143220,0.000000,0.000000,0.000000,-1,-0.011642,0.004003,-0.001987,-0.001080,-0.005834,0.000762
"2019-04-16 05:13:50.600 +0000",1555391630.599875,-2.756189,1.415637,-0.308871,-0.058096,-0.987987,0.143201,0.000000,0.000000,0.000000,-1,-0.001590,-0.002124,0.003033,-0.000071,-0.004796,0.001605
"2019-04-16 05:13:50.622 +0000",1555391630.622181,-2.756093,1.415636,-0.309026,-0.058110,-0.987987,0.143196,0.000000,0.000000,0.000000,-1,-0.002859,-0.000909,-0.000700,0.000233,-0.006230,0.001381
"2019-04-16 05:13:50.644 +0000",1555391630.644490,-2.756378,1.415701,-0.308745,-0.058045,-0.987997,0.143155,0.000000,0.000000,0.000000,-1,0.002158,-0.003355,-0.001923,0.000108,-0.007883,0.001804
"2019-04-16 05:13:50.667 +0000",1555391630.666767,-2.758440,1.415799,-0.306634,-0.057714,-0.988012,0.143184,0.000000,0.000000,0.000000,-1,-0.001598,0.006484,-0.002013,0.005040,-0.003947,0.002385
"2019-04-16 05:13:50.689 +0000",1555391630.689076,-2.759216,1.415954,-0.305768,-0.057545,-0.988036,0.143086,0.000000,0.000000,0.000000,-1,0.000891,0.000321,-0.005679,-0.001155,-0.005708,-0.000355
"2019-04-16 05:13:50.711 +0000",1555391630.711383,-2.759662,1.415942,-0.305363,-0.057486,-0.988034,0.143123,0.000000,0.000000,0.000000,-1,-0.001604,-0.002126,-0.001936,-0.000559,-0.007434,0.000859
"2019-04-16 05:13:50.734 +0000",1555391630.733691,-2.759059,1.415904,-0.306000,-0.057586,-0.988028,0.143124,0.000000,0.000000,0.000000,-1,-0.007864,0.000341,0.000521,-0.002716,-0.007272,0.003117
"2019-04-16 05:13:50.756 +0000",1555391630.755967,-2.758902,1.416113,-0.306179,-0.057531,-0.988060,0.142922,0.000000,0.000000,0.000000,-1,-0.006617,-0.003353,-0.000687,0.000311,-0.006462,0.000953
"2019-04-16 05:13:50.778 +0000",1555391630.778275,-2.758987,1.416237,-0.306131,-0.057474,-0.988079,0.142814,0.000000,0.000000,0.000000,-1,-0.006606,-0.002114,0.001783,0.002572,-0.008167,0.001641
"2019-04-16 05:13:50.801 +0000",1555391630.800570,-2.758471,1.416351,-0.306699,-0.057505,-0.988097,0.142680,0.000000,0.000000,0.000000,-1,-0.002849,-0.003347,0.000555,-0.000936,-0.005189,0.001470
"2019-04-16 05:13:50.823 +0000",1555391630.822861,-2.758453,1.416355,-0.306836,-0.057506,-0.988098,0.142675,0.000000,0.000000,0.000000,-1,0.003399,-0.003330,0.000644,0.000179,-0.007126,0.000621
"2019-04-16 05:13:50.845 +0000",1555391630.845168,-2.759302,1.416317,-0.306068,-0.057399,-0.988092,0.142758,0.000000,0.000000,0.000000,-1,0.000893,0.000359,0.000610,0.002055,-0.006583,0.000995
"2019-04-16 05:13:50.867 +0000",1555391630.867477,-2.759459,1.416401,-0.305950,-0.057346,-0.988105,0.142690,0.000000,0.000000,0.000000,-1,-0.004147,-0.003352,-0.004321,0.003253,-0.005395,0.002116
"2019-04-16 05:13:50.890 +0000",1555391630.889768,-2.760534,1.416500,-0.304880,-0.057156,-0.988120,0.142661,0.000000,0.000000,0.000000,-1,-0.000366,0.001584,-0.000643,0.003124,-0.006097,-0.000098
"2019-04-16 05:13:50.912 +0000",1555391630.912063,-2.761942,1.416604,-0.303433,-0.056917,-0.988136,0.142646,0.000000,0.000000,0.000000,-1,0.002123,0.001566,-0.005604,0.002092,-0.007866,0.002038
"2019-04-16 05:13:50.934 +0000",1555391630.934370,-2.762673,1.416718,-0.302666,-0.056771,-0.988153,0.142583,0.000000,0.000000,0.000000,-1,-0.002890,0.000339,-0.004355,-0.000984,-0.005301,0.000498
"2019-04-16 05:13:50.957 +0000",1555391630.956678,-2.762948,1.416823,-0.302437,-0.056693,-0.988169,0.142502,0.000000,0.000000,0.000000,-1,-0.010407,-0.002115,-0.001855,-0.001229,-0.004338,0.002929
"2019-04-16 05:13:50.979 +0000",1555391630.978955,-2.762913,1.416851,-0.302550,-0.056688,-0.988174,0.142474,0.000000,0.000000,0.000000,-1,-0.005376,-0.004559,0.001890,0.000597,-0.007203,0.004300
"2019-04-16 05:13:51.001 +0000",1555391631.001277,-2.763191,1.416821,-0.302270,-0.056660,-0.988169,0.142518,0.000000,0.000000,0.000000,-1,-0.004130,0.004065,0.003122,-0.000042,-0.006887,0.002791
"2019-04-16 05:13:51.024 +0000",1555391631.023562,-2.762493,1.416925,-0.302966,-0.056721,-0.988185,0.142383,0.000000,0.000000,0.000000,-1,-0.004143,0.000365,0.000674,-0.000561,-0.005437,0.000028
"2019-04-16 05:13:51.046 +0000",1555391631.045878,-2.762128,1.416961,-0.303330,-0.056760,-0.988191,0.142329,0.000000,0.000000,0.000000,-1,-0.001643,0.001587,-0.001817,-0.001849,-0.006866,0.001699
"2019-04-16 05:13:51.068 +0000",1555391631.068156,-2.761347,1.417044,-0.304113,-0.056840,-0.988203,0.142208,0.000000,0.000000,0.000000,-1,-0.001628,0.001602,0.001904,0.000841,-0.007173,-0.000042
"2019-04-16 05:13:51.090 +0000",1555391631.090465,-2.761097,1.417126,-0.304282,-0.056846,-0.988216,0.142119,0.000000,0.000000,0.000000,-1,-0.002906,0.005267,-0.004331,-0.001000,-0.005681,0.000550
"2019-04-16 05:13:51.113 +0000",1555391631.112772,-2.761252,1.417207,-0.303986,-0.056794,-0.988228,0.142054,0.000000,0.000000,0.000000,-1,-0.004133,0.007751,0.001848,0.000230,-0.004982,0.001287
"2019-04-16 05:13:51.135 +0000",1555391631.135050,-2.761152,1.417341,-0.303970,-0.056759,-0.988249,0.141925,0.000000,0.000000,0.000000,-1,-0.009153,0.002829,0.001890,0.000851,-0.006197,0.000348
"2019-04-16 05:13:51.157 +0000",1555391631.157357,-2.760859,1.417526,-0.304204,-0.056733,-0.988277,0.141739,0.000000,0.000000,0.000000,-1,-0.009174,0.001579,-0.003061,0.002076,-0.008366,0.002289
"2019-04-16 05:13:51.180 +0000",1555391631.179666,-2.761414,1.417737,-0.303578,-0.056577,-0.988309,0.141576,0.000000,0.000000,0.000000,-1,-0.010445,0.000357,-0.001747,0.000256,-0.005404,0.002482
"2019-04-16 05:13:51.202 +0000",1555391631.201973,-2.761901,1.417775,-0.303202,-0.056494,-0.988315,0.141569,0.000000,0.000000,0.000000,-1,-0.000398,-0.004545,0.002022,-0.000040,-0.005612,0.001757
"2019-04-16 05:13:51.224 +0000",1555391631.224251,-2.761829,1.417624,-0.303477,-0.056559,-0.988292,0.141704,0.000000,0.000000,0.000000,-1,0.005872,-0.007002,0.002047,-0.000615,-0.006627,0.002248
"2019-04-16 05:13:51.247 +0000",1555391631.246564,-2.762760,1.417710,-0.302665,-0.056396,-0.988305,0.141678,0.000000,0.000000,0.000000,-1,0.000842,-0.003328,-0.001710,0.001648,-0.004859,-0.000290
"2019-04-16 05:13:51.269 +0000",1555391631.268866,-2.763599,1.417793,-0.301758,-0.056247,-0.988318,0.141648,0.000000,0.000000,0.000000,-1,0.000830,0.001578,-0.005476,0.001605,-0.004282,-0.000306
"2019-04-16 05:13:51.291 +0000",1555391631.291144,-2.763959,1.418006,-0.301280,-0.056118,-0.988350,0.141473,0.000000,0.000000,0.000000,-1,0.005848,0.004040,-0.005496,-0.000919,-0.004951,-0.000115
"2019-04-16 05:13:51.313 +0000",1555391631.313453,-2.764449,1.418018,-0.300742,-0.056044,-0.988352,0.141489,0.000000,0.000000,0.000000,-1,-0.001665,0.000361,-0.001744,-0.003648,-0.006841,0.000692
"2019-04-16 05:13:51.336 +0000",1555391631.335760,-2.762701,1.418194,-0.302428,-0.056227,-0.988379,0.141229,0.000000,0.000000,0.000000,-1,-0.010440,0.001592,-0.000518,-0.002732,-0.007547,-0.000437
"2019-04-16 05:13:51.358 +0000",1555391631.358068,-2.762015,1.418303,-0.303042,-0.056284,-0.988395,0.141090,0.000000,0.000000,0.000000,-1,-0.006682,0.004066,0.003242,-0.000143,-0.006386,0.003532
"2019-04-16 05:13:51.380 +0000",1555391631.380382,-2.761613,1.418415,-0.303351,-0.056300,-0.988412,0.140965,0.000000,0.000000,0.000000,-1,-0.004178,0.005292,0.001991,0.000590,-0.007254,0.001232
"2019-04-16 05:13:51.403 +0000",1555391631.402652,-2.760427,1.418477,-0.304399,-0.056444,-0.988422,0.140842,0.000000,0.000000,0.000000,-1,0.000844,0.004069,0.003245,-0.001814,-0.007687,-0.000919
"2019-04-16 05:13:51.425 +0000",1555391631.424950,-2.760241,1.418478,-0.304495,-0.056470,-0.988422,0.140830,0.000000,0.000000,0.000000,-1,0.003342,0.004061,0.000765,-0.000949,-0.006176,0.001443
"2019-04-16 05:13:51.447 +0000",1555391631.447238,-2.760804,1.418398,-0.303869,-0.056420,-0.988410,0.140935,0.000000,0.000000,0.000000,-1,0.005830,0.002812,-0.004185,-0.000404,-0.007104,0.001811
"2019-04-16 05:13:51.470 +0000",1555391631.469561,-2.762617,1.418303,-0.301999,-0.056199,-0.988395,0.141125,0.000000,0.000000,0.000000,-1,0.004591,0.002826,-0.000465,0.003068,-0.006295,0.002247
"2019-04-16 05:13:51.492 +0000",1555391631.491853,-2.763937,1.418296,-0.300645,-0.056016,-0.988394,0.141205,0.000000,0.000000,0.000000,-1,0.003314,-0.000884,-0.005395,0.003907,-0.006082,0.000625
"2019-04-16 05:13:51.514 +0000",1555391631.514162,-2.765840,1.418232,-0.298788,-0.055770,-0.988385,0.141370,0.000000,0.000000,0.000000,-1,-0.000434,-0.002101,-0.001664,0.003005,-0.006534,0.001605
"2019-04-16 05:13:51.536 +0000",1555391631.536440,-2.766785,1.418279,-0.297844,-0.055620,-0.988392,0.141380,0.000000,0.000000,0.000000,-1,-0.004208,0.004046,-0.000431,0.002336,-0.009121,0.002053
"2019-04-16 05:13:51.559 +0000",1555391631.558748,-2.766803,1.418332,-0.297772,-0.055598,-0.988400,0.141332,0.000000,0.000000,0.000000,-1,-0.001703,-0.000873,-0.000386,-0.001028,-0.005634,0.001261
"2019-04-16 05:13:51.581 +0000",1555391631.581055,-2.766967,1.418339,-0.297604,-0.055572,-0.988401,0.141334,0.000000,0.000000,0.000000,-1,0.002065,-0.000867,0.000856,-0.001618,-0.005084,0.002632
"2019-04-16 05:13:51.603 +0000",1555391631.603364,-2.767098,1.418300,-0.297434,-0.055567,-0.988395,0.141377,0.000000,0.000000,0.000000,-1,0.007084,0.000366,0.000847,-0.000036,-0.008309,0.002269
"2019-04-16 05:13:51.626 +0000",1555391631.625635,-2.767174,1.418209,-0.297303,-0.055590,-0.988381,0.141466,0.000000,0.000000,0.000000,-1,0.003317,0.002820,-0.000417,-0.002058,-0.006248,0.000014
"2019-04-16 05:13:51.648 +0000",1555391631.647949,-2.767675,1.418092,-0.296765,-0.055561,-0.988363,0.141601,0.000000,0.000000,0.000000,-1,0.002071,0.000369,0.002085,0.000660,-0.005487,0.002213
"2019-04-16 05:13:51.670 +0000",1555391631.670257,-2.767073,1.418122,-0.297319,-0.055635,-0.988368,0.141539,0.000000,0.000000,0.000000,-1,-0.001669,0.004077,0.007013,-0.000334,-0.004491,0.001252
"2019-04-16 05:13:51.693 +0000",1555391631.692539,-2.767147,1.418196,-0.297175,-0.055598,-0.988379,0.141476,0.000000,0.000000,0.000000,-1,-0.002950,0.002822,0.000820,0.001552,-0.006006,0.000263
"2019-04-16 05:13:51.715 +0000",1555391631.714841,-2.766711,1.418284,-0.297580,-0.055628,-0.988392,0.141371,0.000000,0.000000,0.000000,-1,-0.000447,0.000368,0.004615,0.002329,-0.006206,-0.000807
"2019-04-16 05:13:51.737 +0000",1555391631.737150,-2.766992,1.418399,-0.297271,-0.055547,-0.988410,0.141281,0.000000,0.000000,0.000000,-1,-0.007978,0.000360,0.003370,0.002202,-0.006936,0.002289
"2019-04-16 05:13:51.759 +0000",1555391631.759458,-2.766585,1.418509,-0.297751,-0.055564,-0.988427,0.141157,0.000000,0.000000,0.000000,-1,-0.008000,-0.002119,-0.001570,0.001594,-0.007133,0.002779
"2019-04-16 05:13:51.782 +0000",1555391631.781736,-2.766791,1.418612,-0.297553,-0.055498,-0.988442,0.141073,0.000000,0.000000,0.000000,-1,-0.002986,0.000339,-0.002830,0.000032,-0.006522,0.000284
"2019-04-16 05:13:51.804 +0000",1555391631.804042,-2.766347,1.418510,-0.297997,-0.055598,-0.988427,0.141143,0.000000,0.000000,0.000000,-1,0.004550,0.000351,-0.000346,-0.002981,-0.003730,0.001603
"2019-04-16 05:13:51.826 +0000",1555391631.826337,-2.766611,1.418303,-0.297774,-0.055635,-0.988395,0.141348,0.000000,0.000000,0.000000,-1,0.004553,-0.003334,0.000928,-0.000166,-0.006600,0.005228
"2019-04-16 05:13:51.849 +0000",1555391631.848628,-2.767361,1.418109,-0.297049,-0.055599,-0.988366,0.141568,0.000000,0.000000,0.000000,-1,0.010827,0.000359,0.000897,0.001385,-0.006034,0.001575
"2019-04-16 05:13:51.871 +0000",1555391631.870936,-2.768934,1.417960,-0.295450,-0.055430,-0.988343,0.141792,0.000000,0.000000,0.000000,-1,0.007052,0.004033,-0.002859,0.001765,-0.004256,0.000740
"2019-04-16 05:13:51.893 +0000",1555391631.893245,-2.769161,1.417921,-0.295161,-0.055412,-0.988337,0.141841,0.000000,0.000000,0.000000,-1,0.004567,0.000339,-0.000388,-0.001549,-0.005300,0.000096
"2019-04-16 05:13:51.916 +0000",1555391631.915539,-2.768396,1.417676,-0.295870,-0.055609,-0.988300,0.142024,0.000000,0.000000,0.000000,-1,0.002063,-0.000888,0.000863,-0.003733,-0.008938,0.002843
"2019-04-16 05:13:51.938 +0000",1555391631.937829,-2.767767,1.417618,-0.296413,-0.055719,-0.988291,0.142043,0.000000,0.000000,0.000000,-1,-0.005444,0.005274,0.004526,-0.001883,-0.008459,0.003358
"2019-04-16 05:13:51.960 +0000",1555391631.960136,-2.767289,1.417576,-0.296811,-0.055802,-0.988285,0.142054,0.000000,0.000000,0.000000,-1,-0.000421,0.005281,0.005769,0.000733,-0.006588,0.002294
"2019-04-16 05:13:51.982 +0000",1555391631.982445,-2.766612,1.417578,-0.297328,-0.055897,-0.988285,0.142014,0.000000,0.000000,0.000000,-1,0.005831,0.006495,0.000799,0.001073,-0.008190,0.004638
"2019-04-16 05:13:52.005 +0000",1555391632.004723,-2.765973,1.417354,-0.297821,-0.056070,-0.988251,0.142185,0.000000,0.000000,0.000000,-1,0.004581,0.005269,0.002050,-0.001807,-0.006027,0.002835
"2019-04-16 05:13:52.027 +0000",1555391632.027031,-2.766331,1.417111,-0.297380,-0.056107,-0.988214,0.142428,0.000000,0.000000,0.000000,-1,0.007079,0.002800,-0.000408,-0.001633,-0.006263,0.003873
"2019-04-16 05:13:52.049 +0000",1555391632.049338,-2.766495,1.416954,-0.297125,-0.056140,-0.988190,0.142582,0.000000,0.000000,0.000000,-1,0.003322,0.004034,0.000820,-0.000928,-0.006226,0.002101
"2019-04-16 05:13:52.072 +0000",1555391632.071646,-2.767734,1.416801,-0.295870,-0.056019,-0.988166,0.142792,0.000000,0.000000,0.000000,-1,0.002101,0.002793,0.002029,0.002155,-0.005349,0.002502
"2019-04-16 05:13:52.094 +0000",1555391632.093925,-2.768693,1.416670,-0.294833,-0.055929,-0.988146,0.142966,0.000000,0.000000,0.000000,-1,0.007124,0.004030,0.003260,0.002630,-0.005781,0.003305
"2019-04-16 05:13:52.116 +0000",1555391632.116232,-2.769551,1.416549,-0.293916,-0.055850,-0.988127,0.143126,0.000000,0.000000,0.000000,-1,0.002097,0.004018,0.000777,0.001391,-0.005830,0.000536
"2019-04-16 05:13:52.139 +0000",1555391632.138534,-2.770535,1.416540,-0.292922,-0.055712,-0.988126,0.143189,0.000000,0.000000,0.000000,-1,-0.002921,0.002786,0.000785,0.000902,-0.007022,0.001281
"2019-04-16 05:13:52.161 +0000",1555391632.160817,-2.770785,1.416584,-0.292660,-0.055660,-0.988133,0.143162,0.000000,0.000000,0.000000,-1,-0.004173,-0.000900,0.002057,0.002361,-0.006298,0.002941
"2019-04-16 05:13:52.183 +0000",1555391632.183125,-2.770792,1.416532,-0.292616,-0.055678,-0.988125,0.143211,0.000000,0.000000,0.000000,-1,-0.004150,0.002810,0.006987,0.001830,-0.006428,0.001992
"2019-04-16 05:13:52.205 +0000",1555391632.205433,-2.769892,1.416522,-0.293437,-0.055811,-0.988123,0.143170,0.000000,0.000000,0.000000,-1,0.000858,0.004032,0.004497,0.000055,-0.007818,0.001194
"2019-04-16 05:13:52.228 +0000",1555391632.227740,-2.769535,1.416411,-0.293729,-0.055901,-0.988106,0.143251,0.000000,0.000000,0.000000,-1,-0.001657,0.001567,0.003277,-0.000327,-0.005592,0.002104
"2019-04-16 05:13:52.250 +0000",1555391632.250018,-2.767736,1.416366,-0.295524,-0.056175,-0.988099,0.143192,0.000000,0.000000,0.000000,-1,-0.005393,-0.002141,0.003271,-0.001869,-0.006682,0.000347
"2019-04-16 05:13:52.272 +0000",1555391632.272326,-2.766697,1.416531,-0.296547,-0.056264,-0.988125,0.142982,0.000000,0.000000,0.000000,-1,-0.010407,0.004007,0.003215,0.000097,-0.008000,-0.000053
"2019-04-16 05:13:52.295 +0000",1555391632.294628,-2.765976,1.416749,-0.297210,-0.056288,-0.988158,0.142741,0.000000,0.000000,0.000000,-1,-0.006629,0.004023,0.006937,0.002669,-0.006852,0.001149
"2019-04-16 05:13:52.317 +0000",1555391632.316912,-2.765439,1.416858,-0.297683,-0.056326,-0.988175,0.142611,0.000000,0.000000,0.000000,-1,-0.001631,0.005236,0.001966,0.001730,-0.005127,-0.000826
"2019-04-16 05:13:52.339 +0000",1555391632.339230,-2.765488,1.416904,-0.297521,-0.056302,-0.988182,0.142571,0.000000,0.000000,0.000000,-1,0.002123,0.006459,-0.000524,0.002942,-0.006142,-0.000878
"2019-04-16 05:13:52.362 +0000",1555391632.361516,-2.765550,1.416873,-0.297419,-0.056304,-0.988177,0.142604,0.000000,0.000000,0.000000,-1,0.002113,-0.000927,-0.001699,0.000533,-0.005689,0.002294
"2019-04-16 05:13:52.384 +0000",1555391632.383835,-2.765766,1.416876,-0.297192,-0.056272,-0.988178,0.142613,0.000000,0.000000,0.000000,-1,-0.000406,-0.002167,-0.004170,-0.000551,-0.005917,0.000225
"2019-04-16 05:13:52.406 +0000",1555391632.406112,-2.764685,1.416825,-0.298382,-0.056445,-0.988170,0.142599,0.000000,0.000000,0.000000,-1,-0.002882,-0.005825,0.004545,-0.002622,-0.005010,-0.001318
