timestamp,timeIntervalSince1970,attitude.roll,attitude.pitch,attitude.yaw,gravity.x,gravity.y,gravity.z,magneticField.x,magneticField.y,magneticField.z,magneticField.accuracy,rotationRate.x,rotationRate.y,rotationRate.z,userAcceleration.x,userAcceleration.y,userAcceleration.z
"2019-04-16 11:06:02.099 +0000",1555412762.099331,0.089439,0.668717,-0.031451,0.070082,-0.619980,-0.781481,0.000000,0.000000,0.000000,-1,0.033267,0.101530,-0.106401,0.060610,0.020371,0.051455
"2019-04-16 11:06:02.119 +0000",1555412762.119303,0.093742,0.666931,-0.033776,0.073548,-0.618577,-0.782274,0.000000,0.000000,0.000000,-1,-0.146704,0.174268,-0.079227,0.068023,0.022691,0.031771
"2019-04-16 11:06:02.139 +0000",1555412762.139263,0.095505,0.663213,-0.033130,0.075145,-0.615652,-0.784427,0.000000,0.000000,0.000000,-1,-0.196108,0.053739,0.061190,0.071385,0.012777,-0.001248
"2019-04-16 11:06:02.159 +0000",1555412762.159242,0.093503,0.658540,-0.028915,0.073842,-0.611963,-0.787432,0.000000,0.000000,0.000000,-1,-0.349832,0.000811,0.207107,0.089640,0.016962,0.152590
"2019-04-16 11:06:02.179 +0000",1555412762.179219,0.090955,0.644853,-0.019581,0.072590,-0.601081,-0.795885,0.000000,0.000000,0.000000,-1,-0.975984,0.305071,0.349989,0.041241,0.033194,0.179338
"2019-04-16 11:06:02.199 +0000",1555412762.199170,0.095861,0.618791,-0.008297,0.077967,-0.580051,-0.810840,0.000000,0.000000,0.000000,-1,-1.504325,0.719165,0.304724,-0.014506,0.058643,0.058292
"2019-04-16 11:06:02.219 +0000",1555412762.219169,0.106588,0.588921,0.000569,0.088465,-0.555464,-0.826821,0.000000,0.000000,0.000000,-1,-1.452402,0.772717,0.153780,0.044988,0.041335,-0.169532
"2019-04-16 11:06:02.239 +0000",1555412762.239124,0.112646,0.568445,0.006199,0.094730,-0.538322,-0.837398,0.000000,0.000000,0.000000,-1,-0.731504,0.166704,0.127423,0.092724,0.007606,-0.254750
"2019-04-16 11:06:02.259 +0000",1555412762.259115,0.103080,0.565341,0.009537,0.086887,-0.535704,-0.839924,0.000000,0.000000,0.000000,-1,0.111115,-0.658701,0.106952,0.092693,-0.037706,-0.092617
"2019-04-16 11:06:02.279 +0000",1555412762.279085,0.088654,0.570834,0.010365,0.074500,-0.540334,-0.838146,0.000000,0.000000,0.000000,-1,0.228031,-0.803548,0.143529,0.045358,0.029103,0.113659
"2019-04-16 11:06:02.299 +0000",1555412762.299058,0.073518,0.570340,0.014767,0.061826,-0.539918,-0.839444,0.000000,0.000000,0.000000,-1,-0.244822,-0.506583,0.201676,0.039340,0.033082,0.167660
"2019-04-16 11:06:02.319 +0000",1555412762.319032,0.065490,0.558875,0.019798,0.055486,-0.530233,-0.846034,0.000000,0.000000,0.000000,-1,-0.769594,-0.138291,0.132034,0.035273,0.000280,0.147258
"2019-04-16 11:06:02.339 +0000",1555412762.338975,0.064290,0.540690,0.021305,0.055081,-0.514728,-0.855583,0.000000,0.000000,0.000000,-1,-0.937806,0.012828,-0.083286,0.074466,-0.000379,0.097648
"2019-04-16 11:06:02.359 +0000",1555412762.358978,0.069339,0.524965,0.014675,0.059954,-0.501183,-0.863262,0.000000,0.000000,0.000000,-1,-0.621854,0.138202,-0.499598,0.091078,0.021568,0.123043
"2019-04-16 11:06:02.379 +0000",1555412762.378949,0.081306,0.516237,-0.000111,0.070633,-0.493611,-0.866810,0.000000,0.000000,0.000000,-1,-0.276248,0.310393,-0.731995,0.070694,-0.035061,0.120289
"2019-04-16 11:06:02.399 +0000",1555412762.398922,0.099248,0.510978,-0.015594,0.086429,-0.489030,-0.867974,0.000000,0.000000,0.000000,-1,-0.182330,0.671371,-0.648358,-0.002780,-0.044188,0.191583
"2019-04-16 11:06:02.419 +0000",1555412762.418895,0.124666,0.503376,-0.027407,0.108920,-0.482385,-0.869161,0.000000,0.000000,0.000000,-1,-0.465407,1.179834,-0.518916,-0.040347,-0.006903,0.189184
"2019-04-16 11:06:02.439 +0000",1555412762.438868,0.159417,0.486420,-0.036863,0.140330,-0.467464,-0.872803,0.000000,0.000000,0.000000,-1,-0.946325,1.721635,-0.557898,-0.073832,0.083538,0.190445
"2019-04-16 11:06:02.459 +0000",1555412762.458879,0.202040,0.461089,-0.046356,0.179712,-0.444924,-0.877352,0.000000,0.000000,0.000000,-1,-1.320390,1.944556,-0.704632,-0.069009,0.185342,-0.023527
"2019-04-16 11:06:02.479 +0000",1555412762.478801,0.242870,0.427065,-0.055034,0.218890,-0.414201,-0.883473,0.000000,0.000000,0.000000,-1,-1.698247,1.741898,-0.771000,-0.114062,0.173524,-0.132701
"2019-04-16 11:06:02.499 +0000",1555412762.498784,0.277339,0.382633,-0.056794,0.253997,-0.373364,-0.892236,0.000000,0.000000,0.000000,-1,-2.622680,1.826336,-0.590113,-0.193893,0.133054,-0.365241
"2019-04-16 11:06:02.519 +0000",1555412762.518756,0.316021,0.319475,-0.056102,0.295061,-0.314068,-0.902386,0.000000,0.000000,0.000000,-1,-3.019096,2.103183,-1.150540,-0.166475,0.150006,-0.191898
"2019-04-16 11:06:02.539 +0000",1555412762.538702,0.359785,0.258751,-0.070107,0.340352,-0.255873,-0.904815,0.000000,0.000000,0.000000,-1,-2.376040,1.730708,-1.921611,-0.192525,0.145582,-0.171724
"2019-04-16 11:06:02.559 +0000",1555412762.558703,0.366312,0.213882,-0.102104,0.350013,-0.212255,-0.912381,0.000000,0.000000,0.000000,-1,-0.825631,-1.285313,-2.262716,0.155129,0.126303,-0.236164
"2019-04-16 11:06:02.579 +0000",1555412762.578676,0.332417,0.205144,-0.142372,0.319486,-0.203708,-0.925436,0.000000,0.000000,0.000000,-1,0.768631,-2.214360,-1.778655,0.143847,0.155444,-0.177134
"2019-04-16 11:06:02.599 +0000",1555412762.598649,0.299173,0.214813,-0.176494,0.287956,-0.213164,-0.933618,0.000000,0.000000,0.000000,-1,0.965229,-1.862763,-1.352462,0.096154,-0.032838,-0.106803
"2019-04-16 11:06:02.619 +0000",1555412762.618622,0.274402,0.221023,-0.211808,0.264380,-0.219228,-0.939171,0.000000,0.000000,0.000000,-1,0.675788,-1.476838,-1.668312,0.093835,-0.058406,-0.020683
"2019-04-16 11:06:02.639 +0000",1555412762.638568,0.254256,0.222414,-0.245265,0.245330,-0.220585,-0.944010,0.000000,0.000000,0.000000,-1,0.411996,-1.390298,-1.390422,-0.043380,0.009586,0.188685
"2019-04-16 11:06:02.659 +0000",1555412762.658565,0.228886,0.223669,-0.265988,0.221241,-0.221808,-0.949660,0.000000,0.000000,0.000000,-1,0.172800,-1.499434,-0.782613,0.115139,0.084342,0.121733
"2019-04-16 11:06:02.679 +0000",1555412762.678540,0.209301,0.217474,-0.278924,0.202882,-0.215764,-0.955136,0.000000,0.000000,0.000000,-1,-0.304571,-0.862889,-0.597404,0.230025,0.040013,-0.019916
"2019-04-16 11:06:02.699 +0000",1555412762.698512,0.196936,0.211663,-0.285399,0.191299,-0.210086,-0.958785,0.000000,0.000000,0.000000,-1,-0.103944,-0.608287,-0.231657,0.272523,0.037952,-0.101991
"2019-04-16 11:06:02.718 +0000",1555412762.718480,0.186533,0.214099,-0.286985,0.181219,-0.212467,-0.960217,0.000000,0.000000,0.000000,-1,0.254235,-0.565006,0.036910,0.282602,0.040333,-0.100558
"2019-04-16 11:06:02.738 +0000",1555412762.738457,0.175824,0.220383,-0.285560,0.170688,-0.218603,-0.960770,0.000000,0.000000,0.000000,-1,0.288292,-0.475983,0.165487,0.075207,0.040503,0.016754
"2019-04-16 11:06:02.759 +0000",1555412762.758502,0.170473,0.224840,-0.280913,0.165379,-0.222950,-0.960699,0.000000,0.000000,0.000000,-1,0.096161,-0.010661,0.304743,-0.022419,0.005543,0.012610
"2019-04-16 11:06:02.778 +0000",1555412762.778385,0.180032,0.222845,-0.278800,0.174633,-0.221005,-0.959510,0.000000,0.000000,0.000000,-1,-0.283301,0.869045,-0.177877,-0.090878,0.017590,-0.024483
"2019-04-16 11:06:02.798 +0000",1555412762.798366,0.202292,0.213158,-0.282618,0.196368,-0.211548,-0.957438,0.000000,0.000000,0.000000,-1,-0.463156,1.080233,-0.280615,-0.053927,0.034393,-0.047094
"2019-04-16 11:06:02.818 +0000",1555412762.818338,0.216453,0.206489,-0.286459,0.210205,-0.205025,-0.955918,0.000000,0.000000,0.000000,-1,-0.135137,0.359281,-0.253366,0.004166,0.034584,0.004364
"2019-04-16 11:06:02.838 +0000",1555412762.838314,0.214039,0.207478,-0.291425,0.207853,-0.205993,-0.956224,0.000000,0.000000,0.000000,-1,0.203673,-0.436825,-0.184519,0.020007,0.105849,-0.007323
"2019-04-16 11:06:02.858 +0000",1555412762.858292,0.199253,0.212399,-0.293874,0.193489,-0.210805,-0.958187,0.000000,0.000000,0.000000,-1,0.279939,-0.958282,-0.017735,0.164695,0.024053,0.087536
"2019-04-16 11:06:02.878 +0000",1555412762.878259,0.174802,0.216223,-0.294304,0.169864,-0.214542,-0.961831,0.000000,0.000000,0.000000,-1,0.111814,-1.377268,0.028271,0.155057,0.000247,0.048897
"2019-04-16 11:06:02.898 +0000",1555412762.898238,0.144277,0.217070,-0.291719,0.140403,-0.215369,-0.966387,0.000000,0.000000,0.000000,-1,0.009946,-1.540200,0.222868,0.075737,-0.043893,0.005586
"2019-04-16 11:06:02.918 +0000",1555412762.918210,0.110033,0.218488,-0.285940,0.107201,-0.216753,-0.970323,0.000000,0.000000,0.000000,-1,0.021966,-1.711748,0.314580,-0.015556,-0.004240,-0.004348
"2019-04-16 11:06:02.938 +0000",1555412762.938167,0.075983,0.217387,-0.278177,0.074123,-0.215678,-0.973647,0.000000,0.000000,0.000000,-1,-0.144284,-1.479167,0.420215,-0.080303,0.081325,0.011458
"2019-04-16 11:06:02.958 +0000",1555412762.958154,0.054082,0.215827,-0.269915,0.052802,-0.214155,-0.975371,0.000000,0.000000,0.000000,-1,-0.059640,-0.756881,0.337442,-0.017340,0.088453,0.011123
"2019-04-16 11:06:02.978 +0000",1555412762.978128,0.041114,0.215888,-0.266139,0.040148,-0.214214,-0.975961,0.000000,0.000000,0.000000,-1,0.016912,-0.563725,0.070498,0.026960,0.092343,0.025735
"2019-04-16 11:06:02.998 +0000",1555412762.998088,0.033789,0.215804,-0.267849,0.032999,-0.214133,-0.976247,0.000000,0.000000,0.000000,-1,-0.040317,-0.203771,-0.114081,-0.053598,0.032752,-0.021266
"2019-04-16 11:06:03.018 +0000",1555412763.018075,0.039753,0.212593,-0.269285,0.038848,-0.210995,-0.976715,0.000000,0.000000,0.000000,-1,-0.209171,0.633027,-0.055069,-0.059447,0.029614,-0.020798
"2019-04-16 11:06:03.038 +0000",1555412763.038045,0.059098,0.208822,-0.271011,0.057780,-0.207307,-0.976568,0.000000,0.000000,0.000000,-1,-0.142150,1.019532,-0.138439,0.007070,0.081025,-0.054285
"2019-04-16 11:06:03.058 +0000",1555412763.058017,0.078492,0.206631,-0.274527,0.076743,-0.205164,-0.975714,0.000000,0.000000,0.000000,-1,-0.099107,0.797371,-0.192242,0.057412,0.013116,0.048422
"2019-04-16 11:06:03.078 +0000",1555412763.077990,0.088845,0.203726,-0.277876,0.086893,-0.202320,-0.975457,0.000000,0.000000,0.000000,-1,-0.148334,0.348943,-0.176786,0.056234,0.005710,0.063714
"2019-04-16 11:06:03.098 +0000",1555412763.097948,0.095247,0.199220,-0.280809,0.093222,-0.197905,-0.975778,0.000000,0.000000,0.000000,-1,-0.246424,0.276459,-0.150295,0.064966,0.035064,-0.008124
"2019-04-16 11:06:03.118 +0000",1555412763.117925,0.099592,0.194302,-0.282385,0.097557,-0.193082,-0.976321,0.000000,0.000000,0.000000,-1,-0.203423,0.117724,-0.069172,0.050972,0.042737,-0.011717
"2019-04-16 11:06:03.138 +0000",1555412763.137902,0.097539,0.192135,-0.283350,0.095593,-0.190955,-0.976933,0.000000,0.000000,0.000000,-1,-0.050027,-0.254492,-0.057677,0.046894,0.061240,0.016896
"2019-04-16 11:06:03.158 +0000",1555412763.157864,0.087816,0.191656,-0.284740,0.086097,-0.190485,-0.977907,0.000000,0.000000,0.000000,-1,-0.014891,-0.634870,-0.092122,0.035363,0.036402,0.015551
"2019-04-16 11:06:03.178 +0000",1555412763.177832,0.074353,0.190373,-0.287302,0.072943,-0.189225,-0.979221,0.000000,0.000000,0.000000,-1,-0.081619,-0.691717,-0.142139,0.029078,0.028977,0.008426
"2019-04-16 11:06:03.198 +0000",1555412763.197806,0.063549,0.188383,-0.289826,0.062383,-0.187271,-0.980325,0.000000,0.000000,0.000000,-1,-0.078567,-0.472695,-0.112692,0.015101,0.016403,0.000375
"2019-04-16 11:06:03.218 +0000",1555412763.217800,0.057333,0.187671,-0.291224,0.056295,-0.186571,-0.980827,0.000000,0.000000,0.000000,-1,-0.003134,-0.247861,-0.044835,-0.000982,0.032076,-0.021751
"2019-04-16 11:06:03.238 +0000",1555412763.237765,0.053843,0.188134,-0.291455,0.052867,-0.187026,-0.980931,0.000000,0.000000,0.000000,-1,0.031331,-0.149693,0.008245,0.020543,0.029159,-0.014262
"2019-04-16 11:06:03.258 +0000",1555412763.257746,0.052073,0.188322,-0.291003,0.051129,-0.187211,-0.980988,0.000000,0.000000,0.000000,-1,-0.014213,-0.033960,0.029244,0.029071,0.031266,-0.004623
"2019-04-16 11:06:03.278 +0000",1555412763.277719,0.057087,0.182611,-0.290767,0.056107,-0.181598,-0.981771,0.000000,0.000000,0.000000,-1,-0.076232,0.168852,0.046864,0.008758,0.026965,-0.004618
"2019-04-16 11:06:03.298 +0000",1555412763.297693,0.062850,0.180529,-0.289351,0.061788,-0.179550,-0.981806,0.000000,0.000000,0.000000,-1,-0.124433,0.388708,0.071954,0.006526,0.024506,-0.007634
"2019-04-16 11:06:03.318 +0000",1555412763.317663,0.072598,0.178124,-0.287477,0.071387,-0.177184,-0.981585,0.000000,0.000000,0.000000,-1,-0.123178,0.552410,0.088723,0.006571,0.040267,-0.018567
"2019-04-16 11:06:03.338 +0000",1555412763.337636,0.086818,0.171770,-0.286017,0.085433,-0.170927,-0.981573,0.000000,0.000000,0.000000,-1,-0.105130,0.569505,0.084456,0.035875,0.038999,-0.006800
"2019-04-16 11:06:03.358 +0000",1555412763.357608,0.097079,0.170157,-0.284464,0.095527,-0.169337,-0.980918,0.000000,0.000000,0.000000,-1,-0.073626,0.489818,0.060185,0.037896,0.038920,-0.004693
"2019-04-16 11:06:03.378 +0000",1555412763.377553,0.109454,0.164914,-0.284491,0.107754,-0.164168,-0.980529,0.000000,0.000000,0.000000,-1,-0.021282,0.302910,0.021199,0.031132,0.032438,-0.000077
"2019-04-16 11:06:03.398 +0000",1555412763.397533,0.112258,0.165206,-0.284454,0.110497,-0.164455,-0.980176,0.000000,0.000000,0.000000,-1,0.030365,0.035249,-0.005939,0.028968,0.025387,0.024610
"2019-04-16 11:06:03.418 +0000",1555412763.417526,0.113602,0.164120,-0.285536,0.111834,-0.163384,-0.980203,0.000000,0.000000,0.000000,-1,-0.000444,-0.195490,-0.031191,0.025647,0.016976,0.038523
"2019-04-16 11:06:03.437 +0000",1555412763.437485,0.108674,0.163485,-0.286208,0.107015,-0.162757,-0.980846,0.000000,0.000000,0.000000,-1,-0.038459,-0.278546,-0.038585,0.023128,0.007957,0.028606
"2019-04-16 11:06:03.457 +0000",1555412763.457472,0.104847,0.161699,-0.287319,0.103290,-0.160995,-0.981535,0.000000,0.000000,0.000000,-1,-0.017872,-0.341110,-0.039527,0.019971,0.008087,-0.013368
"2019-04-16 11:06:03.477 +0000",1555412763.477444,0.097814,0.161675,-0.288113,0.096384,-0.160971,-0.982241,0.000000,0.000000,0.000000,-1,0.013205,-0.363290,-0.038369,0.020574,0.011023,-0.011625
"2019-04-16 11:06:03.497 +0000",1555412763.497416,0.091033,0.162006,-0.288812,0.089716,-0.161298,-0.982819,0.000000,0.000000,0.000000,-1,0.014020,-0.320746,-0.029926,0.012594,0.020429,-0.012283
"2019-04-16 11:06:03.517 +0000",1555412763.517372,0.085973,0.159345,-0.288994,0.084780,-0.158671,-0.983685,0.000000,0.000000,0.000000,-1,-0.052107,-0.150928,-0.010116,-0.015566,0.010661,-0.023777
"2019-04-16 11:06:03.537 +0000",1555412763.537347,0.085857,0.158202,-0.288624,0.084681,-0.157543,-0.983875,0.000000,0.000000,0.000000,-1,-0.054492,0.078737,0.026746,-0.011759,0.028561,-0.021405
"2019-04-16 11:06:03.557 +0000",1555412763.557333,0.088964,0.157532,-0.287981,0.087747,-0.156881,-0.983712,0.000000,0.000000,0.000000,-1,-0.021911,0.189358,0.027709,-0.014825,0.027899,-0.021568
"2019-04-16 11:06:03.577 +0000",1555412763.577308,0.093264,0.155466,-0.287546,0.092006,-0.154841,-0.983646,0.000000,0.000000,0.000000,-1,0.013431,0.164012,0.026745,0.005101,0.023493,0.004596
"2019-04-16 11:06:03.597 +0000",1555412763.597280,0.095676,0.155687,-0.287077,0.094375,-0.155059,-0.983387,0.000000,0.000000,0.000000,-1,0.000971,0.098055,0.019376,0.021912,0.018630,0.027561
"2019-04-16 11:06:03.617 +0000",1555412763.617252,0.099006,0.154624,-0.287045,0.097665,-0.154009,-0.983231,0.000000,0.000000,0.000000,-1,-0.031901,0.053306,0.012988,0.020194,0.010058,0.018265
"2019-04-16 11:06:03.637 +0000",1555412763.637227,0.099744,0.154008,-0.286821,0.098400,-0.153400,-0.983253,0.000000,0.000000,0.000000,-1,-0.026367,0.023535,0.004538,0.022694,0.016117,0.002463
"2019-04-16 11:06:03.657 +0000",1555412763.657199,0.101715,0.152102,-0.287300,0.100367,-0.151516,-0.983346,0.000000,0.000000,0.000000,-1,0.018897,-0.041156,-0.015491,0.030721,0.032513,0.000268
"2019-04-16 11:06:03.677 +0000",1555412763.677144,0.099587,0.152934,-0.287956,0.098262,-0.152338,-0.983432,0.000000,0.000000,0.000000,-1,0.051659,-0.167552,-0.034373,0.035786,0.035776,0.009310
"2019-04-16 11:06:03.697 +0000",1555412763.697113,0.098012,0.152992,-0.289200,0.096712,-0.152396,-0.983576,0.000000,0.000000,0.000000,-1,-0.009062,-0.193288,-0.041909,-0.004259,-0.001474,-0.000997
"2019-04-16 11:06:03.717 +0000",1555412763.717115,0.095859,0.151531,-0.289707,0.094615,-0.150951,-0.984003,0.000000,0.000000,0.000000,-1,-0.099554,-0.053330,-0.026352,-0.016429,0.001263,-0.016089
"2019-04-16 11:06:03.737 +0000",1555412763.737067,0.096418,0.149708,-0.289916,0.095192,-0.149150,-0.984222,0.000000,0.000000,0.000000,-1,-0.068167,0.069037,-0.013714,-0.019707,0.010127,-0.024018
"2019-04-16 11:06:03.757 +0000",1555412763.757062,0.097774,0.148749,-0.289893,0.096541,-0.148201,-0.984234,0.000000,0.000000,0.000000,-1,-0.017382,0.165905,-0.010563,-0.014189,-0.001350,-0.012043
"2019-04-16 11:06:03.777 +0000",1555412763.777033,0.102643,0.148065,-0.290013,0.101342,-0.147524,-0.983853,0.000000,0.000000,0.000000,-1,-0.051185,0.304962,-0.006586,-0.009224,0.010439,-0.013507
"2019-04-16 11:06:03.797 +0000",1555412763.797006,0.109411,0.146696,-0.290012,0.108020,-0.146170,-0.983344,0.000000,0.000000,0.000000,-1,-0.083295,0.334509,-0.019452,-0.013888,-0.004114,-0.002053
"2019-04-16 11:06:03.817 +0000",1555412763.816981,0.116922,0.143952,-0.290291,0.115449,-0.143455,-0.982900,0.000000,0.000000,0.000000,-1,-0.130632,0.418177,-0.031367,0.018386,0.023796,-0.009013
"2019-04-16 11:06:03.837 +0000",1555412763.836930,0.125405,0.142032,-0.290557,0.123817,-0.141555,-0.982157,0.000000,0.000000,0.000000,-1,-0.064456,0.413199,-0.018469,0.019371,0.027831,-0.003226
"2019-04-16 11:06:03.857 +0000",1555412763.856925,0.134414,0.140625,-0.291019,0.132687,-0.140162,-0.981198,0.000000,0.000000,0.000000,-1,0.008407,0.356177,-0.013995,0.014271,0.018168,0.017269
"2019-04-16 11:06:03.877 +0000",1555412763.876897,0.140106,0.141051,-0.291155,0.138261,-0.140584,-0.980367,0.000000,0.000000,0.000000,-1,0.023840,0.233105,0.004293,0.001891,0.010091,0.025350
"2019-04-16 11:06:03.897 +0000",1555412763.896869,0.142912,0.139979,-0.290745,0.141032,-0.139523,-0.980124,0.000000,0.000000,0.000000,-1,-0.013004,0.085417,0.026762,-0.001796,0.019329,0.015433
"2019-04-16 11:06:03.917 +0000",1555412763.916842,0.142426,0.139674,-0.290136,0.140563,-0.139220,-0.980235,0.000000,0.000000,0.000000,-1,-0.019681,-0.081406,0.025934,0.000840,0.025130,0.016886
"2019-04-16 11:06:03.937 +0000",1555412763.936815,0.139428,0.139448,-0.289692,0.137628,-0.138997,-0.980683,0.000000,0.000000,0.000000,-1,-0.010641,-0.171729,0.015456,0.007163,0.021672,0.014374
"2019-04-16 11:06:03.957 +0000",1555412763.956788,0.136488,0.138110,-0.289594,0.134769,-0.137672,-0.981266,0.000000,0.000000,0.000000,-1,-0.006306,-0.176010,0.003769,0.012006,0.015266,0.005940
"2019-04-16 11:06:03.977 +0000",1555412763.976745,0.133340,0.138125,-0.289568,0.131679,-0.137686,-0.981684,0.000000,0.000000,0.000000,-1,0.005322,-0.146235,0.000558,0.014317,0.016013,0.001841
"2019-04-16 11:06:03.997 +0000",1555412763.996727,0.132985,0.136603,-0.289889,0.131358,-0.136178,-0.981937,0.000000,0.000000,0.000000,-1,0.011731,-0.106047,-0.000460,0.012120,-0.003241,-0.009014
"2019-04-16 11:06:04.017 +0000",1555412764.016705,0.131824,0.136670,-0.289984,0.130217,-0.136245,-0.982080,0.000000,0.000000,0.000000,-1,0.002988,-0.064644,-0.000540,0.009706,-0.000565,-0.008338
"2019-04-16 11:06:04.037 +0000",1555412764.036651,0.130829,0.136681,-0.289984,0.129239,-0.136256,-0.982208,0.000000,0.000000,0.000000,-1,0.003009,-0.073121,0.002661,0.002841,0.003519,-0.004517
"2019-04-16 11:06:04.057 +0000",1555412764.056651,0.129048,0.136879,-0.289988,0.127487,-0.136452,-0.982409,0.000000,0.000000,0.000000,-1,-0.002197,-0.094419,-0.002633,-0.004928,-0.005180,-0.009351
"2019-04-16 11:06:04.077 +0000",1555412764.076625,0.127205,0.136716,-0.290024,0.125679,-0.136291,-0.982665,0.000000,0.000000,0.000000,-1,-0.010919,-0.051989,-0.006965,-0.007042,-0.002686,-0.015276
"2019-04-16 11:06:04.097 +0000",1555412764.096566,0.126899,0.136732,-0.290174,0.125377,-0.136307,-0.982701,0.000000,0.000000,0.000000,-1,0.012333,0.000159,-0.006997,-0.006740,-0.002670,-0.015239
"2019-04-16 11:06:04.117 +0000",1555412764.116570,0.126033,0.136380,-0.290222,0.124532,-0.135957,-0.982857,0.000000,0.000000,0.000000,-1,0.030485,-0.005075,-0.003763,-0.007940,0.011201,0.000511
"2019-04-16 11:06:04.137 +0000",1555412764.136542,0.125074,0.135816,-0.290191,0.123600,-0.135399,-0.983051,0.000000,0.000000,0.000000,-1,0.000582,-0.014743,0.000444,-0.011753,0.012596,0.017506
"2019-04-16 11:06:04.157 +0000",1555412764.156515,0.123720,0.134471,-0.289997,0.122291,-0.134066,-0.983398,0.000000,0.000000,0.000000,-1,-0.022940,-0.013790,0.000396,-0.013969,0.016055,0.012435
"2019-04-16 11:06:04.176 +0000",1555412764.176488,0.123058,0.132934,-0.289842,0.121665,-0.132542,-0.983682,0.000000,0.000000,0.000000,-1,-0.005944,-0.002027,0.003600,-0.005149,0.018437,0.006585
"2019-04-16 11:06:04.196 +0000",1555412764.196450,0.123364,0.132366,-0.289988,0.121975,-0.131980,-0.983719,0.000000,0.000000,0.000000,-1,0.032552,-0.002976,-0.004830,0.005985,0.013496,0.016770
"2019-04-16 11:06:04.216 +0000",1555412764.216432,0.123883,0.132846,-0.290303,0.122477,-0.132455,-0.983593,0.000000,0.000000,0.000000,-1,0.028352,-0.014686,-0.008012,0.009084,0.002725,0.023907
"2019-04-16 11:06:04.236 +0000",1555412764.236406,0.124807,0.133461,-0.290601,0.123376,-0.133065,-0.983398,0.000000,0.000000,0.000000,-1,-0.015480,-0.006339,-0.007050,0.015189,-0.011817,0.009887
"2019-04-16 11:06:04.256 +0000",1555412764.256380,0.125571,0.133304,-0.290695,0.124130,-0.132910,-0.983324,0.000000,0.000000,0.000000,-1,-0.022979,-0.013730,0.003576,0.011032,-0.003672,-0.022169
"2019-04-16 11:06:04.276 +0000",1555412764.276335,0.125128,0.133355,-0.290497,0.123694,-0.132960,-0.983372,0.000000,0.000000,0.000000,-1,0.021934,-0.040037,0.016462,0.008081,-0.000676,-0.021831
"2019-04-16 11:06:04.296 +0000",1555412764.296310,0.124152,0.133942,-0.290098,0.122724,-0.133542,-0.983415,0.000000,0.000000,0.000000,-1,0.036991,-0.078145,0.029306,0.000231,-0.000003,0.013032
"2019-04-16 11:06:04.316 +0000",1555412764.316295,0.122579,0.134535,-0.289609,0.121168,-0.134130,-0.983528,0.000000,0.000000,0.000000,-1,0.000702,-0.077255,0.023916,0.002749,-0.004512,0.015144
"2019-04-16 11:06:04.336 +0000",1555412764.336264,0.121581,0.134264,-0.289256,0.120190,-0.133861,-0.983685,0.000000,0.000000,0.000000,-1,-0.035661,-0.049852,0.009982,0.007389,-0.005269,0.001980
"2019-04-16 11:06:04.356 +0000",1555412764.356244,0.121127,0.134017,-0.288883,0.119748,-0.133616,-0.983772,0.000000,0.000000,0.000000,-1,-0.003011,0.031090,0.023748,-0.036633,0.002864,0.030998
"2019-04-16 11:06:04.376 +0000",1555412764.376215,0.122720,0.134650,-0.288642,0.121304,-0.134244,-0.983496,0.000000,0.000000,0.000000,-1,0.011430,0.174391,-0.004075,-0.042065,-0.004108,0.017096
"2019-04-16 11:06:04.396 +0000",1555412764.396187,0.124935,0.133845,-0.288815,0.123496,-0.133445,-0.983332,0.000000,0.000000,0.000000,-1,-0.091631,0.077219,-0.019019,0.025704,0.003196,-0.030798
"2019-04-16 11:06:04.416 +0000",1555412764.416160,0.123747,0.131623,-0.288749,0.122364,-0.131243,-0.983769,0.000000,0.000000,0.000000,-1,-0.098149,-0.136288,-0.009145,0.032223,0.031069,-0.048350
"2019-04-16 11:06:04.436 +0000",1555412764.436127,0.121183,0.130670,-0.288730,0.119856,-0.130298,-0.984204,0.000000,0.000000,0.000000,-1,0.023498,-0.128278,0.004905,0.023363,0.015033,-0.004810
"2019-04-16 11:06:04.456 +0000",1555412764.456105,0.120373,0.132053,-0.288628,0.119037,-0.131670,-0.984121,0.000000,0.000000,0.000000,-1,0.077287,-0.008968,0.025034,0.021115,0.011064,0.001928
"2019-04-16 11:06:04.476 +0000",1555412764.476078,0.119464,0.133216,-0.287965,0.118124,-0.132822,-0.984076,0.000000,0.000000,0.000000,-1,0.034708,-0.073794,0.051625,0.027246,0.020990,0.017599
"2019-04-16 11:06:04.496 +0000",1555412764.496031,0.118210,0.133102,-0.287185,0.116892,-0.132709,-0.984238,0.000000,0.000000,0.000000,-1,0.018889,-0.104713,0.039940,0.010351,0.018772,0.050415
"2019-04-16 11:06:04.516 +0000",1555412764.516021,0.116394,0.133032,-0.286524,0.115105,-0.132640,-0.984458,0.000000,0.000000,0.000000,-1,-0.027184,-0.059287,0.027022,-0.007592,-0.002263,0.072471
"2019-04-16 11:06:04.536 +0000",1555412764.535995,0.115987,0.132505,-0.286058,0.114713,-0.132117,-0.984574,0.000000,0.000000,0.000000,-1,-0.061690,0.036065,0.006614,-0.021787,-0.008843,0.052323
"2019-04-16 11:06:04.556 +0000",1555412764.555967,0.116316,0.131301,-0.285954,0.115055,-0.130924,-0.984693,0.000000,0.000000,0.000000,-1,-0.058213,-0.006480,-0.005011,-0.053806,-0.014416,-0.024187
"2019-04-16 11:06:04.576 +0000",1555412764.575939,0.113241,0.131046,-0.286036,0.112030,-0.130671,-0.985076,0.000000,0.000000,0.000000,-1,0.020327,-0.089224,-0.032366,-0.057801,-0.006520,-0.025315
"2019-04-16 11:06:04.596 +0000",1555412764.595893,0.110566,0.132471,-0.287340,0.109374,-0.132084,-0.985186,0.000000,0.000000,0.000000,-1,0.103286,-0.192142,-0.068193,-0.032012,0.011967,-0.034773
"2019-04-16 11:06:04.616 +0000",1555412764.615885,0.104854,0.134344,-0.289206,0.103719,-0.133940,-0.985547,0.000000,0.000000,0.000000,-1,0.119022,-0.333484,-0.087087,-0.003225,0.005705,-0.034625
"2019-04-16 11:06:04.636 +0000",1555412764.635853,0.097610,0.136650,-0.291076,0.096546,-0.136225,-0.985962,0.000000,0.000000,0.000000,-1,0.126606,-0.375860,-0.071061,0.024273,0.020761,-0.033981
"2019-04-16 11:06:04.656 +0000",1555412764.655830,0.093330,0.139357,-0.292429,0.092291,-0.138906,-0.985996,0.000000,0.000000,0.000000,-1,0.114870,-0.203558,-0.030945,0.038812,-0.029673,0.001087
"2019-04-16 11:06:04.676 +0000",1555412764.675803,0.092060,0.140739,-0.292540,0.091021,-0.140275,-0.985920,0.000000,0.000000,0.000000,-1,0.035451,0.029087,0.023833,0.037291,-0.037597,0.012287
"2019-04-16 11:06:04.696 +0000",1555412764.695776,0.095197,0.140722,-0.291248,0.094114,-0.140258,-0.985632,0.000000,0.000000,0.000000,-1,-0.026809,0.239526,0.085057,0.014864,-0.025987,0.026205
"2019-04-16 11:06:04.716 +0000",1555412764.715750,0.100259,0.140000,-0.288865,0.099112,-0.139543,-0.985243,0.000000,0.000000,0.000000,-1,-0.078575,0.296882,0.122080,-0.023825,0.012727,0.026976
"2019-04-16 11:06:04.736 +0000",1555412764.735708,0.105102,0.138211,-0.286408,0.103908,-0.137772,-0.984998,0.000000,0.000000,0.000000,-1,-0.107978,0.221202,0.097682,-0.026745,0.034455,0.013136
"2019-04-16 11:06:04.756 +0000",1555412764.755695,0.107391,0.136292,-0.284988,0.106191,-0.135871,-0.985019,0.000000,0.000000,0.000000,-1,-0.096135,0.056237,0.035226,-0.017034,0.029838,0.000278
"2019-04-16 11:06:04.776 +0000",1555412764.775667,0.105968,0.133912,-0.284938,0.104823,-0.133513,-0.985488,0.000000,0.000000,0.000000,-1,-0.048040,-0.096919,-0.029303,-0.000010,0.021727,-0.020509
"2019-04-16 11:06:04.796 +0000",1555412764.795614,0.103544,0.133394,-0.285936,0.102441,-0.132999,-0.985808,0.000000,0.000000,0.000000,-1,0.026216,-0.185969,-0.051351,0.020072,0.010913,-0.002962
"2019-04-16 11:06:04.816 +0000",1555412764.815614,0.100517,0.134363,-0.286930,0.099444,-0.133959,-0.985985,0.000000,0.000000,0.000000,-1,0.066463,-0.133665,-0.035401,0.018171,-0.002623,0.005440
"2019-04-16 11:06:04.836 +0000",1555412764.835585,0.099258,0.135608,-0.287302,0.098185,-0.135192,-0.985943,0.000000,0.000000,0.000000,-1,0.057152,-0.019824,0.001620,0.017415,-0.016724,0.023266
"2019-04-16 11:06:04.856 +0000",1555412764.855560,0.100723,0.137052,-0.287115,0.099610,-0.136623,-0.985602,0.000000,0.000000,0.000000,-1,0.016026,0.069382,0.022668,0.010284,-0.010517,0.026847
"2019-04-16 11:06:04.876 +0000",1555412764.875531,0.102099,0.136661,-0.286633,0.100971,-0.136236,-0.985517,0.000000,0.000000,0.000000,-1,-0.044816,0.063809,0.019365,0.007305,-0.013209,0.021025
"2019-04-16 11:06:04.895 +0000",1555412764.895474,0.102891,0.135571,-0.286089,0.101767,-0.135156,-0.985584,0.000000,0.000000,0.000000,-1,-0.088389,0.014788,0.022541,0.012231,0.007135,-0.029934
"2019-04-16 11:06:04.915 +0000",1555412764.915477,0.101936,0.134395,-0.285367,0.100842,-0.133991,-0.985838,0.000000,0.000000,0.000000,-1,-0.035649,-0.079504,0.031293,0.010547,0.017597,-0.030687
"2019-04-16 11:06:04.935 +0000",1555412764.935429,0.099842,0.133990,-0.284706,0.098783,-0.133590,-0.986101,0.000000,0.000000,0.000000,-1,0.047847,-0.125883,0.035778,0.007403,0.018416,-0.004789
"2019-04-16 11:06:04.955 +0000",1555412764.955410,0.097879,0.135461,-0.284344,0.096828,-0.135048,-0.986097,0.000000,0.000000,0.000000,-1,0.075456,-0.068506,0.017674,-0.005763,0.017631,0.015973
"2019-04-16 11:06:04.975 +0000",1555412764.975395,0.097281,0.136805,-0.284362,0.096220,-0.136379,-0.985973,0.000000,0.000000,0.000000,-1,0.059280,-0.007084,-0.005839,0.000323,0.021465,0.020076
"2019-04-16 11:06:04.995 +0000",1555412764.995354,0.097773,0.137459,-0.284826,0.096696,-0.137026,-0.985837,0.000000,0.000000,0.000000,-1,0.037866,0.018260,-0.018679,0.008483,0.000323,0.005246
"2019-04-16 11:06:05.015 +0000",1555412765.015271,0.098224,0.137876,-0.285052,0.097136,-0.137440,-0.985736,0.000000,0.000000,0.000000,-1,0.012216,0.026626,-0.001678,0.009005,-0.015331,0.002765
"2019-04-16 11:06:05.035 +0000",1555412765.035236,0.099052,0.138354,-0.284851,0.097945,-0.137913,-0.985590,0.000000,0.000000,0.000000,-1,-0.006019,0.016061,0.020627,0.010545,-0.010006,0.013498
"2019-04-16 11:06:05.055 +0000",1555412765.055230,0.099168,0.138478,-0.284310,0.098058,-0.138036,-0.985561,0.000000,0.000000,0.000000,-1,-0.015600,0.006478,0.023813,-0.004720,0.000615,0.005031
"2019-04-16 11:06:05.075 +0000",1555412765.075204,0.098197,0.138285,-0.284033,0.097103,-0.137845,-0.985682,0.000000,0.000000,0.000000,-1,0.011506,-0.053025,0.003757,-0.015911,-0.004062,-0.016576
"2019-04-16 11:06:05.095 +0000",1555412765.095170,0.095311,0.139025,-0.283983,0.094249,-0.138578,-0.985857,0.000000,0.000000,0.000000,-1,0.020297,-0.087080,-0.008929,-0.018199,-0.007739,-0.009413
"2019-04-16 11:06:05.115 +0000",1555412765.115148,0.092775,0.139698,-0.284172,0.091739,-0.139244,-0.986000,0.000000,0.000000,0.000000,-1,0.020378,-0.101967,-0.009968,-0.013812,-0.008217,-0.010140
"2019-04-16 11:06:05.135 +0000",1555412765.135120,0.090553,0.140552,-0.284141,0.089538,-0.140089,-0.986082,0.000000,0.000000,0.000000,-1,0.005135,-0.055227,0.002693,-0.009368,-0.012056,-0.010591
"2019-04-16 11:06:05.155 +0000",1555412765.155094,0.089746,0.141238,-0.283934,0.088733,-0.140768,-0.986058,0.000000,0.000000,0.000000,-1,0.011220,0.001154,0.013254,0.001172,-0.002420,-0.006435
"2019-04-16 11:06:05.175 +0000",1555412765.175065,0.090185,0.141654,-0.283555,0.089161,-0.141181,-0.985961,0.000000,0.000000,0.000000,-1,0.022799,0.022514,0.024940,0.003430,-0.000589,-0.000703
"2019-04-16 11:06:05.195 +0000",1555412765.195014,0.091049,0.141946,-0.283115,0.090009,-0.141470,-0.985842,0.000000,0.000000,0.000000,-1,0.011064,0.015058,0.028116,0.005755,0.003515,0.018099
"2019-04-16 11:06:05.215 +0000",1555412765.215012,0.091251,0.141794,-0.282631,0.090210,-0.141319,-0.985845,0.000000,0.000000,0.000000,-1,-0.025141,-0.001053,0.021688,0.006653,0.002555,0.016805
"2019-04-16 11:06:05.235 +0000",1555412765.234955,0.091460,0.140785,-0.282246,0.090429,-0.140320,-0.985968,0.000000,0.000000,0.000000,-1,-0.057169,0.004094,0.014173,0.011301,0.008698,0.004340
"2019-04-16 11:06:05.255 +0000",1555412765.254938,0.092415,0.138960,-0.282061,0.091394,-0.138514,-0.986134,0.000000,0.000000,0.000000,-1,-0.057264,0.034851,0.003493,0.010611,0.009470,0.001973
"2019-04-16 11:06:05.275 +0000",1555412765.274929,0.093515,0.137669,-0.282011,0.092495,-0.137235,-0.986211,0.000000,0.000000,0.000000,-1,-0.042323,0.043384,-0.001807,0.007129,0.012250,0.003453
"2019-04-16 11:06:05.295 +0000",1555412765.294901,0.094640,0.136624,-0.281950,0.093618,-0.136199,-0.986248,0.000000,0.000000,0.000000,-1,-0.035992,0.051941,0.003508,0.004557,0.008621,0.003170
"2019-04-16 11:06:05.315 +0000",1555412765.314874,0.096249,0.135769,-0.281748,0.095216,-0.135352,-0.986212,0.000000,0.000000,0.000000,-1,-0.029744,0.074328,0.011991,0.010085,0.001167,-0.007578
"2019-04-16 11:06:05.335 +0000",1555412765.334819,0.097560,0.135360,-0.281420,0.096515,-0.134947,-0.986141,0.000000,0.000000,0.000000,-1,-0.012513,0.038310,0.017394,0.008725,0.001189,-0.005421
"2019-04-16 11:06:05.355 +0000",1555412765.354820,0.097846,0.135179,-0.281135,0.096799,-0.134768,-0.986138,0.000000,0.000000,0.000000,-1,-0.005815,-0.015869,0.012172,0.008990,-0.001982,0.006585
"2019-04-16 11:06:05.375 +0000",1555412765.374793,0.097502,0.135046,-0.281092,0.096462,-0.134636,-0.986189,0.000000,0.000000,0.000000,-1,-0.023737,-0.047881,-0.001637,0.008458,-0.003960,0.005857
"2019-04-16 11:06:05.395 +0000",1555412765.394757,0.096620,0.134443,-0.281320,0.095599,-0.134038,-0.986354,0.000000,0.000000,0.000000,-1,-0.034235,-0.065009,-0.018644,0.004437,0.001515,-0.004780
"2019-04-16 11:06:05.415 +0000",1555412765.414738,0.095238,0.133579,-0.281733,0.094247,-0.133183,-0.986600,0.000000,0.000000,0.000000,-1,-0.026680,-0.072457,-0.026060,0.001135,0.005985,-0.006732
"2019-04-16 11:06:05.435 +0000",1555412765.434711,0.093543,0.133076,-0.282254,0.092581,-0.132683,-0.986825,0.000000,0.000000,0.000000,-1,0.011785,-0.068097,-0.032368,-0.008474,0.007149,-0.005393
"2019-04-16 11:06:05.455 +0000",1555412765.454683,0.091634,0.133179,-0.282948,0.090695,-0.132786,-0.986986,0.000000,0.000000,0.000000,-1,0.021493,-0.080852,-0.038708,-0.006345,0.002918,0.001452
"2019-04-16 11:06:05.475 +0000",1555412765.474633,0.089434,0.133161,-0.283671,0.088524,-0.132767,-0.987186,0.000000,0.000000,0.000000,-1,-0.018908,-0.124556,-0.035533,-0.005623,-0.004821,-0.003582
"2019-04-16 11:06:05.495 +0000",1555412765.494619,0.085383,0.132177,-0.284109,0.084536,-0.131792,-0.987666,0.000000,0.000000,0.000000,-1,-0.053846,-0.200095,-0.028047,-0.011171,0.004732,-0.021794
"2019-04-16 11:06:05.515 +0000",1555412765.514601,0.079960,0.130208,-0.284577,0.079199,-0.129840,-0.988367,0.000000,0.000000,0.000000,-1,-0.070403,-0.300094,-0.039625,-0.010733,0.023547,-0.034170
"2019-04-16 11:06:05.535 +0000",1555412765.534544,0.074251,0.129421,-0.285211,0.073562,-0.129060,-0.988905,0.000000,0.000000,0.000000,-1,-0.006620,-0.244560,-0.032138,-0.004577,-0.009810,0.009138
"2019-04-16 11:06:05.555 +0000",1555412765.554543,0.071292,0.130755,-0.285762,0.070624,-0.130382,-0.988945,0.000000,0.000000,0.000000,-1,0.039683,-0.109390,-0.020552,0.005014,-0.013386,0.032280
"2019-04-16 11:06:05.575 +0000",1555412765.574567,0.070604,0.131794,-0.286238,0.069934,-0.131413,-0.988858,0.000000,0.000000,0.000000,-1,0.021128,-0.028701,-0.017520,0.011258,-0.013927,0.025860
"2019-04-16 11:06:05.594 +0000",1555412765.594470,0.070113,0.131895,-0.286464,0.069447,-0.131513,-0.988879,0.000000,0.000000,0.000000,-1,-0.008862,-0.023458,-0.008019,-0.006169,0.002195,0.004626
"2019-04-16 11:06:05.614 +0000",1555412765.614457,0.068736,0.131025,-0.286556,0.068093,-0.130651,-0.989087,0.000000,0.000000,0.000000,-1,0.000930,-0.062742,-0.009004,-0.009286,0.019155,-0.003741
"2019-04-16 11:06:05.634 +0000",1555412765.634436,0.066615,0.130646,-0.286830,0.065999,-0.130275,-0.989279,0.000000,0.000000,0.000000,-1,0.021559,-0.123269,-0.018441,-0.000401,0.012263,-0.002115
"2019-04-16 11:06:05.654 +0000",1555412765.654397,0.063869,0.130761,-0.287444,0.063280,-0.130389,-0.989441,0.000000,0.000000,0.000000,-1,0.030335,-0.153067,-0.034327,0.003980,0.016909,0.001725
"2019-04-16 11:06:05.674 +0000",1555412765.674372,0.061349,0.130770,-0.288342,0.060787,-0.130397,-0.989597,0.000000,0.000000,0.000000,-1,0.037685,-0.116970,-0.043936,0.002262,0.012249,0.007312
"2019-04-16 11:06:05.694 +0000",1555412765.694335,0.060015,0.131602,-0.289395,0.059460,-0.131222,-0.989568,0.000000,0.000000,0.000000,-1,0.050442,-0.104159,-0.043931,0.014011,-0.002735,0.005269
"2019-04-16 11:06:05.714 +0000",1555412765.714316,0.058153,0.132674,-0.290248,0.057609,-0.132285,-0.989536,0.000000,0.000000,0.000000,-1,0.049434,-0.129593,-0.033264,0.017006,-0.003290,0.008045
"2019-04-16 11:06:05.734 +0000",1555412765.734277,0.055954,0.134006,-0.290831,0.055423,-0.133605,-0.989484,0.000000,0.000000,0.000000,-1,0.044045,-0.139072,-0.016251,0.009579,-0.008363,0.010053
"2019-04-16 11:06:05.754 +0000",1555412765.754274,0.053382,0.135500,-0.291038,0.052867,-0.135085,-0.989423,0.000000,0.000000,0.000000,-1,0.055525,-0.092234,-0.006728,-0.004558,-0.003861,-0.002200
"2019-04-16 11:06:05.774 +0000",1555412765.774223,0.051569,0.136512,-0.291094,0.051066,-0.136088,-0.989380,0.000000,0.000000,0.000000,-1,0.033005,-0.088011,0.004916,-0.003306,-0.007756,-0.011826
"2019-04-16 11:06:05.794 +0000",1555412765.794195,0.049426,0.137393,-0.290945,0.048940,-0.136961,-0.989367,0.000000,0.000000,0.000000,-1,0.028508,-0.045524,0.009098,-0.009359,-0.005586,0.001986
"2019-04-16 11:06:05.814 +0000",1555412765.814192,0.049503,0.137572,-0.290582,0.049015,-0.137138,-0.989338,0.000000,0.000000,0.000000,-1,-0.015804,0.049965,0.019499,-0.011585,-0.007042,0.000020
"2019-04-16 11:06:05.834 +0000",1555412765.834152,0.050531,0.137371,-0.289981,0.050033,-0.136939,-0.989315,0.000000,0.000000,0.000000,-1,-0.020323,0.089302,0.030065,-0.013641,-0.005441,-0.016300
"2019-04-16 11:06:05.854 +0000",1555412765.854108,0.051334,0.137552,-0.289187,0.050827,-0.137119,-0.989250,0.000000,0.000000,0.000000,-1,0.004313,0.068174,0.036527,-0.016571,-0.006329,0.002265
"2019-04-16 11:06:05.874 +0000",1555412765.874108,0.051604,0.137832,-0.288471,0.051091,-0.137396,-0.989198,0.000000,0.000000,0.000000,-1,0.003527,0.016079,0.031288,-0.015096,-0.005396,0.003281
"2019-04-16 11:06:05.894 +0000",1555412765.894084,0.050880,0.137949,-0.287990,0.050375,-0.137512,-0.989218,0.000000,0.000000,0.000000,-1,-0.006793,-0.039299,0.015404,-0.006246,-0.006989,0.004599
"2019-04-16 11:06:05.914 +0000",1555412765.914036,0.049130,0.138033,-0.287883,0.048643,-0.137595,-0.989293,0.000000,0.000000,0.000000,-1,0.001106,-0.103119,-0.003621,-0.002668,0.000785,0.003240
"2019-04-16 11:06:05.934 +0000",1555412765.934030,0.046717,0.138315,-0.288165,0.046254,-0.137874,-0.989369,0.000000,0.000000,0.000000,-1,0.025890,-0.129662,-0.018416,-0.000248,0.001659,0.003499
"2019-04-16 11:06:05.954 +0000",1555412765.953972,0.044254,0.138976,-0.288673,0.043813,-0.138529,-0.989389,0.000000,0.000000,0.000000,-1,0.036540,-0.113725,-0.025860,0.000712,0.002283,0.005823
"2019-04-16 11:06:05.974 +0000",1555412765.973966,0.043018,0.139262,-0.289311,0.042589,-0.138813,-0.989402,0.000000,0.000000,0.000000,-1,0.022388,-0.056421,-0.028102,0.008391,0.008197,0.007469
"2019-04-16 11:06:05.994 +0000",1555412765.993918,0.043771,0.138844,-0.289959,0.043336,-0.138399,-0.989428,0.000000,0.000000,0.000000,-1,0.009206,0.010503,-0.022916,0.017668,0.010423,0.005496
"2019-04-16 11:06:06.014 +0000",1555412766.013918,0.045217,0.138711,-0.290491,0.044767,-0.138267,-0.989383,0.000000,0.000000,0.000000,-1,0.003718,0.057166,-0.021901,0.022143,0.010078,0.005969
"2019-04-16 11:06:06.034 +0000",1555412766.033891,0.047597,0.138430,-0.290962,0.047124,-0.137988,-0.989312,0.000000,0.000000,0.000000,-1,0.006795,0.072112,-0.013414,0.021221,0.008182,0.002999
"2019-04-16 11:06:06.054 +0000",1555412766.053864,0.049685,0.138302,-0.291189,0.049191,-0.137862,-0.989229,0.000000,0.000000,0.000000,-1,0.015338,0.054175,0.000449,0.014988,0.007918,0.006044
"2019-04-16 11:06:06.074 +0000",1555412766.073835,0.050911,0.138749,-0.291075,0.050400,-0.138304,-0.989107,0.000000,0.000000,0.000000,-1,0.020659,0.042586,0.013234,0.002930,-0.002550,0.007646
"2019-04-16 11:06:06.094 +0000",1555412766.093781,0.051114,0.139771,-0.290699,0.050593,-0.139316,-0.988955,0.000000,0.000000,0.000000,-1,0.027199,0.007591,0.020743,-0.007182,-0.008572,0.002840
"2019-04-16 11:06:06.114 +0000",1555412766.113782,0.050017,0.140624,-0.290282,0.049503,-0.140161,-0.988890,0.000000,0.000000,0.000000,-1,0.032934,-0.073135,0.019813,-0.011234,-0.010214,0.002517
"2019-04-16 11:06:06.134 +0000",1555412766.133729,0.047410,0.141452,-0.289888,0.046919,-0.140981,-0.988900,0.000000,0.000000,0.000000,-1,0.022520,-0.127367,0.018811,-0.018065,-0.015025,-0.002036
"2019-04-16 11:06:06.154 +0000",1555412766.153716,0.043452,0.142224,-0.289399,0.042999,-0.141745,-0.988969,0.000000,0.000000,0.000000,-1,0.004459,-0.142347,0.015610,-0.015335,-0.010171,-0.001021
"2019-04-16 11:06:06.174 +0000",1555412766.173701,0.039899,0.142254,-0.289055,0.039486,-0.141774,-0.989111,0.000000,0.000000,0.000000,-1,-0.003941,-0.170019,0.013509,-0.015972,-0.004878,-0.006845
"2019-04-16 11:06:06.194 +0000",1555412766.193661,0.036074,0.142430,-0.288772,0.035701,-0.141949,-0.989230,0.000000,0.000000,0.000000,-1,-0.011570,-0.126552,0.004926,-0.017848,-0.007999,-0.014997
"2019-04-16 11:06:06.214 +0000",1555412766.213629,0.033414,0.142290,-0.288670,0.033070,-0.141810,-0.989341,0.000000,0.000000,0.000000,-1,0.002042,-0.054339,-0.006847,-0.026189,0.001628,-0.013176
"2019-04-16 11:06:06.234 +0000",1555412766.233619,0.032937,0.142455,-0.288803,0.032597,-0.141973,-0.989334,0.000000,0.000000,0.000000,-1,0.015595,0.016881,-0.007989,-0.016942,0.003149,0.000228
"2019-04-16 11:06:06.254 +0000",1555412766.253592,0.033079,0.142780,-0.288943,0.032737,-0.142296,-0.989283,0.000000,0.000000,0.000000,-1,0.015574,0.021126,-0.007995,-0.005469,0.000648,0.011072
"2019-04-16 11:06:06.274 +0000",1555412766.273565,0.033772,0.143029,-0.289071,0.033420,-0.142541,-0.989224,0.000000,0.000000,0.000000,-1,0.000523,0.034907,-0.002730,0.001965,-0.000693,0.008847
"2019-04-16 11:06:06.294 +0000",1555412766.293533,0.035028,0.142810,-0.289077,0.034665,-0.142325,-0.989213,0.000000,0.000000,0.000000,-1,-0.009202,0.048726,0.004671,0.009937,0.005270,0.011262
"2019-04-16 11:06:06.314 +0000",1555412766.313510,0.036649,0.142666,-0.288977,0.036269,-0.142182,-0.989176,0.000000,0.000000,0.000000,-1,-0.000704,0.047754,0.013194,0.015398,0.002519,0.008097
"2019-04-16 11:06:06.333 +0000",1555412766.333484,0.037843,0.142656,-0.288705,0.037450,-0.142172,-0.989133,0.000000,0.000000,0.000000,-1,0.004663,0.034007,0.019603,0.016688,0.003897,0.006269
"2019-04-16 11:06:06.353 +0000",1555412766.353457,0.038960,0.142440,-0.288428,0.038556,-0.141958,-0.989121,0.000000,0.000000,0.000000,-1,-0.005965,0.023344,0.018533,0.012363,0.006537,0.010758
"2019-04-16 11:06:06.373 +0000",1555412766.373427,0.039857,0.142082,-0.288055,0.039445,-0.141604,-0.989137,0.000000,0.000000,0.000000,-1,-0.023181,0.046663,0.020589,0.003463,-0.000821,0.008668
"2019-04-16 11:06:06.393 +0000",1555412766.393394,0.041058,0.141725,-0.287600,0.040635,-0.141251,-0.989139,0.000000,0.000000,0.000000,-1,-0.024391,0.074291,0.022672,-0.001343,-0.002899,-0.004040
"2019-04-16 11:06:06.413 +0000",1555412766.413374,0.042608,0.141509,-0.287085,0.042169,-0.141037,-0.989106,0.000000,0.000000,0.000000,-1,-0.003078,0.079711,0.026959,-0.002878,-0.003113,-0.004074
"2019-04-16 11:06:06.433 +0000",1555412766.433334,0.043511,0.142031,-0.286541,0.043060,-0.141554,-0.988994,0.000000,0.000000,0.000000,-1,0.014210,0.039408,0.027055,-0.005096,-0.012620,0.001765
"2019-04-16 11:06:06.453 +0000",1555412766.453299,0.043630,0.142887,-0.285909,0.043172,-0.142401,-0.988867,0.000000,0.000000,0.000000,-1,-0.004897,0.009613,0.032378,-0.004369,-0.017404,-0.001260
"2019-04-16 11:06:06.473 +0000",1555412766.473291,0.043199,0.142919,-0.285142,0.042746,-0.142433,-0.988881,0.000000,0.000000,0.000000,-1,-0.024026,-0.018052,0.038760,-0.006933,-0.014397,-0.013087
"2019-04-16 11:06:06.493 +0000",1555412766.493263,0.042012,0.142687,-0.284199,0.041573,-0.142204,-0.988964,0.000000,0.000000,0.000000,-1,-0.018615,-0.041368,0.046249,-0.008782,-0.004739,-0.013920
"2019-04-16 11:06:06.513 +0000",1555412766.513235,0.040630,0.142502,-0.283094,0.040207,-0.142020,-0.989047,0.000000,0.000000,0.000000,-1,0.002680,-0.038054,0.054793,-0.006744,0.003394,0.004138
"2019-04-16 11:06:06.533 +0000",1555412766.533211,0.039716,0.142466,-0.282009,0.039303,-0.141985,-0.989088,0.000000,0.000000,0.000000,-1,-0.000491,-0.040216,0.050537,-0.002957,0.006670,0.004042
"2019-04-16 11:06:06.553 +0000",1555412766.553157,0.039103,0.142236,-0.281095,0.038698,-0.141757,-0.989145,0.000000,0.000000,0.000000,-1,-0.019818,-0.007414,0.040881,-0.001161,-0.000043,0.009195
"2019-04-16 11:06:06.573 +0000",1555412766.573149,0.039043,0.141660,-0.280361,0.038642,-0.141187,-0.989228,0.000000,0.000000,0.000000,-1,-0.020917,0.010587,0.031284,-0.003166,0.004712,0.007570
"2019-04-16 11:06:06.593 +0000",1555412766.593114,0.039030,0.141209,-0.279688,0.038632,-0.140740,-0.989293,0.000000,0.000000,0.000000,-1,-0.002763,0.009601,0.032385,-0.003293,0.008630,0.013066
"2019-04-16 11:06:06.613 +0000",1555412766.613082,0.038652,0.140902,-0.279113,0.038259,-0.140436,-0.989350,0.000000,0.000000,0.000000,-1,0.001690,-0.020171,0.024996,-0.002645,0.009882,0.015412
"2019-04-16 11:06:06.633 +0000",1555412766.633072,0.037545,0.140593,-0.278688,0.037166,-0.140130,-0.989435,0.000000,0.000000,0.000000,-1,-0.009791,-0.068064,0.017603,-0.002254,0.011697,0.015070
"2019-04-16 11:06:06.653 +0000",1555412766.653046,0.035832,0.139896,-0.278318,0.035475,-0.139440,-0.989595,0.000000,0.000000,0.000000,-1,-0.027915,-0.072407,0.014384,-0.002867,0.004094,-0.006377
"2019-04-16 11:06:06.673 +0000",1555412766.672995,0.034622,0.139188,-0.277999,0.034280,-0.138739,-0.989736,0.000000,0.000000,0.000000,-1,-0.030221,-0.038416,0.015392,-0.003350,0.002249,-0.006877
"2019-04-16 11:06:06.693 +0000",1555412766.692961,0.034399,0.139128,-0.277639,0.034060,-0.138680,-0.989751,0.000000,0.000000,0.000000,-1,-0.005906,0.011629,0.018555,0.004209,-0.012001,-0.008250
"2019-04-16 11:06:06.713 +0000",1555412766.712964,0.035178,0.139501,-0.277217,0.034829,-0.139049,-0.989673,0.000000,0.000000,0.000000,-1,0.005657,0.042528,0.025974,0.008933,-0.012624,-0.003018
"2019-04-16 11:06:06.733 +0000",1555412766.732920,0.036606,0.140100,-0.276677,0.036239,-0.139642,-0.989539,0.000000,0.000000,0.000000,-1,-0.022242,0.065817,0.030136,0.004883,-0.017936,0.002783
"2019-04-16 11:06:06.753 +0000",1555412766.752882,0.037975,0.139526,-0.276077,0.037596,-0.139074,-0.989568,0.000000,0.000000,0.000000,-1,-0.051056,0.064623,0.026890,-0.001113,-0.004420,-0.007456
"2019-04-16 11:06:06.773 +0000",1555412766.772883,0.038924,0.138328,-0.275512,0.038543,-0.137887,-0.989698,0.000000,0.000000,0.000000,-1,-0.038168,0.051913,0.024809,-0.001693,0.003655,-0.017016
"2019-04-16 11:06:06.793 +0000",1555412766.792835,0.039475,0.137743,-0.274971,0.039091,-0.137308,-0.989757,0.000000,0.000000,0.000000,-1,-0.009193,0.019112,0.028105,-0.000654,0.006739,-0.016072
"2019-04-16 11:06:06.813 +0000",1555412766.812806,0.039514,0.137700,-0.274412,0.039130,-0.137265,-0.989761,0.000000,0.000000,0.000000,-1,0.013329,0.001136,0.027114,0.000390,0.000393,0.002334
"2019-04-16 11:06:06.833 +0000",1555412766.832801,0.039298,0.137982,-0.273878,0.038914,-0.137545,-0.989731,0.000000,0.000000,0.000000,-1,0.009093,-0.005262,0.026052,-0.003972,0.001574,0.017853
"2019-04-16 11:06:06.853 +0000",1555412766.852749,0.038997,0.138109,-0.273389,0.038616,-0.137670,-0.989725,0.000000,0.000000,0.000000,-1,-0.021859,-0.004350,0.021737,-0.005245,-0.004862,0.020502
"2019-04-16 11:06:06.873 +0000",1555412766.872748,0.038794,0.137515,-0.272908,0.038418,-0.137082,-0.989814,0.000000,0.000000,0.000000,-1,-0.049591,-0.015071,0.023824,0.003528,-0.001346,0.008461
"2019-04-16 11:06:06.893 +0000",1555412766.892698,0.038208,0.136333,-0.272427,0.037844,-0.135911,-0.989998,0.000000,0.000000,0.000000,-1,-0.045136,-0.055413,0.024955,0.007185,0.006212,0.000801
"2019-04-16 11:06:06.913 +0000",1555412766.912694,0.037317,0.135312,-0.271920,0.036967,-0.134900,-0.990169,0.000000,0.000000,0.000000,-1,-0.039905,-0.027794,0.020672,0.002416,0.008130,-0.004795
"2019-04-16 11:06:06.933 +0000",1555412766.932658,0.037230,0.134306,-0.271717,0.036886,-0.133903,-0.990308,0.000000,0.000000,0.000000,-1,-0.045282,0.001832,0.002543,0.001750,0.008461,-0.011722
"2019-04-16 11:06:06.953 +0000",1555412766.952638,0.037448,0.132355,-0.271609,0.037111,-0.131969,-0.990559,0.000000,0.000000,0.000000,-1,-0.071068,0.024067,0.007773,-0.008715,0.013591,-0.007396
"2019-04-16 11:06:06.973 +0000",1555412766.972604,0.038387,0.130735,-0.271733,0.038050,-0.130363,-0.990736,0.000000,0.000000,0.000000,-1,-0.057303,0.088744,-0.024190,-0.013789,0.012229,-0.002245
"2019-04-16 11:06:06.993 +0000",1555412766.992582,0.040801,0.129669,-0.272299,0.040447,-0.129306,-0.990779,0.000000,0.000000,0.000000,-1,-0.017027,0.167454,-0.034858,-0.030269,0.017413,0.008144
"2019-04-16 11:06:07.013 +0000",1555412767.012555,0.043883,0.129336,-0.273063,0.043503,-0.128976,-0.990693,0.000000,0.000000,0.000000,-1,0.034108,0.213241,-0.049707,-0.013702,0.006448,0.018846
"2019-04-16 11:06:07.033 +0000",1555412767.032512,0.048370,0.130266,-0.274376,0.047941,-0.129898,-0.990368,0.000000,0.000000,0.000000,-1,0.045949,0.218493,-0.068827,-0.006270,-0.001358,0.013454
"2019-04-16 11:06:07.052 +0000",1555412767.052494,0.052036,0.131254,-0.275903,0.051565,-0.130877,-0.990057,0.000000,0.000000,0.000000,-1,0.026116,0.148195,-0.078305,0.007578,-0.004804,-0.009730
"2019-04-16 11:06:07.072 +0000",1555412767.072473,0.054849,0.131200,-0.277678,0.054350,-0.130824,-0.989915,0.000000,0.000000,0.000000,-1,-0.018410,0.091652,-0.090005,0.016237,-0.004247,-0.018630
"2019-04-16 11:06:07.092 +0000",1555412767.092441,0.057352,0.130682,-0.279374,0.056832,-0.130310,-0.989843,0.000000,0.000000,0.000000,-1,-0.009018,0.113053,-0.069819,0.009300,0.007965,-0.021204
"2019-04-16 11:06:07.112 +0000",1555412767.112391,0.061494,0.131696,-0.280211,0.060923,-0.131316,-0.989467,0.000000,0.000000,0.000000,-1,0.095722,0.265652,-0.021996,-0.015574,0.010420,-0.005986
"2019-04-16 11:06:07.132 +0000",1555412767.132391,0.068045,0.134363,-0.280425,0.067380,-0.133959,-0.988694,0.000000,0.000000,0.000000,-1,0.156995,0.380749,0.000282,-0.020596,0.007372,0.007401
"2019-04-16 11:06:07.152 +0000",1555412767.152349,0.075865,0.137329,-0.280893,0.075079,-0.136898,-0.987736,0.000000,0.000000,0.000000,-1,0.140087,0.374166,-0.025258,-0.009176,0.005444,0.034672
"2019-04-16 11:06:07.172 +0000",1555412767.172323,0.082378,0.139487,-0.282088,0.081486,-0.139035,-0.986929,0.000000,0.000000,0.000000,-1,0.088422,0.280261,-0.063494,-0.004307,0.003125,0.043310
"2019-04-16 11:06:07.192 +0000",1555412767.192310,0.087057,0.140588,-0.283585,0.086090,-0.140125,-0.986384,0.000000,0.000000,0.000000,-1,0.047233,0.186586,-0.067689,0.014893,-0.014370,0.020671
"2019-04-16 11:06:07.212 +0000",1555412767.212268,0.089467,0.140915,-0.284790,0.088462,-0.140450,-0.986128,0.000000,0.000000,0.000000,-1,0.006020,0.068606,-0.048459,0.016549,-0.020760,0.006758
"2019-04-16 11:06:07.232 +0000",1555412767.232255,0.090382,0.141223,-0.285532,0.089361,-0.140754,-0.986004,0.000000,0.000000,0.000000,-1,-0.017229,-0.012090,-0.024996,0.026713,-0.024438,-0.003376
"2019-04-16 11:06:07.252 +0000",1555412767.252228,0.089860,0.140942,-0.285705,0.088849,-0.140475,-0.986090,0.000000,0.000000,0.000000,-1,-0.010874,-0.029995,-0.001567,0.032672,-0.021069,-0.011591
"2019-04-16 11:06:07.272 +0000",1555412767.272199,0.089436,0.140764,-0.285393,0.088433,-0.140300,-0.986152,0.000000,0.000000,0.000000,-1,-0.011136,-0.008602,0.024979,0.031470,-0.023274,-0.018716
"2019-04-16 11:06:07.292 +0000",1555412767.292173,0.090229,0.140930,-0.284534,0.089213,-0.140464,-0.986058,0.000000,0.000000,0.000000,-1,-0.028526,0.012774,0.058933,0.027349,-0.014855,-0.026195
"2019-04-16 11:06:07.312 +0000",1555412767.312147,0.090759,0.140404,-0.283088,0.089743,-0.139943,-0.986084,0.000000,0.000000,0.000000,-1,-0.036292,0.053200,0.074804,0.010187,-0.006831,-0.016189
"2019-04-16 11:06:07.332 +0000",1555412767.332095,0.091875,0.139974,-0.281339,0.090848,-0.139517,-0.986043,0.000000,0.000000,0.000000,-1,-0.038705,0.101040,0.083233,-0.008481,-0.006204,0.000600
"2019-04-16 11:06:07.352 +0000",1555412767.352078,0.094260,0.139305,-0.279753,0.093208,-0.138855,-0.985917,0.000000,0.000000,0.000000,-1,-0.037760,0.135004,0.076806,-0.006691,-0.023071,0.004899
"2019-04-16 11:06:07.372 +0000",1555412767.372066,0.095392,0.139479,-0.278044,0.094322,-0.139027,-0.985786,0.000000,0.000000,0.000000,-1,-0.020321,0.061771,0.078014,-0.017830,-0.012660,0.018272
"2019-04-16 11:06:07.392 +0000",1555412767.392038,0.094350,0.139406,-0.276445,0.093296,-0.138955,-0.985894,0.000000,0.000000,0.000000,-1,-0.031458,-0.054131,0.068598,-0.021381,-0.006477,0.021112
"2019-04-16 11:06:07.412 +0000",1555412767.412011,0.091954,0.138598,-0.275124,0.090943,-0.138155,-0.986226,0.000000,0.000000,0.000000,-1,-0.054467,-0.141407,0.055925,-0.020097,0.017962,0.024114
"2019-04-16 11:06:07.432 +0000",1555412767.431983,0.087953,0.136838,-0.274035,0.087019,-0.136411,-0.986823,0.000000,0.000000,0.000000,-1,-0.064827,-0.189353,0.038965,-0.010542,0.021070,0.016654
"2019-04-16 11:06:07.452 +0000",1555412767.451954,0.084339,0.135574,-0.273244,0.083466,-0.135159,-0.987302,0.000000,0.000000,0.000000,-1,-0.066996,-0.162875,0.031483,0.003784,0.018429,0.008619
"2019-04-16 11:06:07.472 +0000",1555412767.471928,0.082060,0.133770,-0.272348,0.081236,-0.133371,-0.987731,0.000000,0.000000,0.000000,-1,-0.099592,-0.069424,0.048288,0.002993,0.006174,-0.006379
"2019-04-16 11:06:07.492 +0000",1555412767.491893,0.082414,0.131180,-0.270834,0.081614,-0.130804,-0.988043,0.000000,0.000000,0.000000,-1,-0.149684,0.096257,0.075582,0.011648,0.013799,-0.018503
"2019-04-16 11:06:07.512 +0000",1555412767.511872,0.087461,0.127797,-0.269105,0.086637,-0.127450,-0.988054,0.000000,0.000000,0.000000,-1,-0.124152,0.349168,0.068875,0.012331,0.015618,-0.017882
"2019-04-16 11:06:07.532 +0000",1555412767.531845,0.097717,0.126890,-0.267676,0.096777,-0.126549,-0.987228,0.000000,0.000000,0.000000,-1,-0.001416,0.605644,0.061296,0.030923,0.011223,-0.009018
"2019-04-16 11:06:07.552 +0000",1555412767.551819,0.108931,0.127935,-0.266547,0.107827,-0.127587,-0.985949,0.000000,0.000000,0.000000,-1,0.057784,0.510274,0.062620,0.035483,-0.019371,0.011141
"2019-04-16 11:06:07.572 +0000",1555412767.571792,0.116696,0.129453,-0.265622,0.115457,-0.129092,-0.984888,0.000000,0.000000,0.000000,-1,0.014285,0.242320,0.049111,0.027411,-0.019956,0.021708
"2019-04-16 11:06:07.592 +0000",1555412767.591764,0.118070,0.129000,-0.264908,0.116817,-0.128642,-0.984787,0.000000,0.000000,0.000000,-1,-0.045089,-0.028957,0.022761,0.012089,-0.018086,0.022445
"2019-04-16 11:06:07.612 +0000",1555412767.611737,0.114870,0.127740,-0.264553,0.113684,-0.127393,-0.985316,0.000000,0.000000,0.000000,-1,-0.073991,-0.219328,0.005977,0.002878,-0.009479,-0.008321
"2019-04-16 11:06:07.632 +0000",1555412767.631707,0.108973,0.126710,-0.264355,0.107885,-0.126371,-0.986099,0.000000,0.000000,0.000000,-1,-0.053168,-0.325498,0.002988,0.002405,-0.005953,-0.014298
"2019-04-16 11:06:07.652 +0000",1555412767.651660,0.102672,0.126128,-0.264156,0.101677,-0.125794,-0.986832,0.000000,0.000000,0.000000,-1,-0.019198,-0.290264,0.010445,-0.011834,-0.008194,-0.010513
"2019-04-16 11:06:07.672 +0000",1555412767.671656,0.097428,0.126121,-0.263675,0.096502,-0.125787,-0.987353,0.000000,0.000000,0.000000,-1,-0.005926,-0.179651,0.025192,-0.019368,-0.001853,-0.005338
"2019-04-16 11:06:07.692 +0000",1555412767.691627,0.095134,0.125817,-0.262951,0.094239,-0.125485,-0.987609,0.000000,0.000000,0.000000,-1,-0.030030,-0.069191,0.037736,-0.019624,0.003247,0.002761
"2019-04-16 11:06:07.712 +0000",1555412767.711596,0.094328,0.124604,-0.262057,0.093458,-0.124282,-0.987836,0.000000,0.000000,0.000000,-1,-0.062568,0.039010,0.033258,-0.013944,0.013365,0.008481
"2019-04-16 11:06:07.732 +0000",1555412767.731574,0.096183,0.123557,-0.261452,0.095303,-0.123242,-0.987790,0.000000,0.000000,0.000000,-1,-0.040449,0.120828,0.020422,-0.007443,0.028012,0.017956
"2019-04-16 11:06:07.752 +0000",1555412767.751548,0.098677,0.122600,-0.261303,0.097778,-0.122293,-0.987666,0.000000,0.000000,0.000000,-1,0.024872,0.114585,-0.002828,0.006455,0.026743,0.026255
"2019-04-16 11:06:07.772 +0000",1555412767.771522,0.100135,0.123601,-0.261883,0.099205,-0.123286,-0.987400,0.000000,0.000000,0.000000,-1,0.062817,0.039127,-0.035597,0.022102,0.013713,0.033680
"2019-04-16 11:06:07.791 +0000",1555412767.791476,0.101288,0.124392,-0.263158,0.100333,-0.124072,-0.987188,0.000000,0.000000,0.000000,-1,0.045143,-0.031190,-0.061045,0.030068,0.004031,0.027776
"2019-04-16 11:06:07.811 +0000",1555412767.811464,0.100310,0.124723,-0.264593,0.099364,-0.124400,-0.987244,0.000000,0.000000,0.000000,-1,0.013306,-0.063241,-0.070629,0.035325,-0.003606,0.021348
"2019-04-16 11:06:07.831 +0000",1555412767.831439,0.100214,0.125146,-0.266068,0.099264,-0.124820,-0.987201,0.000000,0.000000,0.000000,-1,0.014363,-0.074847,-0.058916,0.032877,-0.010510,-0.012570
"2019-04-16 11:06:07.851 +0000",1555412767.851411,0.098780,0.125491,-0.267004,0.097844,-0.125162,-0.987300,0.000000,0.000000,0.000000,-1,0.024933,-0.082107,-0.034431,0.013103,-0.021842,-0.021489
"2019-04-16 11:06:07.871 +0000",1555412767.871383,0.096689,0.125859,-0.267371,0.095775,-0.125527,-0.987456,0.000000,0.000000,0.000000,-1,0.014296,-0.127672,-0.005679,0.006108,-0.017845,-0.019746
"2019-04-16 11:06:07.891 +0000",1555412767.891358,0.093587,0.126400,-0.267167,0.092705,-0.126064,-0.987681,0.000000,0.000000,0.000000,-1,0.000352,-0.145654,0.018773,-0.010261,-0.010106,-0.020711
"2019-04-16 11:06:07.911 +0000",1555412767.911330,0.091030,0.126441,-0.266459,0.090179,-0.126105,-0.987910,0.000000,0.000000,0.000000,-1,0.000001,-0.104082,0.044226,-0.021652,0.001959,-0.023092
"2019-04-16 11:06:07.931 +0000",1555412767.931293,0.089107,0.126693,-0.265292,0.088276,-0.126354,-0.988050,0.000000,0.000000,0.000000,-1,0.025158,-0.022105,0.059039,-0.016986,0.002605,-0.009906
"2019-04-16 11:06:07.951 +0000",1555412767.951275,0.089401,0.127711,-0.264089,0.088554,-0.127364,-0.987895,0.000000,0.000000,0.000000,-1,0.059003,0.040744,0.065391,-0.011665,-0.002885,0.019725
"2019-04-16 11:06:07.971 +0000",1555412767.971248,0.090079,0.129984,-0.263030,0.089199,-0.129619,-0.987544,0.000000,0.000000,0.000000,-1,0.097499,0.049324,0.052698,-0.007518,-0.007146,0.042185
"2019-04-16 11:06:07.991 +0000",1555412767.991198,0.090671,0.131829,-0.262514,0.089761,-0.131448,-0.987251,0.000000,0.000000,0.000000,-1,0.079727,0.006588,0.021895,0.007041,-0.005256,0.059761
"2019-04-16 11:06:08.011 +0000",1555412768.011193,0.089983,0.133134,-0.262536,0.089066,-0.132741,-0.987141,0.000000,0.000000,0.000000,-1,0.015286,-0.112782,-0.002509,0.012847,-0.007091,0.038471
"2019-04-16 11:06:08.031 +0000",1555412768.031167,0.086633,0.132624,-0.262896,0.085764,-0.132235,-0.987501,0.000000,0.000000,0.000000,-1,-0.042924,-0.191782,-0.030149,0.015920,-0.003385,-0.000811
"2019-04-16 11:06:08.051 +0000",1555412768.051138,0.083063,0.130968,-0.263769,0.082257,-0.130594,-0.988018,0.000000,0.000000,0.000000,-1,-0.037301,-0.207921,-0.047203,0.017047,0.014475,-0.032811
"2019-04-16 11:06:08.071 +0000",1555412768.071112,0.079327,0.130857,-0.264621,0.078567,-0.130483,-0.988333,0.000000,0.000000,0.000000,-1,0.021240,-0.175764,-0.037566,0.006867,0.021597,-0.033274
"2019-04-16 11:06:08.091 +0000",1555412768.091061,0.076363,0.131075,-0.264996,0.075634,-0.130700,-0.988533,0.000000,0.000000,0.000000,-1,0.070743,-0.067048,-0.007860,-0.027401,0.017907,-0.001366
"2019-04-16 11:06:08.111 +0000",1555412768.111056,0.077317,0.133163,-0.265017,0.076556,-0.132770,-0.988186,0.000000,0.000000,0.000000,-1,0.120977,0.119206,0.017477,-0.025394,0.017489,0.001537
"2019-04-16 11:06:08.131 +0000",1555412768.131032,0.081182,0.135722,-0.264678,0.080347,-0.135306,-0.987541,0.000000,0.000000,0.000000,-1,0.125743,0.226581,0.027958,-0.018671,-0.005899,0.009132
"2019-04-16 11:06:08.151 +0000",1555412768.150995,0.085519,0.138688,-0.264094,0.084595,-0.138244,-0.986779,0.000000,0.000000,0.000000,-1,0.105091,0.299804,0.029935,-0.033615,-0.007874,0.048379
"2019-04-16 11:06:08.171 +0000",1555412768.170974,0.091469,0.140026,-0.264173,0.090448,-0.139569,-0.986073,0.000000,0.000000,0.000000,-1,0.033901,0.265324,-0.006303,-0.019418,-0.014850,0.015431
"2019-04-16 11:06:08.191 +0000",1555412768.190945,0.093576,0.139957,-0.264076,0.092525,-0.139501,-0.985890,0.000000,0.000000,0.000000,-1,-0.009783,0.003869,0.004632,0.030277,-0.027461,-0.026973
"2019-04-16 11:06:08.211 +0000",1555412768.210921,0.092309,0.140788,-0.264461,0.091266,-0.140324,-0.985890,0.000000,0.000000,0.000000,-1,0.034074,-0.210633,-0.011971,0.045300,-0.005367,-0.040111
"2019-04-16 11:06:08.231 +0000",1555412768.230866,0.087521,0.141732,-0.264885,0.086533,-0.141258,-0.986184,0.000000,0.000000,0.000000,-1,0.049103,-0.218045,-0.018309,0.027069,-0.003838,-0.027168
"2019-04-16 11:06:08.251 +0000",1555412768.250856,0.085578,0.143312,-0.265076,0.084597,-0.142822,-0.986126,0.000000,0.000000,0.000000,-1,0.037503,-0.062814,0.012267,0.022336,-0.004517,-0.012592
"2019-04-16 11:06:08.271 +0000",1555412768.270839,0.085853,0.144020,-0.264326,0.084859,-0.143523,-0.986002,0.000000,0.000000,0.000000,-1,0.038826,0.058517,0.051425,0.015803,0.019332,0.015680
"2019-04-16 11:06:08.291 +0000",1555412768.290800,0.088891,0.144898,-0.263442,0.087844,-0.144392,-0.985614,0.000000,0.000000,0.000000,-1,0.055289,0.192432,0.049131,-0.003997,0.003111,0.068042
"2019-04-16 11:06:08.311 +0000",1555412768.310786,0.094451,0.145289,-0.262653,0.093317,-0.144778,-0.985054,0.000000,0.000000,0.000000,-1,-0.013639,0.329118,0.033905,0.013235,0.005572,0.088814
"2019-04-16 11:06:08.331 +0000",1555412768.330759,0.102387,0.144284,-0.262154,0.101147,-0.143784,-0.984427,0.000000,0.000000,0.000000,-1,-0.089405,0.321355,0.027384,0.030842,-0.009918,0.063803
"2019-04-16 11:06:08.351 +0000",1555412768.350730,0.106718,0.142156,-0.261095,0.105441,-0.141677,-0.984281,0.000000,0.000000,0.000000,-1,-0.111166,0.153533,0.048855,0.024823,-0.020447,0.002180
"2019-04-16 11:06:08.371 +0000",1555412768.370704,0.107178,0.141254,-0.259588,0.105908,-0.140785,-0.984359,0.000000,0.000000,0.000000,-1,-0.049445,-0.060637,0.081193,-0.010220,-0.008400,-0.029007
"2019-04-16 11:06:08.391 +0000",1555412768.390673,0.103894,0.141263,-0.257953,0.102675,-0.140793,-0.984701,0.000000,0.000000,0.000000,-1,0.012127,-0.197465,0.076205,-0.041395,-0.001312,-0.019969
"2019-04-16 11:06:08.411 +0000",1555412768.410649,0.097406,0.141911,-0.256496,0.096275,-0.141435,-0.985255,0.000000,0.000000,0.000000,-1,0.035954,-0.242109,0.057185,-0.037788,0.000978,-0.016561
"2019-04-16 11:06:08.431 +0000",1555412768.430621,0.092733,0.142878,-0.255468,0.091657,-0.142393,-0.985557,0.000000,0.000000,0.000000,-1,0.048642,-0.213381,0.056104,-0.029447,-0.002734,-0.026085
"2019-04-16 11:06:08.451 +0000",1555412768.450578,0.088747,0.143978,-0.254621,0.087714,-0.143481,-0.985758,0.000000,0.000000,0.000000,-1,0.048594,-0.180548,0.037981,-0.010245,0.006731,-0.032201
"2019-04-16 11:06:08.471 +0000",1555412768.470568,0.086377,0.144623,-0.254195,0.085369,-0.144119,-0.985871,0.000000,0.000000,0.000000,-1,0.035338,-0.079718,0.030361,0.007298,0.000305,-0.033767
"2019-04-16 11:06:08.491 +0000",1555412768.490540,0.086244,0.145290,-0.252774,0.085229,-0.144779,-0.985786,0.000000,0.000000,0.000000,-1,0.023566,0.060854,0.100296,0.017859,-0.007183,-0.029015
"2019-04-16 11:06:08.511 +0000",1555412768.510514,0.090278,0.145425,-0.249963,0.089204,-0.144913,-0.985415,0.000000,0.000000,0.000000,-1,-0.004450,0.251282,0.166933,0.016051,0.011094,0.036135
"2019-04-16 11:06:08.530 +0000",1555412768.530456,0.096424,0.145510,-0.246546,0.095257,-0.144997,-0.984836,0.000000,0.000000,0.000000,-1,-0.018829,0.357448,0.164619,-0.002713,0.014519,0.055393
"2019-04-16 11:06:08.550 +0000",1555412768.550439,0.102743,0.145367,-0.243797,0.101480,-0.144856,-0.984235,0.000000,0.000000,0.000000,-1,-0.027949,0.327341,0.106173,-0.008615,0.002323,0.042753
"2019-04-16 11:06:08.570 +0000",1555412768.570430,0.107495,0.144965,-0.242223,0.106163,-0.144458,-0.983799,0.000000,0.000000,0.000000,-1,-0.025886,0.182586,0.055362,-0.004097,0.005221,0.006794
"2019-04-16 11:06:08.590 +0000",1555412768.590392,0.108275,0.144880,-0.241786,0.106932,-0.144373,-0.983729,0.000000,0.000000,0.000000,-1,0.008615,-0.041727,0.002608,0.003527,0.007105,-0.015219
"2019-04-16 11:06:08.610 +0000",1555412768.610376,0.105444,0.145428,-0.242272,0.104138,-0.144916,-0.983949,0.000000,0.000000,0.000000,-1,0.041622,-0.203249,-0.028979,0.013126,-0.007580,-0.012984
"2019-04-16 11:06:08.630 +0000",1555412768.630350,0.100985,0.146250,-0.242951,0.099737,-0.145729,-0.984284,0.000000,0.000000,0.000000,-1,0.045983,-0.224467,-0.026812,0.025904,-0.010338,-0.007735
"2019-04-16 11:06:08.650 +0000",1555412768.650322,0.098707,0.147878,-0.243526,0.097471,-0.147340,-0.984272,0.000000,0.000000,0.000000,-1,0.061395,-0.123350,-0.004607,0.019884,-0.011642,0.002445
"2019-04-16 11:06:08.670 +0000",1555412768.670295,0.098050,0.148980,-0.243436,0.096809,-0.148429,-0.984173,0.000000,0.000000,0.000000,-1,0.043477,0.022244,0.017466,0.000710,-0.015465,0.012249
"2019-04-16 11:06:08.690 +0000",1555412768.690254,0.099440,0.150005,-0.243038,0.098161,-0.149443,-0.983886,0.000000,0.000000,0.000000,-1,0.000322,0.110258,0.019375,-0.013459,-0.014451,0.006270
"2019-04-16 11:06:08.710 +0000",1555412768.710239,0.101956,0.149774,-0.242666,0.100640,-0.149215,-0.983670,0.000000,0.000000,0.000000,-1,-0.016863,0.132487,0.017181,-0.018685,-0.007783,0.001019
"2019-04-16 11:06:08.730 +0000",1555412768.730213,0.104149,0.149749,-0.242236,0.102797,-0.149190,-0.983451,0.000000,0.000000,0.000000,-1,0.000247,0.126189,0.019352,-0.008879,-0.002055,0.005347
"2019-04-16 11:06:08.750 +0000",1555412768.750185,0.106733,0.150100,-0.241907,0.105333,-0.149537,-0.983130,0.000000,0.000000,0.000000,-1,0.036604,0.112550,0.023697,0.003249,0.012833,0.011816
"2019-04-16 11:06:08.770 +0000",1555412768.770157,0.108932,0.150695,-0.241482,0.107485,-0.150125,-0.982807,0.000000,0.000000,0.000000,-1,0.060126,0.103101,0.026947,0.001875,0.015253,0.013920
"2019-04-16 11:06:08.790 +0000",1555412768.790131,0.111175,0.151747,-0.241073,0.109672,-0.151165,-0.982406,0.000000,0.000000,0.000000,-1,0.068582,0.120139,0.028001,-0.001868,0.012661,0.015960
"2019-04-16 11:06:08.810 +0000",1555412768.810103,0.113531,0.152651,-0.240626,0.111970,-0.152058,-0.982009,0.000000,0.000000,0.000000,-1,0.065299,0.138172,0.025841,-0.003236,0.002751,0.002364
"2019-04-16 11:06:08.830 +0000",1555412768.830071,0.116026,0.154168,-0.240530,0.114393,-0.153558,-0.981496,0.000000,0.000000,0.000000,-1,0.083657,0.123252,0.004637,-0.006178,0.000085,-0.004130
"2019-04-16 11:06:08.850 +0000",1555412768.850022,0.116975,0.156206,-0.240898,0.115287,-0.155571,-0.981074,0.000000,0.000000,0.000000,-1,0.094884,0.036062,-0.016472,-0.006294,-0.005272,-0.012868
"2019-04-16 11:06:08.870 +0000",1555412768.870023,0.116108,0.157891,-0.241442,0.114406,-0.157235,-0.980912,0.000000,0.000000,0.000000,-1,0.086804,-0.051136,-0.024863,-0.007412,-0.001364,-0.013870
"2019-04-16 11:06:08.890 +0000",1555412768.889971,0.114633,0.159380,-0.242169,0.112933,-0.158706,-0.980846,0.000000,0.000000,0.000000,-1,0.070862,-0.062911,-0.029129,-0.001162,-0.003434,-0.008961
"2019-04-16 11:06:08.910 +0000",1555412768.909970,0.114265,0.160893,-0.242969,0.112544,-0.160199,-0.980648,0.000000,0.000000,0.000000,-1,0.067411,-0.006636,-0.032410,0.005849,-0.006183,-0.006886
"2019-04-16 11:06:08.930 +0000",1555412768.929943,0.115896,0.162655,-0.243761,0.114111,-0.161939,-0.980181,0.000000,0.000000,0.000000,-1,0.080799,0.083786,-0.020824,0.009119,-0.004229,-0.003645
"2019-04-16 11:06:08.950 +0000",1555412768.949915,0.118907,0.164533,-0.244221,0.117025,-0.163792,-0.979529,0.000000,0.000000,0.000000,-1,0.065457,0.148609,-0.007130,0.005915,-0.008266,0.004569
"2019-04-16 11:06:08.970 +0000",1555412768.969887,0.122558,0.166082,-0.244448,0.120569,-0.165319,-0.978842,0.000000,0.000000,0.000000,-1,0.040799,0.154947,0.003442,0.009039,-0.008906,0.006736
"2019-04-16 11:06:08.990 +0000",1555412768.989837,0.126343,0.167189,-0.244386,0.124250,-0.166412,-0.978197,0.000000,0.000000,0.000000,-1,0.023701,0.141147,0.016186,0.019610,-0.004716,0.011064
"2019-04-16 11:06:09.010 +0000",1555412769.009834,0.129202,0.167917,-0.244226,0.127031,-0.167129,-0.977717,0.000000,0.000000,0.000000,-1,0.027090,0.102920,0.016249,0.016798,-0.005555,0.009807
"2019-04-16 11:06:09.030 +0000",1555412769.029805,0.131112,0.168619,-0.244027,0.128882,-0.167821,-0.977356,0.000000,0.000000,0.000000,-1,0.025173,0.058291,0.015248,0.013894,-0.002910,0.018845
"2019-04-16 11:06:09.050 +0000",1555412769.049753,0.132661,0.169234,-0.243977,0.130382,-0.168428,-0.977053,0.000000,0.000000,0.000000,-1,0.009352,0.023148,0.009953,0.009678,-0.002730,0.015765
"2019-04-16 11:06:09.070 +0000",1555412769.069751,0.132672,0.169270,-0.243735,0.130392,-0.168463,-0.977046,0.000000,0.000000,0.000000,-1,-0.008524,-0.024815,0.014188,0.006632,0.000708,0.012888
"2019-04-16 11:06:09.090 +0000",1555412769.089726,0.131954,0.169066,-0.243437,0.129696,-0.168262,-0.977173,0.000000,0.000000,0.000000,-1,-0.012702,-0.046072,0.015274,0.002903,0.002872,0.008575
"2019-04-16 11:06:09.110 +0000",1555412769.109698,0.131029,0.168887,-0.243156,0.128795,-0.168086,-0.977322,0.000000,0.000000,0.000000,-1,-0.000958,-0.039675,0.011036,-0.003765,0.005381,0.002408
"2019-04-16 11:06:09.130 +0000",1555412769.129656,0.130168,0.168802,-0.243044,0.127956,-0.168002,-0.977447,0.000000,0.000000,0.000000,-1,0.006582,-0.039704,0.000419,-0.002010,0.007861,0.002288
"2019-04-16 11:06:09.150 +0000",1555412769.149635,0.129236,0.168979,-0.243126,0.127041,-0.168176,-0.977536,0.000000,0.000000,0.000000,-1,0.014158,-0.052458,-0.005926,0.001255,-0.001822,-0.001361
"2019-04-16 11:06:09.170 +0000",1555412769.169616,0.127814,0.169302,-0.243268,0.125644,-0.168495,-0.977662,0.000000,0.000000,0.000000,-1,0.000385,-0.080117,-0.002722,-0.001117,-0.005440,0.005387
"2019-04-16 11:06:09.190 +0000",1555412769.189565,0.125945,0.169398,-0.243196,0.123814,-0.168589,-0.977879,0.000000,0.000000,0.000000,-1,-0.029545,-0.079157,0.000407,-0.004109,-0.009160,0.005147
"2019-04-16 11:06:09.210 +0000",1555412769.209562,0.124608,0.169112,-0.243050,0.122513,-0.168307,-0.978092,0.000000,0.000000,0.000000,-1,-0.039363,-0.035642,0.000323,-0.004349,-0.010221,-0.005658
"2019-04-16 11:06:09.230 +0000",1555412769.229534,0.124023,0.168489,-0.242959,0.121953,-0.167692,-0.978267,0.000000,0.000000,0.000000,-1,-0.034099,-0.016512,-0.001821,-0.002553,-0.003923,-0.012074
"2019-04-16 11:06:09.250 +0000",1555412769.249507,0.123259,0.167754,-0.242791,0.121221,-0.166968,-0.978482,0.000000,0.000000,0.000000,-1,-0.031944,-0.026043,0.002450,-0.001867,0.002524,-0.010898
"2019-04-16 11:06:09.269 +0000",1555412769.269482,0.122591,0.167178,-0.242688,0.120580,-0.166400,-0.978658,0.000000,0.000000,0.000000,-1,-0.012768,-0.015346,0.002473,-0.004628,0.002536,-0.006556
"2019-04-16 11:06:09.289 +0000",1555412769.289433,0.122102,0.166844,-0.242448,0.120108,-0.166071,-0.978772,0.000000,0.000000,0.000000,-1,-0.004313,-0.008887,0.012049,-0.002768,0.004434,-0.000919
"2019-04-16 11:06:09.309 +0000",1555412769.309426,0.122090,0.166740,-0.242139,0.120098,-0.165969,-0.978791,0.000000,0.000000,0.000000,-1,-0.000198,0.018774,0.016268,-0.003918,0.004637,0.003968
"2019-04-16 11:06:09.329 +0000",1555412769.329399,0.122602,0.166722,-0.241751,0.120599,-0.165951,-0.978732,0.000000,0.000000,0.000000,-1,-0.004575,0.037890,0.018357,-0.001886,0.000103,0.005954
"2019-04-16 11:06:09.349 +0000",1555412769.349363,0.122977,0.166682,-0.241217,0.120967,-0.165911,-0.978693,0.000000,0.000000,0.000000,-1,-0.016318,0.021971,0.030053,-0.006221,-0.004072,0.004511
"2019-04-16 11:06:09.369 +0000",1555412769.369344,0.123520,0.166492,-0.240795,0.121502,-0.165724,-0.978659,0.000000,0.000000,0.000000,-1,-0.009845,0.032515,0.010913,0.002811,0.002638,0.020086
"2019-04-16 11:06:09.389 +0000",1555412769.389318,0.124178,0.166358,-0.240651,0.122149,-0.165592,-0.978601,0.000000,0.000000,0.000000,-1,-0.011837,0.009107,0.005628,0.003324,-0.000530,0.011041
"2019-04-16 11:06:09.409 +0000",1555412769.409290,0.124292,0.166248,-0.240693,0.122263,-0.165483,-0.978605,0.000000,0.000000,0.000000,-1,-0.010512,-0.031313,-0.004941,0.007025,-0.002425,0.007383
"2019-04-16 11:06:09.429 +0000",1555412769.429262,0.123520,0.166097,-0.240869,0.121511,-0.165334,-0.978724,0.000000,0.000000,0.000000,-1,-0.010375,-0.054706,-0.009159,0.007747,-0.001521,0.008417
"2019-04-16 11:06:09.449 +0000",1555412769.449218,0.122861,0.165897,-0.241122,0.120870,-0.165137,-0.978836,0.000000,0.000000,0.000000,-1,-0.013588,-0.051535,-0.010233,0.007792,-0.001947,0.000748
"2019-04-16 11:06:09.469 +0000",1555412769.469211,0.122131,0.165671,-0.241317,0.120159,-0.164915,-0.978961,0.000000,0.000000,0.000000,-1,-0.011483,-0.046208,-0.009174,0.002872,-0.002520,-0.006329
"2019-04-16 11:06:09.489 +0000",1555412769.489175,0.121283,0.165584,-0.241430,0.119331,-0.164828,-0.979077,0.000000,0.000000,0.000000,-1,0.001292,-0.045059,-0.002771,0.001717,-0.001111,-0.005802
"2019-04-16 11:06:09.509 +0000",1555412769.509156,0.120043,0.165688,-0.241328,0.118115,-0.164931,-0.979207,0.000000,0.000000,0.000000,-1,0.004444,-0.046059,0.006805,-0.004681,0.001418,0.000783
"2019-04-16 11:06:09.529 +0000",1555412769.529128,0.118957,0.165632,-0.241101,0.117052,-0.164876,-0.979344,0.000000,0.000000,0.000000,-1,-0.004165,-0.035460,0.008899,-0.006792,0.001165,0.000523
"2019-04-16 11:06:09.549 +0000",1555412769.549101,0.118381,0.165453,-0.240954,0.116492,-0.164699,-0.979441,0.000000,0.000000,0.000000,-1,-0.006383,-0.013184,0.004609,-0.005286,0.004116,-0.000708
"2019-04-16 11:06:09.569 +0000",1555412769.569074,0.117994,0.165250,-0.240846,0.116116,-0.164499,-0.979519,0.000000,0.000000,0.000000,-1,0.000993,0.014433,-0.000733,-0.007397,0.001993,0.001018
"2019-04-16 11:06:09.589 +0000",1555412769.589035,0.118367,0.165332,-0.240893,0.116480,-0.164580,-0.979462,0.000000,0.000000,0.000000,-1,0.003104,0.023984,-0.003932,-0.001841,-0.003572,0.000550
"2019-04-16 11:06:09.609 +0000",1555412769.609018,0.118821,0.165423,-0.240967,0.116924,-0.164670,-0.979394,0.000000,0.000000,0.000000,-1,0.006337,0.016567,-0.002852,-0.002285,-0.003482,0.000482
"2019-04-16 11:06:09.629 +0000",1555412769.628994,0.118936,0.165690,-0.241063,0.117031,-0.164933,-0.979337,0.000000,0.000000,0.000000,-1,0.004286,0.001673,-0.004960,-0.000209,-0.002731,0.008390
"2019-04-16 11:06:09.649 +0000",1555412769.648962,0.118848,0.165791,-0.241161,0.116943,-0.165033,-0.979331,0.000000,0.000000,0.000000,-1,-0.002073,-0.008976,-0.004956,0.001847,0.000208,0.005530
"2019-04-16 11:06:09.669 +0000",1555412769.668937,0.118771,0.165629,-0.241200,0.116871,-0.164872,-0.979366,0.000000,0.000000,0.000000,-1,-0.010659,-0.005799,-0.000726,0.002483,0.001008,0.005733
"2019-04-16 11:06:09.689 +0000",1555412769.688912,0.118835,0.165445,-0.241197,0.116937,-0.164691,-0.979389,0.000000,0.000000,0.000000,-1,-0.006447,0.006966,-0.000736,0.001060,-0.000409,0.002781
"2019-04-16 11:06:09.709 +0000",1555412769.708884,0.119025,0.165402,-0.241186,0.117123,-0.164649,-0.979374,0.000000,0.000000,0.000000,-1,0.003144,0.009141,0.001406,0.000766,-0.000527,0.001178
"2019-04-16 11:06:09.729 +0000",1555412769.728856,0.119167,0.165595,-0.241148,0.117259,-0.164840,-0.979325,0.000000,0.000000,0.000000,-1,0.006372,0.001729,0.003550,-0.000316,-0.003511,0.003541
"2019-04-16 11:06:09.749 +0000",1555412769.748802,0.119031,0.165749,-0.241057,0.117123,-0.164991,-0.979316,0.000000,0.000000,0.000000,-1,-0.005326,-0.013173,0.006738,0.002094,-0.001940,0.006080
"2019-04-16 11:06:09.769 +0000",1555412769.768802,0.118881,0.165547,-0.240934,0.116980,-0.164792,-0.979367,0.000000,0.000000,0.000000,-1,-0.017098,-0.005795,0.004577,0.001780,0.000470,0.002591
"2019-04-16 11:06:09.789 +0000",1555412769.788755,0.119074,0.165103,-0.240802,0.117178,-0.164354,-0.979417,0.000000,0.000000,0.000000,-1,-0.021478,0.016497,0.004535,0.003153,0.000520,0.000230
"2019-04-16 11:06:09.809 +0000",1555412769.808737,0.119529,0.164578,-0.240636,0.117633,-0.163836,-0.979449,0.000000,0.000000,0.000000,-1,-0.017270,0.027149,0.006654,-0.001377,0.004306,-0.002530
"2019-04-16 11:06:09.829 +0000",1555412769.828722,0.120021,0.164300,-0.240444,0.118120,-0.163562,-0.979436,0.000000,0.000000,0.000000,-1,-0.000227,0.035721,0.007738,-0.003542,0.003909,0.002736
"2019-04-16 11:06:09.849 +0000",1555412769.848694,0.120578,0.164432,-0.240315,0.118664,-0.163692,-0.979349,0.000000,0.000000,0.000000,-1,0.008353,0.032549,0.004571,-0.005627,0.001643,0.003564
"2019-04-16 11:06:09.869 +0000",1555412769.868667,0.121118,0.164674,-0.240226,0.119187,-0.163931,-0.979245,0.000000,0.000000,0.000000,-1,-0.001276,0.039928,0.001351,-0.001405,-0.001185,0.007810
"2019-04-16 11:06:09.889 +0000",1555412769.888631,0.121979,0.164533,-0.240188,0.120033,-0.163792,-0.979165,0.000000,0.000000,0.000000,-1,-0.007724,0.049457,0.000261,-0.002647,0.000675,0.004495
"2019-04-16 11:06:09.909 +0000",1555412769.908613,0.122888,0.164544,-0.240271,0.120923,-0.163803,-0.979054,0.000000,0.000000,0.000000,-1,0.006260,0.035673,-0.005006,0.001270,-0.000168,0.004399
"2019-04-16 11:06:09.929 +0000",1555412769.928587,0.123234,0.164752,-0.240452,0.121258,-0.164008,-0.978978,0.000000,0.000000,0.000000,-1,0.016097,-0.009974,-0.005981,0.003193,-0.000787,0.006596
"2019-04-16 11:06:09.949 +0000",1555412769.948552,0.122907,0.165130,-0.240741,0.120930,-0.164380,-0.978956,0.000000,0.000000,0.000000,-1,0.017341,-0.038686,-0.012315,0.004207,0.000165,0.005171
"2019-04-16 11:06:09.969 +0000",1555412769.968530,0.122327,0.165433,-0.241064,0.120356,-0.164680,-0.978976,0.000000,0.000000,0.000000,-1,0.009826,-0.028104,-0.014472,0.001607,-0.003564,0.001529
"2019-04-16 11:06:09.989 +0000",1555412769.988505,0.122387,0.165619,-0.241392,0.120411,-0.164863,-0.978939,0.000000,0.000000,0.000000,-1,0.003231,0.011178,-0.014544,0.004436,-0.002862,-0.007954
"2019-04-16 11:06:10.008 +0000",1555412770.008403,0.123153,0.165707,-0.241614,0.121159,-0.164950,-0.978832,0.000000,0.000000,0.000000,-1,0.009458,0.039928,-0.007133,0.004055,-0.002057,-0.009785
"2019-04-16 11:06:10.028 +0000",1555412770.028375,0.124129,0.166099,-0.241669,0.122107,-0.165336,-0.978649,0.000000,0.000000,0.000000,-1,0.024339,0.042171,0.003525,0.002130,-0.000633,-0.005161
"2019-04-16 11:06:10.048 +0000",1555412770.048340,0.124789,0.166619,-0.241638,0.122741,-0.165850,-0.978483,0.000000,0.000000,0.000000,-1,0.028718,0.015648,0.006763,0.003052,0.000826,0.013166
"2019-04-16 11:06:10.068 +0000",1555412770.068321,0.125116,0.167279,-0.241714,0.123048,-0.166500,-0.978334,0.000000,0.000000,0.000000,-1,0.022456,-0.005662,-0.000660,0.007246,-0.000981,0.015046
"2019-04-16 11:06:10.088 +0000",1555412770.088293,0.124990,0.167604,-0.241901,0.122918,-0.166821,-0.978296,0.000000,0.000000,0.000000,-1,0.006552,-0.018526,-0.010242,0.005424,-0.002338,0.013467
"2019-04-16 11:06:10.108 +0000",1555412770.108251,0.124871,0.167792,-0.242212,0.122798,-0.167006,-0.978279,0.000000,0.000000,0.000000,-1,-0.006104,-0.036735,-0.011342,0.001867,-0.002550,-0.001656
"2019-04-16 11:06:10.128 +0000",1555412770.128241,0.124094,0.167705,-0.242341,0.122039,-0.166920,-0.978389,0.000000,0.000000,0.000000,-1,-0.002953,-0.033501,-0.004961,-0.002898,-0.001736,-0.002950
"2019-04-16 11:06:10.148 +0000",1555412770.148212,0.123460,0.167776,-0.242354,0.121418,-0.166990,-0.978454,0.000000,0.000000,0.000000,-1,0.006547,-0.017493,0.001413,-0.005207,-0.000308,-0.002549
"2019-04-16 11:06:10.168 +0000",1555412770.168184,0.122920,0.167737,-0.242229,0.120889,-0.166952,-0.978526,0.000000,0.000000,0.000000,-1,0.005338,0.009068,0.003498,-0.008539,0.003011,0.002101
"2019-04-16 11:06:10.188 +0000",1555412770.188155,0.123024,0.167760,-0.242146,0.120991,-0.166974,-0.978509,0.000000,0.000000,0.000000,-1,-0.001149,0.029207,0.000265,-0.005940,0.000790,0.001993
"2019-04-16 11:06:10.208 +0000",1555412770.208132,0.123505,0.167726,-0.242217,0.121462,-0.166941,-0.978457,0.000000,0.000000,0.000000,-1,-0.001078,0.019622,-0.003973,-0.002215,0.000284,0.000994
"2019-04-16 11:06:10.228 +0000",1555412770.228105,0.123506,0.167792,-0.242277,0.121463,-0.167006,-0.978446,0.000000,0.000000,0.000000,-1,-0.002009,-0.009066,-0.003931,0.000089,-0.002199,0.001303
"2019-04-16 11:06:10.248 +0000",1555412770.248076,0.122928,0.167869,-0.242292,0.120895,-0.167082,-0.978503,0.000000,0.000000,0.000000,-1,-0.004077,-0.027117,-0.000719,-0.004334,-0.004000,-0.001584
"2019-04-16 11:06:10.268 +0000",1555412770.268049,0.122365,0.167771,-0.242289,0.120346,-0.166985,-0.978587,0.000000,0.000000,0.000000,-1,-0.006210,-0.029245,0.000343,-0.003784,-0.004096,-0.001500
"2019-04-16 11:06:10.288 +0000",1555412770.288025,0.121846,0.167651,-0.242272,0.119841,-0.166867,-0.978669,0.000000,0.000000,0.000000,-1,-0.000888,-0.016538,0.000309,0.000383,0.001157,-0.004378
"2019-04-16 11:06:10.308 +0000",1555412770.307997,0.121587,0.167699,-0.242195,0.119586,-0.166914,-0.978692,0.000000,0.000000,0.000000,-1,0.004392,-0.009057,0.004561,-0.000140,0.001265,-0.002066
"2019-04-16 11:06:10.328 +0000",1555412770.327968,0.121160,0.167902,-0.242084,0.119164,-0.167115,-0.978710,0.000000,0.000000,0.000000,-1,0.011956,-0.031319,0.007799,-0.003808,-0.000015,0.000637
"2019-04-16 11:06:10.348 +0000",1555412770.347918,0.119953,0.168153,-0.242007,0.117978,-0.167361,-0.978811,0.000000,0.000000,0.000000,-1,0.030340,-0.075877,0.005776,-0.000699,0.005939,-0.005426
"2019-04-16 11:06:10.368 +0000",1555412770.367915,0.118084,0.168951,-0.242166,0.116132,-0.168149,-0.978897,0.000000,0.000000,0.000000,-1,0.061530,-0.103450,-0.007942,0.002429,0.003873,0.003082
"2019-04-16 11:06:10.388 +0000",1555412770.387875,0.116258,0.169976,-0.242548,0.114325,-0.169158,-0.978936,0.000000,0.000000,0.000000,-1,0.036912,-0.087636,-0.012268,0.003763,-0.000992,0.010110
"2019-04-16 11:06:10.408 +0000",1555412770.407858,0.115744,0.170441,-0.242857,0.113812,-0.169617,-0.978916,0.000000,0.000000,0.000000,-1,0.007769,-0.033528,-0.004965,0.001026,-0.004715,0.008045
"2019-04-16 11:06:10.428 +0000",1555412770.427833,0.115721,0.170506,-0.242806,0.113789,-0.169681,-0.978908,0.000000,0.000000,0.000000,-1,-0.007540,0.030198,0.003415,-0.006672,-0.004696,0.006938
"2019-04-16 11:06:10.448 +0000",1555412770.447779,0.116698,0.170580,-0.242664,0.114743,-0.169754,-0.978784,0.000000,0.000000,0.000000,-1,-0.000233,0.062115,0.006571,-0.004666,-0.000748,0.003869
"2019-04-16 11:06:10.468 +0000",1555412770.467780,0.117368,0.170701,-0.242552,0.115397,-0.169873,-0.978686,0.000000,0.000000,0.000000,-1,-0.002150,0.021682,0.004468,-0.001139,0.000043,0.009265
"2019-04-16 11:06:10.488 +0000",1555412770.487723,0.117350,0.170407,-0.242473,0.115385,-0.169583,-0.978738,0.000000,0.000000,0.000000,-1,-0.021192,-0.013469,0.001293,0.000994,0.001996,0.005426
"2019-04-16 11:06:10.508 +0000",1555412770.507725,0.116867,0.169837,-0.242434,0.114924,-0.169022,-0.978889,0.000000,0.000000,0.000000,-1,-0.024327,-0.024123,-0.001887,0.002187,0.001419,0.000786
"2019-04-16 11:06:10.528 +0000",1555412770.527699,0.116472,0.169413,-0.242355,0.114545,-0.168604,-0.979006,0.000000,0.000000,0.000000,-1,-0.009476,-0.009162,0.003437,-0.000394,-0.001196,-0.002180
"2019-04-16 11:06:10.548 +0000",1555412770.547643,0.116329,0.169450,-0.242276,0.114404,-0.168640,-0.979016,0.000000,0.000000,0.000000,-1,0.003280,0.006811,0.001312,-0.004358,-0.002152,0.000256
"2019-04-16 11:06:10.568 +0000",1555412770.567644,0.116480,0.169477,-0.242253,0.114551,-0.168666,-0.978994,0.000000,0.000000,0.000000,-1,-0.005309,0.018450,-0.000849,-0.005268,-0.002491,0.000173
"2019-04-16 11:06:10.588 +0000",1555412770.587618,0.116648,0.169452,-0.242232,0.114717,-0.168642,-0.978979,0.000000,0.000000,0.000000,-1,-0.015976,0.018394,-0.002996,-0.000367,-0.003691,0.001699
"2019-04-16 11:06:10.608 +0000",1555412770.607591,0.116932,0.169199,-0.242205,0.115000,-0.168393,-0.978989,0.000000,0.000000,0.000000,-1,-0.018097,0.009910,0.001265,0.000539,-0.004474,0.001144
"2019-04-16 11:06:10.628 +0000",1555412770.627563,0.116990,0.169045,-0.242153,0.115059,-0.168241,-0.979008,0.000000,0.000000,0.000000,-1,-0.009442,-0.012418,0.003404,0.003532,-0.000415,0.004505
"2019-04-16 11:06:10.648 +0000",1555412770.647537,0.116491,0.168904,-0.242093,0.114573,-0.168102,-0.979089,0.000000,0.000000,0.000000,-1,-0.001846,-0.034709,0.001327,0.000249,0.001964,0.003182
"2019-04-16 11:06:10.668 +0000",1555412770.667510,0.115630,0.168729,-0.242138,0.113734,-0.167929,-0.979216,0.000000,0.000000,0.000000,-1,-0.002837,-0.043247,-0.005042,-0.000926,0.003119,-0.000108
"2019-04-16 11:06:10.687 +0000",1555412770.687458,0.114829,0.168601,-0.242282,0.112952,-0.167803,-0.979328,0.000000,0.000000,0.000000,-1,-0.004996,-0.035831,-0.007183,0.000298,0.003009,0.001011
"2019-04-16 11:06:10.707 +0000",1555412770.707440,0.114484,0.168334,-0.242370,0.112619,-0.167540,-0.979412,0.000000,0.000000,0.000000,-1,-0.013693,-0.008227,-0.004053,-0.001047,0.000502,0.001247
"2019-04-16 11:06:10.727 +0000",1555412770.727427,0.114708,0.168076,-0.242405,0.112844,-0.167286,-0.979429,0.000000,0.000000,0.000000,-1,-0.008486,0.017302,-0.001954,0.002147,0.000049,-0.001940
"2019-04-16 11:06:10.747 +0000",1555412770.747401,0.115132,0.167902,-0.242404,0.113262,-0.167114,-0.979410,0.000000,0.000000,0.000000,-1,-0.006372,0.020503,-0.000891,0.001789,-0.000962,0.004358
"2019-04-16 11:06:10.767 +0000",1555412770.767375,0.115572,0.167984,-0.242439,0.113692,-0.167195,-0.979347,0.000000,0.000000,0.000000,-1,-0.010600,0.012981,-0.001984,0.003236,-0.002879,0.005195
"2019-04-16 11:06:10.787 +0000",1555412770.787348,0.115664,0.167629,-0.242477,0.113789,-0.166845,-0.979395,0.000000,0.000000,0.000000,-1,-0.026528,-0.003036,-0.005182,0.001736,-0.002146,0.002344
"2019-04-16 11:06:10.807 +0000",1555412770.807319,0.115552,0.167121,-0.242525,0.113689,-0.166344,-0.979492,0.000000,0.000000,0.000000,-1,-0.026506,-0.006228,-0.006240,-0.001292,0.001427,-0.004212
"2019-04-16 11:06:10.827 +0000",1555412770.827294,0.115272,0.166699,-0.242537,0.113422,-0.165928,-0.979593,0.000000,0.000000,0.000000,-1,-0.016894,-0.012536,-0.000896,-0.001972,0.004551,-0.003088
"2019-04-16 11:06:10.847 +0000",1555412770.847247,0.115196,0.166270,-0.242588,0.113356,-0.165505,-0.979673,0.000000,0.000000,0.000000,-1,-0.007297,-0.004022,-0.005142,0.002168,0.005029,0.001233
"2019-04-16 11:06:10.867 +0000",1555412770.867238,0.114983,0.166212,-0.242673,0.113149,-0.165448,-0.979706,0.000000,0.000000,0.000000,-1,0.001328,-0.022042,-0.004035,0.002207,0.002423,0.001664
"2019-04-16 11:06:10.887 +0000",1555412770.887212,0.114463,0.166210,-0.242812,0.112639,-0.165446,-0.979765,0.000000,0.000000,0.000000,-1,-0.000738,-0.032691,-0.007212,0.000260,0.000544,0.005171
"2019-04-16 11:06:10.907 +0000",1555412770.907183,0.113814,0.166358,-0.242918,0.112001,-0.165592,-0.979814,0.000000,0.000000,0.000000,-1,0.000306,-0.031607,-0.004022,0.000426,-0.003918,0.001909
"2019-04-16 11:06:10.927 +0000",1555412770.927156,0.113171,0.166414,-0.242948,0.111369,-0.165647,-0.979877,0.000000,0.000000,0.000000,-1,-0.000799,-0.030520,0.001290,-0.001140,-0.001758,0.001285
"2019-04-16 11:06:10.947 +0000",1555412770.947104,0.112565,0.166449,-0.242830,0.110775,-0.165681,-0.979938,0.000000,0.000000,0.000000,-1,-0.011553,-0.021013,0.004410,-0.000897,-0.001509,0.003696
"2019-04-16 11:06:10.967 +0000",1555412770.967103,0.112102,0.166004,-0.242660,0.110330,-0.165243,-0.980062,0.000000,0.000000,0.000000,-1,-0.025460,-0.016819,0.004376,-0.002969,0.000784,0.002340
"2019-04-16 11:06:10.987 +0000",1555412770.987071,0.111766,0.165444,-0.242528,0.110011,-0.164690,-0.980191,0.000000,0.000000,0.000000,-1,-0.025468,-0.012582,0.002244,-0.000056,0.003100,-0.002017
"2019-04-16 11:06:11.007 +0000",1555412771.007024,0.111295,0.164970,-0.242442,0.109557,-0.164223,-0.980320,0.000000,0.000000,0.000000,-1,-0.012598,-0.022099,0.001221,0.000428,0.004097,-0.003307
"2019-04-16 11:06:11.027 +0000",1555412771.027022,0.110794,0.164718,-0.242408,0.109071,-0.163974,-0.980416,0.000000,0.000000,0.000000,-1,-0.006180,-0.024198,0.001237,-0.000291,0.004138,-0.001090
"2019-04-16 11:06:11.047 +0000",1555412771.046995,0.110370,0.164691,-0.242400,0.108656,-0.163948,-0.980467,0.000000,0.000000,0.000000,-1,0.001280,-0.017806,-0.000884,-0.001127,-0.001122,-0.000109
"2019-04-16 11:06:11.067 +0000",1555412771.066970,0.110228,0.164724,-0.242410,0.108516,-0.163980,-0.980477,0.000000,0.000000,0.000000,-1,-0.004142,-0.000830,-0.000921,0.002034,-0.002677,0.002862
"2019-04-16 11:06:11.087 +0000",1555412771.086931,0.110497,0.164767,-0.242408,0.108778,-0.164023,-0.980441,0.000000,0.000000,0.000000,-1,-0.007435,0.010818,0.001156,0.002229,-0.002527,0.001910
"2019-04-16 11:06:11.107 +0000",1555412771.106913,0.110584,0.164625,-0.242298,0.108866,-0.163882,-0.980454,0.000000,0.000000,0.000000,-1,-0.008467,-0.000854,0.004360,0.002141,-0.002668,0.001924
"2019-04-16 11:06:11.127 +0000",1555412771.126887,0.110259,0.164494,-0.242221,0.108551,-0.163753,-0.980511,0.000000,0.000000,0.000000,-1,-0.013642,-0.031700,0.001207,0.003571,0.000103,-0.000156
"2019-04-16 11:06:11.147 +0000",1555412771.146837,0.109192,0.163956,-0.242220,0.107514,-0.163222,-0.980714,0.000000,0.000000,0.000000,-1,-0.032618,-0.076430,-0.005144,0.005020,-0.000733,-0.005447
"2019-04-16 11:06:11.167 +0000",1555412771.166833,0.107647,0.162945,-0.242356,0.106016,-0.162225,-0.981042,0.000000,0.000000,0.000000,-1,-0.049573,-0.099892,-0.009395,0.005831,0.003579,-0.003546
"2019-04-16 11:06:11.187 +0000",1555412771.186806,0.105371,0.161722,-0.242465,0.103804,-0.161018,-0.981477,0.000000,0.000000,0.000000,-1,-0.054768,-0.130720,-0.009360,0.003145,-0.001412,-0.008910
"2019-04-16 11:06:11.207 +0000",1555412771.206755,0.101696,0.160551,-0.242259,0.100215,-0.159862,-0.982039,0.000000,0.000000,0.000000,-1,-0.069629,-0.167889,0.004488,-0.013896,-0.005528,0.002211
"2019-04-16 11:06:11.227 +0000",1555412771.226752,0.098118,0.159399,-0.241840,0.096718,-0.158725,-0.982574,0.000000,0.000000,0.000000,-1,-0.059106,-0.147605,0.015110,-0.013115,-0.005750,0.004715
"2019-04-16 11:06:11.247 +0000",1555412771.246723,0.094650,0.158709,-0.241304,0.093321,-0.158043,-0.983012,0.000000,0.000000,0.000000,-1,-0.051772,-0.119948,0.017211,-0.006407,-0.003303,0.009898
"2019-04-16 11:06:11.267 +0000",1555412771.266697,0.092883,0.157944,-0.240944,0.091595,-0.157288,-0.983296,0.000000,0.000000,0.000000,-1,-0.040269,-0.065778,0.010747,0.001621,-0.000610,0.014195
"2019-04-16 11:06:11.287 +0000",1555412771.286654,0.092738,0.157331,-0.240692,0.091461,-0.156683,-0.983405,0.000000,0.000000,0.000000,-1,-0.024641,0.017149,0.010654,0.007157,0.003301,0.009284
"2019-04-16 11:06:11.307 +0000",1555412771.306634,0.094142,0.156844,-0.240466,0.092849,-0.156201,-0.983352,0.000000,0.000000,0.000000,-1,-0.000395,0.083119,0.011666,0.002274,0.009976,0.004073
"2019-04-16 11:06:11.327 +0000",1555412771.326616,0.095839,0.156848,-0.240281,0.094518,-0.156205,-0.983192,0.000000,0.000000,0.000000,-1,0.017802,0.078924,0.008520,-0.001653,0.010682,0.007606
"2019-04-16 11:06:11.347 +0000",1555412771.346591,0.096633,0.157026,-0.240241,0.095296,-0.156382,-0.983089,0.000000,0.000000,0.000000,-1,0.010657,0.018300,0.001154,-0.002904,0.008158,0.012157
"2019-04-16 11:06:11.367 +0000",1555412771.366564,0.096462,0.156488,-0.240375,0.095135,-0.155850,-0.983189,0.000000,0.000000,0.000000,-1,-0.014711,-0.021186,-0.012659,0.000766,0.006070,0.010395
"2019-04-16 11:06:11.387 +0000",1555412771.386535,0.096207,0.155763,-0.240646,0.094896,-0.155134,-0.983325,0.000000,0.000000,0.000000,-1,-0.037199,-0.004301,-0.016982,0.000960,0.004622,0.005557
"2019-04-16 11:06:11.406 +0000",1555412771.406493,0.097106,0.154788,-0.240919,0.095794,-0.154171,-0.983389,0.000000,0.000000,0.000000,-1,-0.031104,0.057358,-0.013873,0.004242,0.004299,-0.000345
"2019-04-16 11:06:11.426 +0000",1555412771.426482,0.098992,0.154194,-0.241115,0.097657,-0.153584,-0.983298,0.000000,0.000000,0.000000,-1,-0.014269,0.101010,-0.008609,0.000243,-0.001781,-0.002496
"2019-04-16 11:06:11.446 +0000",1555412771.446427,0.100725,0.154187,-0.241148,0.099362,-0.153577,-0.983128,0.000000,0.000000,0.000000,-1,-0.012092,0.081943,-0.000071,-0.007108,-0.007587,-0.000163
"2019-04-16 11:06:11.466 +0000",1555412771.466427,0.101592,0.154093,-0.241013,0.100216,-0.153484,-0.983056,0.000000,0.000000,0.000000,-1,-0.017217,0.028839,0.006377,-0.006328,-0.009282,0.001855
"2019-04-16 11:06:11.486 +0000",1555412771.486400,0.100949,0.154311,-0.240749,0.099581,-0.153699,-0.983087,0.000000,0.000000,0.000000,-1,-0.007325,-0.031667,0.008615,-0.012483,-0.012011,-0.003378
"2019-04-16 11:06:11.506 +0000",1555412771.506374,0.098658,0.155178,-0.240494,0.097314,-0.154556,-0.983180,0.000000,0.000000,0.000000,-1,0.014418,-0.109142,0.007712,-0.008523,-0.011765,-0.014852
"2019-04-16 11:06:11.526 +0000",1555412771.526314,0.095588,0.155870,-0.240351,0.094285,-0.155240,-0.983367,0.000000,0.000000,0.000000,-1,0.033846,-0.148385,0.005683,-0.010515,-0.009143,-0.013215
"2019-04-16 11:06:11.546 +0000",1555412771.546315,0.092507,0.157018,-0.240274,0.091239,-0.156374,-0.983475,0.000000,0.000000,0.000000,-1,0.044394,-0.118605,0.004597,-0.004569,-0.008330,-0.011337
"2019-04-16 11:06:11.566 +0000",1555412771.566293,0.091320,0.157839,-0.240341,0.090059,-0.157184,-0.983454,0.000000,0.000000,0.000000,-1,0.034444,-0.046415,0.001265,0.011931,0.002353,-0.007726
"2019-04-16 11:06:11.586 +0000",1555412771.586237,0.091666,0.158565,-0.240467,0.090389,-0.157901,-0.983309,0.000000,0.000000,0.000000,-1,0.045859,0.027979,-0.002013,0.012745,0.002902,-0.005231
"2019-04-16 11:06:11.606 +0000",1555412771.606219,0.093127,0.159390,-0.240745,0.091814,-0.158716,-0.983046,0.000000,0.000000,0.000000,-1,0.053291,0.043917,-0.007339,0.016844,0.005747,0.016142
"2019-04-16 11:06:11.626 +0000",1555412771.626209,0.094422,0.159826,-0.241135,0.093080,-0.159146,-0.982857,0.000000,0.000000,0.000000,-1,0.026757,0.007695,-0.007338,0.016173,0.011975,0.025857
"2019-04-16 11:06:11.646 +0000",1555412771.646182,0.094489,0.159874,-0.241230,0.093145,-0.159193,-0.982844,0.000000,0.000000,0.000000,-1,-0.007305,-0.033799,0.005413,0.020624,0.006163,0.028528
"2019-04-16 11:06:11.666 +0000",1555412771.666157,0.094490,0.159421,-0.241125,0.093154,-0.158747,-0.982915,0.000000,0.000000,0.000000,-1,-0.022298,-0.032764,0.010697,0.013689,0.007074,0.018727
"2019-04-16 11:06:11.686 +0000",1555412771.686129,0.094262,0.158622,-0.240915,0.092941,-0.157958,-0.983062,0.000000,0.000000,0.000000,-1,-0.022266,-0.041254,0.011772,0.008408,0.010223,0.007949
"2019-04-16 11:06:11.706 +0000",1555412771.706103,0.092969,0.158071,-0.240685,0.091678,-0.157413,-0.983268,0.000000,0.000000,0.000000,-1,-0.013541,-0.076289,0.009715,-0.005985,0.009144,0.002448
"2019-04-16 11:06:11.726 +0000",1555412771.726076,0.090810,0.157755,-0.240458,0.089559,-0.157101,-0.983513,0.000000,0.000000,0.000000,-1,-0.001765,-0.078350,0.006539,-0.017980,-0.001377,-0.005180
"2019-04-16 11:06:11.746 +0000",1555412771.746044,0.088606,0.157896,-0.240168,0.087390,-0.157241,-0.983686,0.000000,0.000000,0.000000,-1,0.004527,-0.054952,0.007580,-0.020236,-0.002595,0.000501
"2019-04-16 11:06:11.766 +0000",1555412771.766022,0.087352,0.158142,-0.240022,0.086153,-0.157483,-0.983756,0.000000,0.000000,0.000000,-1,0.016214,-0.033696,0.001194,-0.019960,0.000302,0.005302
"2019-04-16 11:06:11.786 +0000",1555412771.785995,0.086094,0.158817,-0.239996,0.084906,-0.158151,-0.983758,0.000000,0.000000,0.000000,-1,0.012969,-0.016751,-0.005216,-0.017737,-0.007255,0.011086
"2019-04-16 11:06:11.806 +0000",1555412771.805938,0.085201,0.159729,-0.240046,0.084015,-0.159051,-0.983689,0.000000,0.000000,0.000000,-1,0.008769,-0.032700,-0.004137,-0.001480,-0.015464,-0.017699
"2019-04-16 11:06:11.826 +0000",1555412771.825941,0.084147,0.160084,-0.240067,0.082973,-0.159401,-0.983721,0.000000,0.000000,0.000000,-1,0.003533,-0.062431,0.002276,0.003483,-0.015846,-0.025221
"2019-04-16 11:06:11.846 +0000",1555412771.845900,0.083041,0.160279,-0.239989,0.081883,-0.159594,-0.983781,0.000000,0.000000,0.000000,-1,-0.002988,-0.040142,0.003293,0.001415,-0.012190,-0.028670
"2019-04-16 11:06:11.866 +0000",1555412771.865887,0.082766,0.160001,-0.239953,0.081616,-0.159320,-0.983848,0.000000,0.000000,0.000000,-1,-0.001140,0.026763,-0.002119,-0.004391,0.005603,-0.012506
"2019-04-16 11:06:11.886 +0000",1555412771.885851,0.084267,0.160010,-0.240030,0.083092,-0.159328,-0.983723,0.000000,0.000000,0.000000,-1,0.021978,0.110762,-0.005388,-0.008339,0.010601,-0.006680
"2019-04-16 11:06:11.906 +0000",1555412771.905832,0.086611,0.160200,-0.240037,0.085395,-0.159516,-0.983495,0.000000,0.000000,0.000000,-1,0.038944,0.125864,0.007369,0.006310,0.012604,0.020269
"2019-04-16 11:06:11.926 +0000",1555412771.925807,0.088749,0.160771,-0.239609,0.087490,-0.160079,-0.983219,0.000000,0.000000,0.000000,-1,0.024070,0.078135,0.031863,-0.000926,0.007476,0.033894
"2019-04-16 11:06:11.946 +0000",1555412771.945779,0.089417,0.160985,-0.238874,0.088143,-0.160291,-0.983126,0.000000,0.000000,0.000000,-1,-0.000244,0.016457,0.038286,-0.008218,0.004041,0.038562
"2019-04-16 11:06:11.966 +0000",1555412771.965751,0.089095,0.160706,-0.238200,0.087831,-0.160015,-0.983199,0.000000,0.000000,0.000000,-1,-0.026693,-0.024078,0.027662,-0.001847,-0.008152,0.029327
"2019-04-16 11:06:11.986 +0000",1555412771.985724,0.088379,0.160195,-0.237709,0.087133,-0.159511,-0.983343,0.000000,0.000000,0.000000,-1,-0.042542,-0.049684,0.019163,0.011515,-0.010945,0.009573
"2019-04-16 11:06:12.006 +0000",1555412772.005698,0.087223,0.159468,-0.237314,0.086007,-0.158793,-0.983559,0.000000,0.000000,0.000000,-1,-0.036049,-0.059255,0.012811,0.013313,-0.009023,-0.012428
"2019-04-16 11:06:12.026 +0000",1555412772.025669,0.085965,0.158833,-0.237700,0.084778,-0.158166,-0.983766,0.000000,0.000000,0.000000,-1,-0.033403,-0.107307,-0.033891,0.031417,-0.013679,-0.012083
"2019-04-16 11:06:12.046 +0000",1555412772.045638,0.083950,0.159465,-0.238290,0.082787,-0.158790,-0.983835,0.000000,0.000000,0.000000,-1,0.035959,-0.099409,-0.019953,-0.010400,-0.025307,-0.026541
"2019-04-16 11:06:12.066 +0000",1555412772.065617,0.079781,0.160029,-0.237397,0.078678,-0.159347,-0.984082,0.000000,0.000000,0.000000,-1,-0.000186,-0.286926,0.100392,-0.037403,-0.006226,-0.025286
"2019-04-16 11:06:12.086 +0000",1555412772.085591,0.070351,0.158849,-0.234935,0.069408,-0.158182,-0.984967,0.000000,0.000000,0.000000,-1,-0.096206,-0.524267,0.090986,-0.106761,0.062754,-0.001788
"2019-04-16 11:06:12.106 +0000",1555412772.105563,0.060415,0.157181,-0.234172,0.059634,-0.156534,-0.985871,0.000000,0.000000,0.000000,-1,-0.020970,-0.276977,-0.004916,-0.013797,-0.038610,-0.024811
"2019-04-16 11:06:12.126 +0000",1555412772.125536,0.057324,0.156986,-0.234345,0.056588,-0.156342,-0.986081,0.000000,0.000000,0.000000,-1,-0.023877,-0.136664,0.011879,0.009009,-0.049209,-0.058994
"2019-04-16 11:06:12.146 +0000",1555412772.145510,0.054569,0.157291,-0.232945,0.053869,-0.156644,-0.986185,0.000000,0.000000,0.000000,-1,-0.006291,-0.117023,0.092685,0.021601,-0.034229,-0.054525
"2019-04-16 11:06:12.165 +0000",1555412772.165480,0.055635,0.158759,-0.231158,0.054907,-0.158093,-0.985896,0.000000,0.000000,0.000000,-1,0.123920,0.123622,0.097901,0.028421,0.007611,0.008830
"2019-04-16 11:06:12.185 +0000",1555412772.185433,0.059945,0.161594,-0.229326,0.059129,-0.160892,-0.985199,0.000000,0.000000,0.000000,-1,0.120046,0.272301,0.091292,0.031493,0.031116,0.043427
"2019-04-16 11:06:12.205 +0000",1555412772.205414,0.065842,0.162611,-0.228243,0.064926,-0.161895,-0.984670,0.000000,0.000000,0.000000,-1,0.004895,0.312034,0.033580,0.035324,0.025451,0.069493
"2019-04-16 11:06:12.225 +0000",1555412772.225390,0.072743,0.161240,-0.228338,0.071736,-0.160542,-0.984419,0.000000,0.000000,0.000000,-1,-0.065110,0.271108,-0.017531,0.032268,0.027119,0.056791
"2019-04-16 11:06:12.245 +0000",1555412772.245373,0.076695,0.159714,-0.228856,0.075644,-0.159035,-0.984371,0.000000,0.000000,0.000000,-1,-0.072866,0.130734,-0.037537,0.046167,0.015450,0.035152
"2019-04-16 11:06:12.265 +0000",1555412772.265347,0.077090,0.158290,-0.229432,0.076051,-0.157630,-0.984565,0.000000,0.000000,0.000000,-1,-0.065589,-0.059364,-0.030859,0.050002,0.004233,0.001823
"2019-04-16 11:06:12.285 +0000",1555412772.285294,0.074919,0.156876,-0.229820,0.073930,-0.156233,-0.984950,0.000000,0.000000,0.000000,-1,-0.062910,-0.206869,-0.004055,0.035705,0.002196,-0.008535
"2019-04-16 11:06:12.305 +0000",1555412772.305292,0.069765,0.155955,-0.229611,0.068863,-0.155324,-0.985461,0.000000,0.000000,0.000000,-1,-0.032766,-0.274657,0.010991,0.003754,0.006139,-0.017591
"2019-04-16 11:06:12.325 +0000",1555412772.325266,0.064252,0.155856,-0.229456,0.063430,-0.155225,-0.985841,0.000000,0.000000,0.000000,-1,0.008919,-0.269226,0.002561,-0.026610,0.003202,-0.016112
"2019-04-16 11:06:12.345 +0000",1555412772.345232,0.058056,0.156280,-0.229427,0.057317,-0.155645,-0.986149,0.000000,0.000000,0.000000,-1,0.011048,-0.255465,-0.007023,-0.040150,-0.007578,-0.007763
"2019-04-16 11:06:12.365 +0000",1555412772.365207,0.053187,0.156183,-0.229570,0.052515,-0.155548,-0.986431,0.000000,0.000000,0.000000,-1,-0.014685,-0.235383,-0.007105,-0.038004,-0.010345,-0.013569
"2019-04-16 11:06:12.385 +0000",1555412772.385186,0.047778,0.156286,-0.229417,0.047178,-0.155650,-0.986685,0.000000,0.000000,0.000000,-1,-0.006398,-0.192809,0.002418,-0.036573,-0.013096,-0.017664
"2019-04-16 11:06:12.405 +0000",1555412772.405159,0.043901,0.156670,-0.229156,0.043349,-0.156030,-0.986801,0.000000,0.000000,0.000000,-1,0.034875,-0.118255,0.007705,-0.029098,-0.002036,-0.016678
"2019-04-16 11:06:12.425 +0000",1555412772.425129,0.042275,0.157598,-0.229041,0.041739,-0.156947,-0.986725,0.000000,0.000000,0.000000,-1,0.049598,-0.068271,0.006597,-0.022132,0.002009,-0.009827
"2019-04-16 11:06:12.445 +0000",1555412772.445105,0.041121,0.158363,-0.229102,0.040595,-0.157702,-0.986652,0.000000,0.000000,0.000000,-1,0.030368,-0.050365,-0.007289,-0.013328,-0.002134,0.003788
"2019-04-16 11:06:12.465 +0000",1555412772.465077,0.040625,0.158583,-0.229384,0.040104,-0.157919,-0.986637,0.000000,0.000000,0.000000,-1,0.004615,-0.015457,-0.015898,-0.011448,-0.006387,0.004704
"2019-04-16 11:06:12.485 +0000",1555412772.485048,0.040523,0.158763,-0.229718,0.040002,-0.158097,-0.986613,0.000000,0.000000,0.000000,-1,0.015259,-0.010091,-0.013759,-0.009439,-0.001037,-0.003560
"2019-04-16 11:06:12.505 +0000",1555412772.504999,0.039106,0.159030,-0.229818,0.038603,-0.158360,-0.986627,0.000000,0.000000,0.000000,-1,0.030408,-0.057811,-0.008341,-0.009962,0.006535,0.002145
"2019-04-16 11:06:12.525 +0000",1555412772.524996,0.037019,0.159472,-0.229948,0.036541,-0.158797,-0.986635,0.000000,0.000000,0.000000,-1,0.032797,-0.115152,-0.005061,-0.007809,0.008864,0.005205
"2019-04-16 11:06:12.545 +0000",1555412772.544970,0.034036,0.159743,-0.230167,0.033596,-0.159064,-0.986696,0.000000,0.000000,0.000000,-1,0.030925,-0.157714,-0.015632,-0.004253,0.017585,0.007601
"2019-04-16 11:06:12.565 +0000",1555412772.564941,0.031369,0.160215,-0.230690,0.030962,-0.159530,-0.986707,0.000000,0.000000,0.000000,-1,0.023463,-0.155640,-0.019903,0.019834,-0.005433,0.009107
"2019-04-16 11:06:12.585 +0000",1555412772.584916,0.029703,0.160862,-0.231170,0.029315,-0.160169,-0.986654,0.000000,0.000000,0.000000,-1,0.013554,-0.101461,-0.013626,0.023557,-0.008196,0.007040
"2019-04-16 11:06:12.605 +0000",1555412772.604887,0.029094,0.161048,-0.231377,0.028713,-0.160352,-0.986642,0.000000,0.000000,0.000000,-1,-0.006037,-0.045143,0.002198,0.022984,-0.004198,0.006555
"2019-04-16 11:06:12.625 +0000",1555412772.624862,0.029880,0.161130,-0.231225,0.029489,-0.160434,-0.986606,0.000000,0.000000,0.000000,-1,-0.008525,-0.000399,0.025515,0.015678,-0.002424,0.003269
"2019-04-16 11:06:12.645 +0000",1555412772.644813,0.030375,0.160773,-0.230662,0.029979,-0.160082,-0.986648,0.000000,0.000000,0.000000,-1,-0.016049,-0.001442,0.034006,0.005971,0.005312,0.006531
"2019-04-16 11:06:12.665 +0000",1555412772.664806,0.030254,0.160193,-0.230062,0.029862,-0.159509,-0.986745,0.000000,0.000000,0.000000,-1,-0.021301,-0.016353,0.030828,-0.000611,0.001443,0.005269
"2019-04-16 11:06:12.685 +0000",1555412772.684780,0.029297,0.159463,-0.229409,0.028921,-0.158788,-0.986889,0.000000,0.000000,0.000000,-1,-0.028616,-0.044034,0.025539,-0.003287,0.005742,0.003002
"2019-04-16 11:06:12.705 +0000",1555412772.704751,0.027461,0.159166,-0.228948,0.027110,-0.158494,-0.986988,0.000000,0.000000,0.000000,-1,-0.016710,-0.067403,0.018157,-0.006984,-0.004058,-0.009976
"2019-04-16 11:06:12.725 +0000",1555412772.724726,0.025737,0.159275,-0.228526,0.025409,-0.158602,-0.987016,0.000000,0.000000,0.000000,-1,0.008940,-0.072602,0.020342,-0.007022,-0.006147,-0.008392
"2019-04-16 11:06:12.745 +0000",1555412772.744701,0.023699,0.160045,-0.228046,0.023394,-0.159362,-0.986943,0.000000,0.000000,0.000000,-1,0.047389,-0.072445,0.021482,-0.009310,-0.004090,-0.006099
"2019-04-16 11:06:12.765 +0000",1555412772.764673,0.021922,0.161695,-0.227764,0.021634,-0.160991,-0.986719,0.000000,0.000000,0.000000,-1,0.110488,-0.073323,0.009916,-0.002515,-0.003316,-0.015448
"2019-04-16 11:06:12.785 +0000",1555412772.784629,0.019421,0.165039,-0.227841,0.019156,-0.164291,-0.986226,0.000000,0.000000,0.000000,-1,0.194243,-0.137911,-0.011083,-0.003348,0.001861,-0.005840
"2019-04-16 11:06:12.805 +0000",1555412772.804611,0.015721,0.168871,-0.228050,0.015497,-0.168069,-0.985653,0.000000,0.000000,0.000000,-1,0.198777,-0.194193,-0.009927,-0.005197,0.004159,0.012768
"2019-04-16 11:06:12.825 +0000",1555412772.824592,0.011537,0.172299,-0.228324,0.011366,-0.171448,-0.985128,0.000000,0.000000,0.000000,-1,0.151788,-0.199682,-0.007886,-0.007719,0.007981,0.008535
"2019-04-16 11:06:12.845 +0000",1555412772.844565,0.007866,0.174490,-0.228327,0.007746,-0.173606,-0.984785,0.000000,0.000000,0.000000,-1,0.084098,-0.126611,-0.000688,-0.008128,-0.001550,0.005781
"2019-04-16 11:06:12.865 +0000",1555412772.864516,0.006764,0.175929,-0.228246,0.006659,-0.175022,-0.984542,0.000000,0.000000,0.000000,-1,0.077066,-0.006547,0.007624,-0.006186,-0.000316,-0.014741
"2019-04-16 11:06:12.885 +0000",1555412772.884510,0.007099,0.177784,-0.227956,0.006987,-0.176849,-0.984213,0.000000,0.000000,0.000000,-1,0.103540,0.028675,0.018255,-0.004744,0.000320,-0.013117
"2019-04-16 11:06:12.904 +0000",1555412772.904483,0.007826,0.180055,-0.227448,0.007699,-0.179084,-0.983804,0.000000,0.000000,0.000000,-1,0.112949,0.059572,0.027797,-0.004785,-0.002145,-0.005698
"2019-04-16 11:06:12.924 +0000",1555412772.924451,0.008623,0.182475,-0.226792,0.008480,-0.181464,-0.983361,0.000000,0.000000,0.000000,-1,0.111956,0.032000,0.037404,0.001469,-0.002984,0.006737
"2019-04-16 11:06:12.944 +0000",1555412772.944429,0.008861,0.184237,-0.225923,0.008711,-0.183196,-0.983038,0.000000,0.000000,0.000000,-1,0.065003,0.008500,0.047977,0.001924,0.000045,0.010809
"2019-04-16 11:06:12.964 +0000",1555412772.964403,0.008404,0.185200,-0.224929,0.008260,-0.184143,-0.982865,0.000000,0.000000,0.000000,-1,0.025631,-0.024584,0.049011,-0.000723,-0.000778,0.012665
"2019-04-16 11:06:12.984 +0000",1555412772.984351,0.007359,0.185366,-0.224048,0.007233,-0.184306,-0.982842,0.000000,0.000000,0.000000,-1,-0.013714,-0.051348,0.040467,-0.000687,-0.002034,0.015984
"2019-04-16 11:06:13.004 +0000",1555412773.004349,0.005822,0.184794,-0.223233,0.005723,-0.183744,-0.982957,0.000000,0.000000,0.000000,-1,-0.042435,-0.072727,0.037252,-0.001649,-0.000063,0.015810
"2019-04-16 11:06:13.024 +0000",1555412773.024308,0.004146,0.183844,-0.222528,0.004076,-0.182810,-0.983140,0.000000,0.000000,0.000000,-1,-0.057347,-0.074941,0.031910,-0.000338,0.000345,0.010285
"2019-04-16 11:06:13.044 +0000",1555412773.044290,0.002495,0.182422,-0.221921,0.002454,-0.181412,-0.983404,0.000000,0.000000,0.000000,-1,-0.075481,-0.075038,0.027621,-0.004025,0.006851,0.008093
"2019-04-16 11:06:13.064 +0000",1555412773.064246,0.001035,0.180637,-0.221557,0.001018,-0.179656,-0.983729,0.000000,0.000000,0.000000,-1,-0.076519,-0.060264,0.010587,-0.002467,0.007674,0.005015
"2019-04-16 11:06:13.084 +0000",1555412773.084236,-0.000044,0.179210,-0.221500,-0.000043,-0.178252,-0.983985,0.000000,0.000000,0.000000,-1,-0.055156,-0.049602,0.002108,0.000333,0.004729,-0.001458
"2019-04-16 11:06:13.104 +0000",1555412773.104216,-0.000870,0.178072,-0.221488,-0.000856,-0.177132,-0.984187,0.000000,0.000000,0.000000,-1,-0.040175,-0.053797,0.001081,0.002184,0.006340,-0.000539
"2019-04-16 11:06:13.124 +0000",1555412773.124186,-0.002027,0.177239,-0.221432,-0.001995,-0.176313,-0.984332,0.000000,0.000000,0.000000,-1,-0.027375,-0.047384,-0.001029,-0.001896,0.004728,0.004214
"2019-04-16 11:06:13.144 +0000",1555412773.144146,-0.002802,0.176766,-0.221594,-0.002759,-0.175847,-0.984414,0.000000,0.000000,0.000000,-1,-0.016673,-0.041015,-0.009522,0.000561,0.003255,0.008141
"2019-04-16 11:06:13.164 +0000",1555412773.164124,-0.003225,0.176495,-0.221907,-0.003175,-0.175581,-0.984460,0.000000,0.000000,0.000000,-1,-0.024100,-0.023859,-0.015956,0.005204,-0.002856,0.007791
"2019-04-16 11:06:13.184 +0000",1555412773.184100,-0.003208,0.176044,-0.222190,-0.003158,-0.175136,-0.984539,0.000000,0.000000,0.000000,-1,-0.037044,-0.006871,-0.008565,0.003768,-0.004094,-0.004596
"2019-04-16 11:06:13.204 +0000",1555412773.204078,-0.003244,0.175340,-0.222221,-0.003195,-0.174443,-0.984662,0.000000,0.000000,0.000000,-1,-0.034998,-0.002549,0.003127,0.002584,-0.003749,-0.009173
"2019-04-16 11:06:13.224 +0000",1555412773.224051,-0.003458,0.174886,-0.222058,-0.003405,-0.173996,-0.984741,0.000000,0.000000,0.000000,-1,-0.017865,-0.020499,0.010631,0.001284,-0.001923,-0.003678
"2019-04-16 11:06:13.244 +0000",1555412773.244010,-0.004112,0.174775,-0.221792,-0.004050,-0.173886,-0.984757,0.000000,0.000000,0.000000,-1,-0.006086,-0.027883,0.011728,-0.002023,-0.000323,0.007096
"2019-04-16 11:06:13.264 +0000",1555412773.263998,-0.004827,0.174721,-0.221538,-0.004754,-0.173834,-0.984764,0.000000,0.000000,0.000000,-1,-0.009305,-0.024710,0.011717,-0.002235,-0.000116,0.005897
"2019-04-16 11:06:13.284 +0000",1555412773.283972,-0.005513,0.174410,-0.221276,-0.005429,-0.173527,-0.984814,0.000000,0.000000,0.000000,-1,-0.017861,-0.017333,0.007437,-0.006991,0.000127,-0.001133
"2019-04-16 11:06:13.304 +0000",1555412773.303943,-0.006140,0.173911,-0.221151,-0.006048,-0.173036,-0.984897,0.000000,0.000000,0.000000,-1,-0.014666,-0.008852,0.002115,-0.007105,0.000978,-0.007428
"2019-04-16 11:06:13.324 +0000",1555412773.323903,-0.006435,0.173588,-0.221111,-0.006338,-0.172718,-0.984951,0.000000,0.000000,0.000000,-1,-0.003998,-0.004567,0.001067,-0.000513,0.003238,-0.003712
"2019-04-16 11:06:13.344 +0000",1555412773.343872,-0.006583,0.173518,-0.221066,-0.006484,-0.172649,-0.984962,0.000000,0.000000,0.000000,-1,-0.000812,-0.003480,0.003198,0.000533,0.002468,0.003730
"2019-04-16 11:06:13.364 +0000",1555412773.363863,-0.006443,0.173489,-0.221045,-0.006347,-0.172620,-0.984968,0.000000,0.000000,0.000000,-1,-0.004043,0.006050,-0.000012,0.002517,-0.000201,0.003843
"2019-04-16 11:06:13.384 +0000",1555412773.383826,-0.006280,0.173398,-0.221079,-0.006185,-0.172531,-0.984985,0.000000,0.000000,0.000000,-1,-0.007221,0.001783,-0.001075,0.002066,-0.003327,0.000579
"2019-04-16 11:06:13.404 +0000",1555412773.403810,-0.006346,0.173608,-0.221084,-0.006251,-0.172737,-0.984948,0.000000,0.000000,0.000000,-1,-0.005088,0.002853,-0.001073,-0.001562,-0.003319,0.004327
"2019-04-16 11:06:13.424 +0000",1555412773.423782,-0.006196,0.173624,-0.221220,-0.006103,-0.172753,-0.984946,0.000000,0.000000,0.000000,-1,0.001333,0.007098,-0.006382,0.000244,-0.000312,0.003150
"2019-04-16 11:06:13.444 +0000",1555412773.443755,-0.006022,0.173697,-0.221390,-0.005931,-0.172825,-0.984935,0.000000,0.000000,0.000000,-1,0.002422,0.003910,-0.007438,0.007197,0.000447,0.005732
"2019-04-16 11:06:13.464 +0000",1555412773.463729,-0.005401,0.173794,-0.221614,-0.005319,-0.172920,-0.984922,0.000000,0.000000,0.000000,-1,0.006665,0.010303,-0.007439,0.009149,0.004707,0.004468
"2019-04-16 11:06:13.484 +0000",1555412773.483687,-0.004891,0.173632,-0.221817,-0.004818,-0.172761,-0.984952,0.000000,0.000000,0.000000,-1,0.015183,0.015649,-0.007431,0.003551,0.011033,0.006436
"2019-04-16 11:06:13.504 +0000",1555412773.503675,-0.004523,0.173640,-0.221996,-0.004455,-0.172769,-0.984952,0.000000,0.000000,0.000000,-1,0.007734,0.013477,-0.010632,0.001617,0.009393,0.003812
"2019-04-16 11:06:13.524 +0000",1555412773.523647,-0.004144,0.173455,-0.222306,-0.004082,-0.172587,-0.984986,0.000000,0.000000,0.000000,-1,0.001308,0.026158,-0.018106,-0.004753,0.005320,0.000306
"2019-04-16 11:06:13.544 +0000",1555412773.543594,-0.003879,0.173403,-0.222641,-0.003820,-0.172535,-0.984996,0.000000,0.000000,0.000000,-1,0.005567,0.031473,-0.020231,-0.011377,0.000431,-0.002019
"2019-04-16 11:06:13.564 +0000",1555412773.563594,-0.003690,0.173632,-0.222903,-0.003634,-0.172761,-0.984957,0.000000,0.000000,0.000000,-1,-0.000879,0.027248,-0.010669,-0.010282,-0.005584,0.000979
"2019-04-16 11:06:13.584 +0000",1555412773.583568,-0.003550,0.173767,-0.222924,-0.003496,-0.172894,-0.984934,0.000000,0.000000,0.000000,-1,-0.016918,0.017681,-0.000055,-0.004194,-0.008105,0.002207
"2019-04-16 11:06:13.604 +0000",1555412773.603540,-0.003048,0.173706,-0.222806,-0.003002,-0.172834,-0.984946,0.000000,0.000000,0.000000,-1,-0.019179,0.034710,0.007357,0.000118,-0.006015,-0.001107
"2019-04-16 11:06:13.623 +0000",1555412773.623492,-0.001820,0.173692,-0.222818,-0.001793,-0.172820,-0.984952,0.000000,0.000000,0.000000,-1,-0.001061,0.057034,-0.003272,0.007988,-0.003144,-0.005450
"2019-04-16 11:06:13.643 +0000",1555412773.643486,-0.000336,0.173885,-0.223109,-0.000331,-0.173010,-0.984920,0.000000,0.000000,0.000000,-1,0.013974,0.060194,-0.019194,0.009944,0.001761,-0.001454
"2019-04-16 11:06:13.663 +0000",1555412773.663460,0.001032,0.174279,-0.223704,0.001016,-0.173398,-0.984851,0.000000,0.000000,0.000000,-1,0.022657,0.047410,-0.031915,0.007269,0.001706,0.002002
"2019-04-16 11:06:13.683 +0000",1555412773.683460,0.002041,0.174481,-0.224561,0.002010,-0.173597,-0.984815,0.000000,0.000000,0.000000,-1,0.018562,0.032421,-0.049975,-0.001033,0.009061,0.013257
"2019-04-16 11:06:13.703 +0000",1555412773.703406,0.002927,0.174707,-0.225756,0.002882,-0.173819,-0.984773,0.000000,0.000000,0.000000,-1,0.021819,0.038731,-0.063799,-0.000685,0.007895,0.013292
"2019-04-16 11:06:13.723 +0000",1555412773.723378,0.004044,0.174993,-0.227143,0.003982,-0.174101,-0.984720,0.000000,0.000000,0.000000,-1,0.026076,0.047224,-0.068055,0.000290,0.003538,0.004556
"2019-04-16 11:06:13.743 +0000",1555412773.743349,0.005210,0.175501,-0.228355,0.005130,-0.174602,-0.984626,0.000000,0.000000,0.000000,-1,0.032393,0.046274,-0.052094,-0.001819,0.005809,0.005515
"2019-04-16 11:06:13.763 +0000",1555412773.763323,0.005690,0.176209,-0.228969,0.005602,-0.175299,-0.984499,0.000000,0.000000,0.000000,-1,0.017400,0.014519,-0.020182,-0.006121,-0.006495,-0.000013
"2019-04-16 11:06:13.783 +0000",1555412773.783270,0.005121,0.176541,-0.229020,0.005041,-0.175625,-0.984444,0.000000,0.000000,0.000000,-1,-0.013531,-0.020552,0.000009,-0.007849,-0.006854,0.006325
"2019-04-16 11:06:13.803 +0000",1555412773.803270,0.004830,0.176151,-0.228944,0.004755,-0.175242,-0.984514,0.000000,0.000000,0.000000,-1,-0.032909,0.007009,0.003119,-0.002772,-0.002783,-0.002745
"2019-04-16 11:06:13.823 +0000",1555412773.823244,0.005070,0.175318,-0.228846,0.004992,-0.174421,-0.984659,0.000000,0.000000,0.000000,-1,-0.051125,0.017565,0.004130,-0.002551,-0.003222,-0.011344
"2019-04-16 11:06:13.843 +0000",1555412773.843205,0.005625,0.174276,-0.228833,0.005539,-0.173395,-0.984837,0.000000,0.000000,0.000000,-1,-0.057566,0.037665,-0.006545,-0.001343,-0.004644,-0.014522
"2019-04-16 11:06:13.863 +0000",1555412773.863188,0.006443,0.173492,-0.229056,0.006347,-0.172623,-0.984968,0.000000,0.000000,0.000000,-1,-0.038281,0.032400,-0.011814,-0.000884,-0.007065,-0.014514
"2019-04-16 11:06:13.883 +0000",1555412773.883162,0.006814,0.173138,-0.229268,0.006712,-0.172274,-0.985026,0.000000,0.000000,0.000000,-1,-0.026432,0.013319,-0.012825,0.000353,-0.003691,0.006251
"2019-04-16 11:06:13.903 +0000",1555412773.903134,0.007057,0.172790,-0.229626,0.006952,-0.171932,-0.985084,0.000000,0.000000,0.000000,-1,-0.016674,-0.008986,-0.019151,0.007315,0.001659,0.021660
"2019-04-16 11:06:13.923 +0000",1555412773.923087,0.006671,0.172364,-0.230009,0.006572,-0.171511,-0.985160,0.000000,0.000000,0.000000,-1,-0.032580,-0.038772,-0.014886,0.007130,0.001239,0.019035
"2019-04-16 11:06:13.943 +0000",1555412773.943067,0.006223,0.171623,-0.230147,0.006132,-0.170781,-0.985290,0.000000,0.000000,0.000000,-1,-0.045493,-0.037677,-0.000029,-0.000044,-0.001994,-0.010712
"2019-04-16 11:06:13.963 +0000",1555412773.963053,0.005416,0.170668,-0.229942,0.005337,-0.169840,-0.985457,0.000000,0.000000,0.000000,-1,-0.046699,-0.030152,0.016968,-0.005703,-0.001836,-0.016282
"2019-04-16 11:06:13.983 +0000",1555412773.983021,0.004820,0.169754,-0.229345,0.004751,-0.168940,-0.985615,0.000000,0.000000,0.000000,-1,-0.036261,0.005016,0.029694,-0.005086,0.001765,-0.004818
"2019-04-16 11:06:14.003 +0000",1555412774.003002,0.005539,0.169371,-0.228897,0.005459,-0.168563,-0.985676,0.000000,0.000000,0.000000,-1,-0.002247,0.060306,0.013732,-0.006787,0.008590,0.000370
"2019-04-16 11:06:14.023 +0000",1555412774.022974,0.007083,0.169481,-0.228958,0.006981,-0.168671,-0.985648,0.000000,0.000000,0.000000,-1,0.014874,0.079385,-0.006462,0.004661,0.001480,0.012045
"2019-04-16 11:06:14.043 +0000",1555412774.042945,0.009482,0.169749,-0.229125,0.009345,-0.168935,-0.985583,0.000000,0.000000,0.000000,-1,-0.005585,0.101668,0.003032,0.013299,-0.001017,0.010073
"2019-04-16 11:06:14.063 +0000",1555412774.062918,0.012382,0.169449,-0.228710,0.012204,-0.168639,-0.985602,0.000000,0.000000,0.000000,-1,-0.042264,0.134645,0.036930,0.008380,-0.001191,-0.009469
"2019-04-16 11:06:14.083 +0000",1555412774.082884,0.015641,0.168108,-0.227759,0.015420,-0.167317,-0.985783,0.000000,0.000000,0.000000,-1,-0.063922,0.176080,0.052771,0.003196,0.001943,-0.008389
"2019-04-16 11:06:14.103 +0000",1555412774.102865,0.018846,0.166953,-0.226592,0.018583,-0.166178,-0.985921,0.000000,0.000000,0.000000,-1,-0.048931,0.164471,0.056008,-0.002424,0.003611,0.003880
"2019-04-16 11:06:14.123 +0000",1555412774.122838,0.022153,0.166469,-0.225628,0.021845,-0.165701,-0.985934,0.000000,0.000000,0.000000,-1,-0.015859,0.186853,0.045410,-0.013422,0.002478,0.021533
"2019-04-16 11:06:14.143 +0000",1555412774.142783,0.024767,0.165879,-0.224926,0.024424,-0.165119,-0.985971,0.000000,0.000000,0.000000,-1,-0.006839,0.128274,0.012558,-0.019709,-0.012585,0.011636
"2019-04-16 11:06:14.163 +0000",1555412774.162784,0.025166,0.165830,-0.224675,0.024818,-0.165071,-0.985969,0.000000,0.000000,0.000000,-1,0.004379,0.025227,0.005293,-0.021629,-0.002059,0.022148
"2019-04-16 11:06:14.183 +0000",1555412774.182758,0.024565,0.165618,-0.225204,0.024226,-0.164862,-0.986019,0.000000,0.000000,0.000000,-1,-0.017194,-0.073733,-0.044580,-0.003230,-0.002115,-0.006748
"2019-04-16 11:06:14.203 +0000",1555412774.202723,0.022673,0.165103,-0.226324,0.022363,-0.164354,-0.986148,0.000000,0.000000,0.000000,-1,-0.046926,-0.106802,-0.047779,0.030417,0.000535,-0.015210
"2019-04-16 11:06:14.223 +0000",1555412774.222701,0.022119,0.164483,-0.227543,0.021819,-0.163743,-0.986262,0.000000,0.000000,0.000000,-1,0.003221,-0.065296,-0.071131,0.035066,0.006669,-0.011175
"2019-04-16 11:06:14.243 +0000",1555412774.242652,0.022447,0.165358,-0.228974,0.022139,-0.164606,-0.986111,0.000000,0.000000,0.000000,-1,0.091728,-0.058451,-0.050765,0.021425,0.010782,0.005749
"2019-04-16 11:06:14.263 +0000",1555412774.262650,0.021132,0.167212,-0.230171,0.020836,-0.166434,-0.985832,0.000000,0.000000,0.000000,-1,0.108064,-0.113675,-0.059155,0.005791,0.014563,0.002632
"2019-04-16 11:06:14.283 +0000",1555412774.282622,0.017981,0.168508,-0.231446,0.017725,-0.167711,-0.985677,0.000000,0.000000,0.000000,-1,0.056082,-0.188253,-0.060211,-0.004145,0.006121,0.012700
"2019-04-16 11:06:14.303 +0000",1555412774.302597,0.014039,0.168880,-0.232635,0.013839,-0.168078,-0.985677,0.000000,0.000000,0.000000,-1,-0.004829,-0.187418,-0.057144,-0.004622,-0.013395,-0.006847
"2019-04-16 11:06:14.323 +0000",1555412774.322568,0.011018,0.168426,-0.233627,0.010861,-0.167631,-0.985790,0.000000,0.000000,0.000000,-1,-0.043600,-0.123820,-0.055191,0.000522,-0.006762,-0.010380
"2019-04-16 11:06:14.343 +0000",1555412774.342542,0.009943,0.168780,-0.234574,0.009801,-0.167980,-0.985742,0.000000,0.000000,0.000000,-1,-0.038739,-0.052486,-0.030835,0.012721,-0.028111,0.010522
"2019-04-16 11:06:14.363 +0000",1555412774.362515,0.010045,0.168170,-0.234514,0.009903,-0.167379,-0.985843,0.000000,0.000000,0.000000,-1,-0.089904,0.067713,0.033736,-0.049561,-0.014720,0.017734
"2019-04-16 11:06:14.382 +0000",1555412774.382477,0.013915,0.165375,-0.233395,0.013725,-0.164622,-0.986261,0.000000,0.000000,0.000000,-1,-0.157326,0.282198,0.061986,-0.033988,-0.018285,0.047266
"2019-04-16 11:06:14.402 +0000",1555412774.402460,0.023608,0.163840,-0.231277,0.023289,-0.163108,-0.986333,0.000000,0.000000,0.000000,-1,-0.018173,0.613398,0.107485,-0.034932,0.019187,0.069372
