timestamp,timeIntervalSince1970,attitude.roll,attitude.pitch,attitude.yaw,gravity.x,gravity.y,gravity.z,magneticField.x,magneticField.y,magneticField.z,magneticField.accuracy,rotationRate.x,rotationRate.y,rotationRate.z,userAcceleration.x,userAcceleration.y,userAcceleration.z
"2019-04-16 11:00:23.166 +0000",1555412423.165584,-0.158969,0.569034,0.083331,-0.133355,-0.538818,-0.831800,0.000000,0.000000,0.000000,-1,-0.352431,-0.081059,-0.651435,0.145044,0.054947,0.158384
"2019-04-16 11:00:23.186 +0000",1555412423.185631,-0.152026,0.563699,0.064730,-0.128011,-0.534316,-0.835535,0.000000,0.000000,0.000000,-1,-0.401508,-0.176397,-0.814878,0.117956,0.094512,0.103510
"2019-04-16 11:00:23.206 +0000",1555412423.205681,-0.143557,0.557199,0.041442,-0.121425,-0.528811,-0.840009,0.000000,0.000000,0.000000,-1,-0.557042,-0.231260,-1.067254,0.033320,0.137469,0.072385
"2019-04-16 11:00:23.226 +0000",1555412423.225731,-0.132701,0.547526,0.010605,-0.112970,-0.520577,-0.846308,0.000000,0.000000,0.000000,-1,-0.764829,-0.261022,-1.377447,-0.005484,0.122582,0.054667
"2019-04-16 11:00:23.246 +0000",1555412423.245782,-0.119732,0.533326,-0.024503,-0.102858,-0.508400,-0.854956,0.000000,0.000000,0.000000,-1,-1.018885,-0.248062,-1.363144,0.072340,0.107521,0.104712
"2019-04-16 11:00:23.266 +0000",1555412423.265830,-0.107904,0.514323,-0.055743,-0.093762,-0.491946,-0.865562,0.000000,0.000000,0.000000,-1,-1.140383,-0.069554,-1.089130,0.111309,0.089602,0.120262
"2019-04-16 11:00:23.286 +0000",1555412423.285878,-0.092056,0.493314,-0.081128,-0.080966,-0.473547,-0.877039,0.000000,0.000000,0.000000,-1,-1.198364,0.413270,-0.923040,0.023196,0.047430,0.144739
"2019-04-16 11:00:23.306 +0000",1555412423.305927,-0.071933,0.468729,-0.106175,-0.064119,-0.451752,-0.889836,0.000000,0.000000,0.000000,-1,-1.400414,0.365106,-1.165927,0.034196,0.031678,0.158955
"2019-04-16 11:00:23.326 +0000",1555412423.325976,-0.052250,0.445502,-0.137966,-0.047129,-0.430911,-0.901163,0.000000,0.000000,0.000000,-1,-0.956911,0.259011,-1.460545,0.100931,0.018588,0.073282
"2019-04-16 11:00:23.346 +0000",1555412423.346025,-0.031698,0.435802,-0.168701,-0.028730,-0.422138,-0.906076,0.000000,0.000000,0.000000,-1,-0.164415,0.444676,-1.193852,0.147749,0.071781,0.000040
"2019-04-16 11:00:23.366 +0000",1555412423.366074,-0.016223,0.437261,-0.190218,-0.014696,-0.423460,-0.905796,0.000000,0.000000,0.000000,-1,0.178894,0.102111,-0.763435,0.133852,0.131223,0.011005
"2019-04-16 11:00:23.386 +0000",1555412423.386123,-0.012526,0.437891,-0.205208,-0.011344,-0.424031,-0.905577,0.000000,0.000000,0.000000,-1,-0.228421,-0.337462,-0.697921,0.135184,0.088261,0.109938
"2019-04-16 11:00:23.406 +0000",1555412423.406172,-0.010244,0.428053,-0.225974,-0.009320,-0.415100,-0.909728,0.000000,0.000000,0.000000,-1,-0.715939,-0.160284,-1.241775,0.068158,-0.014984,0.126906
"2019-04-16 11:00:23.426 +0000",1555412423.426222,-0.001987,0.413423,-0.253691,-0.001819,-0.401746,-0.915749,0.000000,0.000000,0.000000,-1,-0.692053,-0.270875,-1.123095,-0.032162,0.101102,0.167367
"2019-04-16 11:00:23.446 +0000",1555412423.446270,-0.001585,0.400796,-0.273339,-0.001459,-0.390152,-0.920749,0.000000,0.000000,0.000000,-1,-0.568619,-0.442338,-0.692290,0.096262,-0.141785,-0.045590
"2019-04-16 11:00:23.466 +0000",1555412423.466320,-0.002399,0.392121,-0.287341,-0.002217,-0.382149,-0.924098,0.000000,0.000000,0.000000,-1,-0.281284,-0.150695,-0.602081,0.006932,-0.049049,-0.032460
"2019-04-16 11:00:23.486 +0000",1555412423.486370,0.000670,0.390840,-0.300464,0.000619,-0.380965,-0.924589,0.000000,0.000000,0.000000,-1,-0.002507,0.152783,-0.674224,0.038825,0.158675,-0.003511
"2019-04-16 11:00:23.506 +0000",1555412423.506419,-0.014397,0.388997,-0.305341,-0.013321,-0.379260,-0.925194,0.000000,0.000000,0.000000,-1,0.161280,-0.536078,-0.345453,0.202240,-0.150357,-0.120750
"2019-04-16 11:00:23.526 +0000",1555412423.526468,-0.020735,0.392758,-0.313330,-0.019155,-0.382738,-0.923658,0.000000,0.000000,0.000000,-1,0.066295,-0.012251,-0.623737,0.119634,0.116076,0.052015
"2019-04-16 11:00:23.547 +0000",1555412423.546517,-0.008549,0.391968,-0.329025,-0.007901,-0.382008,-0.924125,0.000000,0.000000,0.000000,-1,-0.215719,0.505986,-0.693177,0.185086,0.098621,0.029030
"2019-04-16 11:00:23.567 +0000",1555412423.566567,0.004888,0.385447,-0.340208,0.004529,-0.375973,-0.926620,0.000000,0.000000,0.000000,-1,-0.455047,0.356519,-0.344461,0.133395,-0.078220,0.002685
"2019-04-16 11:00:23.587 +0000",1555412423.586615,0.006207,0.376832,-0.343605,0.005771,-0.367976,-0.929817,0.000000,0.000000,0.000000,-1,-0.365089,-0.218202,-0.011688,0.051694,-0.231206,-0.193626
"2019-04-16 11:00:23.607 +0000",1555412423.606665,0.001685,0.370817,-0.341512,0.001571,-0.362377,-0.932030,0.000000,0.000000,0.000000,-1,-0.394433,-0.015248,0.108761,0.033280,-0.359623,-0.205955
"2019-04-16 11:00:23.627 +0000",1555412423.626713,0.005490,0.363405,-0.340390,0.005131,-0.355459,-0.934678,0.000000,0.000000,0.000000,-1,-0.236112,0.263815,0.084390,-0.041371,-0.228114,-0.139526
"2019-04-16 11:00:23.647 +0000",1555412423.646762,0.004617,0.365999,-0.334787,0.004311,-0.357882,-0.933757,0.000000,0.000000,0.000000,-1,0.366881,-0.004015,0.370167,-0.042886,-0.327024,-0.332189
"2019-04-16 11:00:23.667 +0000",1555412423.666811,0.005067,0.377385,-0.328169,0.004710,-0.368491,-0.929619,0.000000,0.000000,0.000000,-1,0.715405,0.289410,0.280052,-0.093303,-0.004632,-0.277885
"2019-04-16 11:00:23.687 +0000",1555412423.686861,0.006942,0.391844,-0.317315,0.006416,-0.381893,-0.924184,0.000000,0.000000,0.000000,-1,0.513292,0.356702,0.721608,0.008187,0.078014,-0.224589
"2019-04-16 11:00:23.707 +0000",1555412423.706910,0.005035,0.396152,-0.298032,0.004645,-0.385871,-0.922541,0.000000,0.000000,0.000000,-1,-0.059747,0.080554,0.955315,-0.013999,0.107841,-0.011648
"2019-04-16 11:00:23.727 +0000",1555412423.726959,-0.003930,0.391950,-0.279575,-0.003632,-0.381991,-0.924159,0.000000,0.000000,0.000000,-1,-0.528774,-0.157423,0.620058,0.054047,0.007830,0.071208
"2019-04-16 11:00:23.747 +0000",1555412423.747009,-0.008827,0.371494,-0.269388,-0.008225,-0.363008,-0.931750,0.000000,0.000000,0.000000,-1,-1.400196,0.054104,0.435100,-0.179916,-0.150588,0.102633
"2019-04-16 11:00:23.767 +0000",1555412423.767058,-0.014224,0.342777,-0.256793,-0.013396,-0.336104,-0.941730,0.000000,0.000000,0.000000,-1,-1.399396,-0.160311,0.765245,-0.094896,-0.167650,0.040423
"2019-04-16 11:00:23.787 +0000",1555412423.787107,-0.025684,0.317051,-0.239798,-0.024401,-0.311766,-0.949846,0.000000,0.000000,0.000000,-1,-1.217805,-0.432078,0.777650,-0.099927,-0.193285,0.057527
"2019-04-16 11:00:23.807 +0000",1555412423.807156,-0.038537,0.290516,-0.229508,-0.036913,-0.286447,-0.957385,0.000000,0.000000,0.000000,-1,-1.564977,-0.532999,0.256782,-0.274153,-0.265433,0.119220
"2019-04-16 11:00:23.827 +0000",1555412423.827204,-0.053001,0.255166,-0.229270,-0.051261,-0.252406,-0.966263,0.000000,0.000000,0.000000,-1,-1.957425,-0.866633,-0.001322,-0.186441,-0.145863,0.144943
"2019-04-16 11:00:23.847 +0000",1555412423.847254,-0.065375,0.214811,-0.230493,-0.063827,-0.213163,-0.974930,0.000000,0.000000,0.000000,-1,-2.131622,-0.121007,0.115157,-0.038941,-0.015216,0.183914
"2019-04-16 11:00:23.867 +0000",1555412423.867303,-0.064075,0.175050,-0.230266,-0.063053,-0.174158,-0.982697,0.000000,0.000000,0.000000,-1,-1.848388,0.080590,0.108243,-0.129620,0.111795,-0.111251
"2019-04-16 11:00:23.887 +0000",1555412423.887352,-0.062086,0.143101,-0.234256,-0.061412,-0.142613,-0.987871,0.000000,0.000000,0.000000,-1,-1.474417,0.059244,-0.310490,-0.208379,0.082127,-0.115659
"2019-04-16 11:00:23.907 +0000",1555412423.907402,-0.062050,0.118693,-0.243134,-0.061574,-0.118414,-0.991053,0.000000,0.000000,0.000000,-1,-0.933225,-0.168500,-0.382648,-0.104167,0.029364,-0.088903
"2019-04-16 11:00:23.927 +0000",1555412423.927451,-0.064011,0.105519,-0.254261,-0.063612,-0.105324,-0.992401,0.000000,0.000000,0.000000,-1,-0.734940,-0.113139,-0.663051,-0.036272,-0.017693,0.112351
"2019-04-16 11:00:23.947 +0000",1555412423.947500,-0.061398,0.091058,-0.269703,-0.061105,-0.090933,-0.993981,0.000000,0.000000,0.000000,-1,-0.822602,0.160382,-0.722209,0.059244,0.005834,0.228447
"2019-04-16 11:00:23.968 +0000",1555412423.967549,-0.057519,0.073901,-0.287329,-0.057330,-0.073834,-0.995621,0.000000,0.000000,0.000000,-1,-1.125135,0.171168,-0.966460,0.125232,-0.013721,0.303376
"2019-04-16 11:00:23.988 +0000",1555412423.987598,-0.047218,0.052960,-0.306587,-0.047135,-0.052935,-0.997485,0.000000,0.000000,0.000000,-1,-1.036134,0.697815,-0.848090,0.339218,0.153567,0.221057
"2019-04-16 11:00:24.008 +0000",1555412424.007648,-0.027484,0.036453,-0.324920,-0.027462,-0.036445,-0.998958,0.000000,0.000000,0.000000,-1,-0.853790,1.326958,-0.891884,0.263927,0.090583,0.289470
"2019-04-16 11:00:24.028 +0000",1555412424.027697,0.006361,0.020938,-0.334650,0.006359,-0.020937,-0.999761,0.000000,0.000000,0.000000,-1,-0.747320,2.147897,-0.068869,0.425525,0.158525,0.357823
"2019-04-16 11:00:24.048 +0000",1555412424.047745,0.053697,0.008902,-0.333234,0.053669,-0.008902,-0.998519,0.000000,0.000000,0.000000,-1,-0.570876,2.337050,0.100163,0.397365,0.207190,0.151778
"2019-04-16 11:00:24.068 +0000",1555412424.067794,0.097568,-0.001013,-0.331451,0.097413,0.001013,-0.995244,0.000000,0.000000,0.000000,-1,-0.444024,2.188990,-0.029693,0.330230,0.333612,0.033986
"2019-04-16 11:00:24.088 +0000",1555412424.087844,0.152100,-0.007151,-0.334117,0.151510,0.007151,-0.988430,0.000000,0.000000,0.000000,-1,-0.197295,3.479027,-0.329046,0.122187,0.354467,0.216915
"2019-04-16 11:00:24.108 +0000",1555412424.107894,0.231774,-0.010111,-0.342596,0.229693,0.010111,-0.973211,0.000000,0.000000,0.000000,-1,0.017223,4.386531,-0.558782,0.071088,0.321066,0.249135
"2019-04-16 11:00:24.128 +0000",1555412424.127942,0.326583,-0.014062,-0.356523,0.320777,0.014062,-0.947050,0.000000,0.000000,0.000000,-1,-0.161427,5.221774,-0.942163,-0.111320,0.323356,0.405058
"2019-04-16 11:00:24.148 +0000",1555412424.147991,0.429167,-0.030659,-0.373997,0.415918,0.030654,-0.908886,0.000000,0.000000,0.000000,-1,-0.741449,4.574440,-1.254968,-0.137597,0.268388,0.330226
"2019-04-16 11:00:24.168 +0000",1555412424.168040,0.495879,-0.061920,-0.389035,0.474893,0.061880,-0.877865,0.000000,0.000000,0.000000,-1,-1.368874,2.122179,-1.503544,-0.056757,0.232904,0.002209
"2019-04-16 11:00:24.188 +0000",1555412424.188090,0.522902,-0.106155,-0.400763,0.496585,0.105956,-0.861497,0.000000,0.000000,0.000000,-1,-1.850281,1.031146,-1.649178,-0.136417,0.147096,0.055833
"2019-04-16 11:00:24.208 +0000",1555412424.208139,0.550090,-0.156540,-0.412493,0.516372,0.155902,-0.842054,0.000000,0.000000,0.000000,-1,-1.789710,2.061710,-1.972300,-0.236602,0.109372,0.096265
"2019-04-16 11:00:24.228 +0000",1555412424.228189,0.598901,-0.209254,-0.434086,0.551438,0.207730,-0.807939,0.000000,0.000000,0.000000,-1,-1.533296,2.851593,-2.666384,-0.486817,0.236362,0.058686
"2019-04-16 11:00:24.248 +0000",1555412424.248236,0.643670,-0.272066,-0.463582,0.578061,0.268722,-0.770477,0.000000,0.000000,0.000000,-1,-1.937418,2.283540,-3.287432,-0.357663,0.265656,-0.155747
"2019-04-16 11:00:24.268 +0000",1555412424.268288,0.669959,-0.346533,-0.496271,0.584042,0.339639,-0.737252,0.000000,0.000000,0.000000,-1,-1.914249,1.296517,-3.702057,-0.181896,0.238700,-0.524299
"2019-04-16 11:00:24.288 +0000",1555412424.288336,0.673609,-0.421340,-0.539145,0.569253,0.408983,-0.713220,0.000000,0.000000,0.000000,-1,-1.448467,0.752327,-3.988818,0.006308,0.231382,-0.664404
"2019-04-16 11:00:24.308 +0000",1555412424.308385,0.662342,-0.492847,-0.590146,0.541778,0.473136,-0.694708,0.000000,0.000000,0.000000,-1,-1.443805,0.346863,-3.938313,0.276459,0.109948,-0.520029
"2019-04-16 11:00:24.328 +0000",1555412424.328434,0.641964,-0.563990,-0.635179,0.506038,0.534562,-0.676882,0.000000,0.000000,0.000000,-1,-1.776060,-0.088350,-3.453994,0.605458,-0.078508,-0.511549
"2019-04-16 11:00:24.348 +0000",1555412424.348483,0.614206,-0.630490,-0.675243,0.465508,0.589540,-0.660110,0.000000,0.000000,0.000000,-1,-1.574450,-0.395750,-3.151041,0.712852,-0.080477,-0.740159
"2019-04-16 11:00:24.369 +0000",1555412424.368533,0.577536,-0.686798,-0.718712,0.422181,0.634065,-0.647862,0.000000,0.000000,0.000000,-1,-1.128669,-0.657464,-2.784502,0.854400,-0.038651,-0.744777
"2019-04-16 11:00:24.389 +0000",1555412424.388581,0.535867,-0.729048,-0.758343,0.380800,0.666160,-0.641266,0.000000,0.000000,0.000000,-1,-0.922225,-0.946051,-1.965751,1.000944,-0.250770,-0.573761
"2019-04-16 11:00:24.409 +0000",1555412424.408631,0.497013,-0.761822,-0.784866,0.345004,0.690241,-0.636034,0.000000,0.000000,0.000000,-1,-1.006274,-1.002745,-1.412743,0.795148,-0.282877,-0.344785
"2019-04-16 11:00:24.429 +0000",1555412424.428680,0.474250,-0.796000,-0.802483,0.319474,0.714563,-0.622363,0.000000,0.000000,0.000000,-1,-1.410871,0.098296,-1.349435,0.488753,-0.190958,0.009463
"2019-04-16 11:00:24.449 +0000",1555412424.448730,0.477941,-0.834596,-0.820734,0.308847,0.741025,-0.596234,0.000000,0.000000,0.000000,-1,-1.308198,1.553778,-1.560637,0.334677,-0.025648,-0.115665
"2019-04-16 11:00:24.469 +0000",1555412424.468778,0.495554,-0.868921,-0.855036,0.307019,0.763633,-0.567983,0.000000,0.000000,0.000000,-1,-0.690617,2.957119,-2.023601,0.239902,0.121713,-0.305583
"2019-04-16 11:00:24.489 +0000",1555412424.488828,0.535086,-0.899253,-0.904282,0.317266,0.782863,-0.535227,0.000000,0.000000,0.000000,-1,-0.363232,4.294769,-2.023773,0.302164,0.068349,-0.201238
"2019-04-16 11:00:24.509 +0000",1555412424.508878,0.574561,-0.918903,-0.950813,0.329717,0.794936,-0.509277,0.000000,0.000000,0.000000,-1,0.192506,3.076594,-1.358300,0.591304,-0.052367,-0.770508
"2019-04-16 11:00:24.529 +0000",1555412424.528927,0.590141,-0.920698,-0.982617,0.336817,0.796024,-0.502892,0.000000,0.000000,0.000000,-1,0.680004,1.158562,-0.371039,0.665732,-0.109348,-0.914604
"2019-04-16 11:00:24.549 +0000",1555412424.548976,0.596601,-0.907215,-0.999036,0.346057,0.787791,-0.509538,0.000000,0.000000,0.000000,-1,0.983737,1.077561,0.209659,0.306317,-0.091426,-0.478408
"2019-04-16 11:00:24.569 +0000",1555412424.569025,0.619880,-0.888257,-1.012559,0.366436,0.775973,-0.513411,0.000000,0.000000,0.000000,-1,0.983649,2.384960,0.045297,-0.204906,-0.002749,-0.002397
"2019-04-16 11:00:24.589 +0000",1555412424.589075,0.670384,-0.877282,-1.030998,0.397154,0.769004,-0.500901,0.000000,0.000000,0.000000,-1,0.637973,3.983116,-0.261113,-0.368101,0.009133,0.234482
"2019-04-16 11:00:24.609 +0000",1555412424.609123,0.735550,-0.869869,-1.055808,0.432743,0.764244,-0.478189,0.000000,0.000000,0.000000,-1,1.050239,4.228500,-0.454619,-0.314563,0.029991,-0.173484
"2019-04-16 11:00:24.629 +0000",1555412424.629173,0.788260,-0.856822,-1.096553,0.464367,0.755765,-0.461717,0.000000,0.000000,0.000000,-1,1.695340,4.118495,-0.551165,-0.341381,0.017001,-0.241286
"2019-04-16 11:00:24.649 +0000",1555412424.649222,0.831513,-0.841324,-1.149075,0.492494,0.745526,-0.449044,0.000000,0.000000,0.000000,-1,1.406546,4.378632,-0.737900,-0.398606,-0.019559,0.057748
"2019-04-16 11:00:24.669 +0000",1555412424.669271,0.910619,-0.856507,-1.163941,0.517437,0.755559,-0.401733,0.000000,0.000000,0.000000,-1,-0.999739,3.890471,-1.003082,-0.503567,-0.031377,1.891799
"2019-04-16 11:00:24.689 +0000",1555412424.689321,0.979042,-0.880406,-1.167716,0.528552,0.770997,-0.355240,0.000000,0.000000,0.000000,-1,-0.216157,3.729050,-0.972161,-0.213672,0.104277,0.204605
"2019-04-16 11:00:24.709 +0000",1555412424.709369,1.044579,-0.895376,-1.180003,0.540641,0.780444,-0.314030,0.000000,0.000000,0.000000,-1,-0.165559,3.562016,-0.802113,-0.072761,0.095456,0.135364
"2019-04-16 11:00:24.729 +0000",1555412424.729419,1.108552,-0.915632,-1.181159,0.545347,0.792948,-0.271718,0.000000,0.000000,0.000000,-1,-0.593871,2.964071,-0.950116,-0.249784,-0.061289,0.454899
"2019-04-16 11:00:24.749 +0000",1555412424.749468,1.171362,-0.932023,-1.177317,0.549278,0.802828,-0.231865,0.000000,0.000000,0.000000,-1,-0.329115,3.167230,-0.437006,0.044380,-0.304231,0.097313
"2019-04-16 11:00:24.770 +0000",1555412424.769518,1.244042,-0.938057,-1.169172,0.560067,0.806411,-0.189808,0.000000,0.000000,0.000000,-1,-0.379511,3.229491,-0.103991,0.086006,-0.193206,0.171421
"2019-04-16 11:00:24.790 +0000",1555412424.789567,1.303857,-0.944761,-1.159613,0.565185,0.810357,-0.154559,0.000000,0.000000,0.000000,-1,-0.382458,1.748240,-0.446764,-0.174789,0.009895,-0.201932
"2019-04-16 11:00:24.810 +0000",1555412424.809616,1.328143,-0.955486,-1.150977,0.560302,0.816594,-0.138692,0.000000,0.000000,0.000000,-1,-0.377140,0.193571,-0.353755,0.103669,-0.033193,-0.277141
"2019-04-16 11:00:24.830 +0000",1555412424.829664,1.337856,-0.961328,-1.140245,0.556971,0.819953,-0.132140,0.000000,0.000000,0.000000,-1,-0.315499,0.012449,-0.116390,0.139516,-0.140692,-0.028856
"2019-04-16 11:00:24.850 +0000",1555412424.849714,1.332303,-0.968519,-1.149834,0.550485,0.824048,-0.133834,0.000000,0.000000,0.000000,-1,0.552350,0.276383,-0.587490,-0.402429,0.251438,-0.289506
"2019-04-16 11:00:24.870 +0000",1555412424.869764,1.322293,-0.978792,-1.169714,0.540884,0.829824,-0.137248,0.000000,0.000000,0.000000,-1,0.284121,0.338018,-0.792180,-0.122686,0.323344,0.282268
"2019-04-16 11:00:24.890 +0000",1555412424.889812,1.317236,-0.995336,-1.185765,0.526820,0.838942,-0.136519,0.000000,0.000000,0.000000,-1,0.165892,0.413097,-1.056307,0.110479,0.194841,0.024748
"2019-04-16 11:00:24.910 +0000",1555412424.909863,1.318997,-1.014938,-1.198066,0.511033,0.849448,-0.131468,0.000000,0.000000,0.000000,-1,-0.123891,0.841591,-0.851246,0.056793,0.109918,0.110960
"2019-04-16 11:00:24.930 +0000",1555412424.929911,1.350222,-1.027631,-1.180540,0.504327,0.856077,-0.113081,0.000000,0.000000,0.000000,-1,-1.000841,0.514988,-0.152658,-0.016625,-0.120878,0.311705
"2019-04-16 11:00:24.950 +0000",1555412424.949961,1.392587,-1.030775,-1.133861,0.506012,0.857698,-0.091143,0.000000,0.000000,0.000000,-1,-1.358953,-0.089256,0.328519,-0.154327,-0.033052,-0.009153
"2019-04-16 11:00:24.970 +0000",1555412424.970010,1.447629,-1.024737,-1.081373,0.515389,0.854578,-0.063802,0.000000,0.000000,0.000000,-1,-1.070627,1.094879,0.691452,0.202674,-0.052133,-0.076457
"2019-04-16 11:00:24.990 +0000",1555412424.990059,1.501260,-1.009171,-1.046808,0.531276,0.846391,-0.037002,0.000000,0.000000,0.000000,-1,-0.683334,1.152041,0.916643,0.401708,0.031310,-0.143524
"2019-04-16 11:00:25.010 +0000",1555412425.010108,1.539475,-0.994622,-1.025601,0.544553,0.838553,-0.017062,0.000000,0.000000,0.000000,-1,-0.354649,0.911958,0.607953,0.419543,0.099252,0.086520
"2019-04-16 11:00:25.030 +0000",1555412425.030157,1.561591,-0.987048,-1.012714,0.551132,0.834403,-0.005073,0.000000,0.000000,0.000000,-1,-0.384804,-0.026115,0.125880,-0.050247,-0.179877,0.212150
"2019-04-16 11:00:25.050 +0000",1555412425.050206,1.557814,-0.994275,-1.001144,0.545065,0.838364,-0.007076,0.000000,0.000000,0.000000,-1,-0.312555,-1.407321,-0.837234,-0.788427,0.026397,-0.065784
"2019-04-16 11:00:25.070 +0000",1555412425.070255,1.542666,-1.011554,-0.984600,0.530334,0.847657,-0.014923,0.000000,0.000000,0.000000,-1,-0.544807,-0.940229,-0.891560,-0.798141,0.051146,0.240600
"2019-04-16 11:00:25.090 +0000",1555412425.090304,1.545052,-1.028026,-0.980101,0.516339,0.856281,-0.013296,0.000000,0.000000,0.000000,-1,0.103289,0.607696,-0.698859,-0.438748,0.390423,-0.230707
"2019-04-16 11:00:25.110 +0000",1555412425.110354,1.550425,-1.037074,-0.985018,0.508636,0.860919,-0.010363,0.000000,0.000000,0.000000,-1,0.303942,0.245145,-0.216459,0.153275,0.211240,0.003466
"2019-04-16 11:00:25.130 +0000",1555412425.130403,1.534901,-1.037751,-1.004488,0.507831,0.861263,-0.018237,0.000000,0.000000,0.000000,-1,0.719599,-0.037091,0.092353,0.235180,0.257969,-0.018491
"2019-04-16 11:00:25.150 +0000",1555412425.150452,1.501880,-1.033856,-1.041679,0.510295,0.859278,-0.035224,0.000000,0.000000,0.000000,-1,1.146132,0.113020,0.146708,0.007664,0.265234,-0.184091
"2019-04-16 11:00:25.171 +0000",1555412425.170502,1.469139,-1.029515,-1.089803,0.512574,0.857049,-0.052287,0.000000,0.000000,0.000000,-1,1.282190,0.634964,0.036667,-0.071763,0.095130,-0.129872
"2019-04-16 11:00:25.191 +0000",1555412425.190551,1.442536,-1.029069,-1.135211,0.511382,0.856819,-0.065952,0.000000,0.000000,0.000000,-1,0.997496,0.504639,-0.329176,-0.052504,-0.054863,-0.321117
"2019-04-16 11:00:25.211 +0000",1555412425.210600,1.420542,-1.038506,-1.166935,0.501790,0.861647,-0.075969,0.000000,0.000000,0.000000,-1,0.467189,-0.059557,-0.825598,0.232798,0.176820,-0.462850
"2019-04-16 11:00:25.231 +0000",1555412425.230650,1.401342,-1.057790,-1.182546,0.483769,0.871273,-0.082771,0.000000,0.000000,0.000000,-1,0.090354,-0.445310,-1.103914,0.023967,0.315449,-0.214913
"2019-04-16 11:00:25.251 +0000",1555412425.250698,1.379508,-1.076702,-1.195959,0.465584,0.880399,-0.090163,0.000000,0.000000,0.000000,-1,0.269393,-0.445798,-0.804450,-0.122307,0.060443,-0.004212
"2019-04-16 11:00:25.271 +0000",1555412425.270749,1.356156,-1.085920,-1.216092,0.455404,0.884733,-0.099277,0.000000,0.000000,0.000000,-1,0.416819,-0.209624,-0.270301,-0.317144,-0.052305,0.198414
"2019-04-16 11:00:25.291 +0000",1555412425.290796,1.335669,-1.087074,-1.230284,0.452281,0.885270,-0.108347,0.000000,0.000000,0.000000,-1,0.160496,-0.743925,0.056233,-0.074305,-0.007615,0.201197
"2019-04-16 11:00:25.311 +0000",1555412425.310847,1.312726,-1.084834,-1.232557,0.451592,0.884226,-0.119201,0.000000,0.000000,0.000000,-1,0.093370,-1.261801,0.177123,0.236869,0.127997,0.087112
"2019-04-16 11:00:25.331 +0000",1555412425.330895,1.288464,-1.077868,-1.235704,0.454473,0.880951,-0.131834,0.000000,0.000000,0.000000,-1,0.332884,-0.725878,0.454982,0.306681,-0.052780,0.089247
"2019-04-16 11:00:25.351 +0000",1555412425.350945,1.276831,-1.067040,-1.242645,0.462011,0.875776,-0.139868,0.000000,0.000000,0.000000,-1,0.247499,-0.147546,0.607049,-0.242162,-0.257062,0.097463
"2019-04-16 11:00:25.371 +0000",1555412425.370995,1.249241,-1.052666,-1.255777,0.469872,0.868747,-0.156522,0.000000,0.000000,0.000000,-1,1.393310,-2.504460,1.093305,-0.203240,-0.527347,-0.387667
"2019-04-16 11:00:25.391 +0000",1555412425.391044,1.175367,-1.032031,-1.266447,0.473483,0.858343,-0.197639,0.000000,0.000000,0.000000,-1,-0.735910,-2.772781,0.547795,0.213956,-0.814169,0.140053
"2019-04-16 11:00:25.411 +0000",1555412425.411093,1.176021,-1.029677,-1.244713,0.475476,0.857133,-0.198106,0.000000,0.000000,0.000000,-1,0.191703,0.685148,0.370282,-0.462781,-0.654267,0.828141
"2019-04-16 11:00:25.431 +0000",1555412425.431143,1.189103,-1.014170,-1.254900,0.490304,0.849042,-0.196797,0.000000,0.000000,0.000000,-1,0.726201,1.148405,0.748252,0.097480,-0.775052,0.181523
"2019-04-16 11:00:25.451 +0000",1555412425.451192,1.185782,-0.997545,-1.276033,0.502661,0.840142,-0.203697,0.000000,0.000000,0.000000,-1,0.981222,-0.198559,0.149729,-0.453116,-0.374856,-0.192741
"2019-04-16 11:00:25.471 +0000",1555412425.471241,1.152255,-0.996907,-1.300995,0.496040,0.839796,-0.220651,0.000000,0.000000,0.000000,-1,0.521928,-0.793498,-0.475709,-0.716423,-0.005064,-0.496314
"2019-04-16 11:00:25.491 +0000",1555412425.491291,1.122559,-1.007103,-1.334396,0.481528,0.845288,-0.231559,0.000000,0.000000,0.000000,-1,0.995002,0.249551,-0.733730,-0.626746,0.055317,0.192496
"2019-04-16 11:00:25.511 +0000",1555412425.511338,1.083009,-1.024507,-1.374128,0.458930,0.854458,-0.243485,0.000000,0.000000,0.000000,-1,-0.171834,-0.471756,-1.615013,-0.092612,0.088260,0.033478
"2019-04-16 11:00:25.531 +0000",1555412425.531389,1.074397,-1.063102,-1.371529,0.427485,0.873868,-0.231542,0.000000,0.000000,0.000000,-1,-1.618562,-0.906220,-1.753948,0.357397,0.188480,-0.008189
"2019-04-16 11:00:25.551 +0000",1555412425.551438,1.076653,-1.110160,-1.331143,0.391343,0.895770,-0.210825,0.000000,0.000000,0.000000,-1,-2.046269,-2.146739,-1.452951,0.745086,0.474454,-0.033193
"2019-04-16 11:00:25.571 +0000",1555412425.571487,1.075225,-1.144945,-1.297962,0.363400,0.910687,-0.196442,0.000000,0.000000,0.000000,-1,-0.770665,-0.775794,-1.130393,0.618808,0.465305,0.176254
"2019-04-16 11:00:25.592 +0000",1555412425.591537,1.059811,-1.166056,-1.310523,0.343480,0.919205,-0.192573,0.000000,0.000000,0.000000,-1,0.078239,0.042670,-1.041301,0.281322,0.298767,0.203437
"2019-04-16 11:00:25.612 +0000",1555412425.611586,1.026649,-1.183431,-1.344518,0.323191,0.925908,-0.195557,0.000000,0.000000,0.000000,-1,0.045913,-0.389848,-1.116882,0.080724,-0.012288,0.089203
"2019-04-16 11:00:25.632 +0000",1555412425.631635,0.986223,-1.206023,-1.372909,0.297500,0.934205,-0.196863,0.000000,0.000000,0.000000,-1,-0.353947,-1.021523,-1.273332,0.066758,-0.039002,0.052576
"2019-04-16 11:00:25.652 +0000",1555412425.651685,0.953067,-1.233443,-1.386412,0.269822,0.943634,-0.191705,0.000000,0.000000,0.000000,-1,-0.763652,-0.946151,-1.274417,0.126113,-0.024017,-0.058722
"2019-04-16 11:00:25.672 +0000",1555412425.671735,0.948239,-1.263244,-1.371257,0.245932,0.953077,-0.176524,0.000000,0.000000,0.000000,-1,-1.408518,-0.924772,-0.822191,-0.028098,-0.204863,-0.117253
"2019-04-16 11:00:25.692 +0000",1555412425.691783,0.978377,-1.291910,-1.334499,0.228375,0.961363,-0.153711,0.000000,0.000000,0.000000,-1,-0.894981,0.662481,-0.942754,-0.417034,0.224505,0.135171
"2019-04-16 11:00:25.712 +0000",1555412425.711833,1.002535,-1.315238,-1.329833,0.213058,0.967522,-0.136041,0.000000,0.000000,0.000000,-1,-0.574279,0.856381,-0.891900,-0.266586,0.689506,-0.018897
"2019-04-16 11:00:25.732 +0000",1555412425.731881,1.030907,-1.333139,-1.313545,0.201940,0.971892,-0.121019,0.000000,0.000000,0.000000,-1,-0.656067,0.458152,-0.349312,-0.076117,0.652314,-0.057189
"2019-04-16 11:00:25.752 +0000",1555412425.751932,1.100480,-1.341141,-1.246593,0.202926,0.973745,-0.103160,0.000000,0.000000,0.000000,-1,-0.987477,-0.029000,0.269605,-0.118804,0.470271,0.145778
"2019-04-16 11:00:25.772 +0000",1555412425.771981,1.200494,-1.341839,-1.139629,0.211579,0.973904,-0.082137,0.000000,0.000000,0.000000,-1,-1.292040,-0.348444,0.589450,-0.251053,0.215672,0.225264
"2019-04-16 11:00:25.792 +0000",1555412425.792030,1.330112,-1.338564,-0.998336,0.223517,0.973155,-0.054860,0.000000,0.000000,0.000000,-1,-1.546822,-0.401677,0.525843,-0.203604,0.327992,0.154088
"2019-04-16 11:00:25.812 +0000",1555412425.812080,1.439291,-1.333994,-0.877573,0.232569,0.972093,-0.030762,0.000000,0.000000,0.000000,-1,-1.126006,-0.282051,0.385847,-0.215495,0.094542,-0.204956
"2019-04-16 11:00:25.832 +0000",1555412425.832128,1.552456,-1.322226,-0.764746,0.245976,0.969265,-0.004512,0.000000,0.000000,0.000000,-1,-1.277980,0.416020,0.808907,0.200404,0.458790,0.010112
"2019-04-16 11:00:25.852 +0000",1555412425.852179,1.629483,-1.316108,-0.693248,0.251510,0.967742,0.014777,0.000000,0.000000,0.000000,-1,-0.626316,0.227286,-0.110922,-0.086944,-0.265777,-0.017585
"2019-04-16 11:00:25.872 +0000",1555412425.872227,1.673442,-1.321656,-0.653312,0.245273,0.969125,0.025265,0.000000,0.000000,0.000000,-1,-0.276739,0.979081,-0.504661,0.059354,0.149970,-0.041729
"2019-04-16 11:00:25.892 +0000",1555412425.892277,1.730673,-1.331764,-0.597721,0.233743,0.971568,0.037692,0.000000,0.000000,0.000000,-1,-0.668480,-0.255312,-0.504727,-0.016107,0.012670,-0.228213
"2019-04-16 11:00:25.912 +0000",1555412425.912326,1.803833,-1.337911,-0.520264,0.224548,0.973005,0.053296,0.000000,0.000000,0.000000,-1,-0.960325,-0.147865,-0.475639,-0.220901,0.062640,0.089114
"2019-04-16 11:00:25.932 +0000",1555412425.932375,1.885216,-1.343497,-0.436863,0.214300,0.974278,0.069692,0.000000,0.000000,0.000000,-1,-0.651610,0.330030,-0.568126,-0.139303,-0.126851,-0.022878
"2019-04-16 11:00:25.952 +0000",1555412425.952424,1.958360,-1.349494,-0.368336,0.203221,0.975612,0.082957,0.000000,0.000000,0.000000,-1,-0.407163,0.452588,-0.639154,-0.031666,-0.144359,0.009359
"2019-04-16 11:00:25.972 +0000",1555412425.972474,2.009085,-1.356038,-0.322534,0.192968,0.977028,0.090442,0.000000,0.000000,0.000000,-1,-0.186203,0.270873,-0.339449,0.077601,-0.325508,-0.028720
"2019-04-16 11:00:25.993 +0000",1555412425.992523,2.034046,-1.357440,-0.301430,0.189424,0.977326,0.094618,0.000000,0.000000,0.000000,-1,-0.153231,0.174516,0.005640,0.034575,-0.269638,-0.069304
"2019-04-16 11:00:26.013 +0000",1555412426.012573,2.045588,-1.356057,-0.291467,0.189521,0.977032,0.097416,0.000000,0.000000,0.000000,-1,-0.075247,0.089616,-0.019731,-0.142005,-0.130123,-0.036014
"2019-04-16 11:00:26.033 +0000",1555412426.032622,2.064742,-1.357767,-0.282410,0.186150,0.977395,0.100236,0.000000,0.000000,0.000000,-1,0.032187,0.663699,-0.151241,-0.229622,-0.085122,0.123565
"2019-04-16 11:00:26.053 +0000",1555412426.052671,2.078323,-1.358713,-0.282733,0.183963,0.977595,0.102305,0.000000,0.000000,0.000000,-1,0.021764,0.685551,0.011039,-0.151782,-0.134913,0.068411
"2019-04-16 11:00:26.073 +0000",1555412426.072721,2.083858,-1.356772,-0.288301,0.185046,0.977184,0.104252,0.000000,0.000000,0.000000,-1,-0.150756,0.543183,0.075854,-0.152469,-0.243908,0.002834
"2019-04-16 11:00:26.093 +0000",1555412426.092770,2.081834,-1.355033,-0.300105,0.186740,0.976813,0.104709,0.000000,0.000000,0.000000,-1,0.199083,0.091993,0.274631,-0.177554,-0.381751,0.187695
"2019-04-16 11:00:26.113 +0000",1555412426.112819,2.075930,-1.353447,-0.312009,0.188710,0.976473,0.104354,0.000000,0.000000,0.000000,-1,0.037644,0.318045,0.135229,-0.022862,-0.183824,0.266663
"2019-04-16 11:00:26.133 +0000",1555412426.132869,2.082335,-1.351110,-0.311555,0.190027,0.975966,0.106678,0.000000,0.000000,0.000000,-1,-0.139332,0.237454,0.148728,0.093847,-0.167952,0.370358
"2019-04-16 11:00:26.153 +0000",1555412426.152918,2.083179,-1.344123,-0.314928,0.195876,0.974419,0.110178,0.000000,0.000000,0.000000,-1,-0.070881,0.119333,0.574015,0.067750,-0.130257,0.343038
"2019-04-16 11:00:26.173 +0000",1555412426.172968,2.068853,-1.334517,-0.333911,0.205648,0.972216,0.111828,0.000000,0.000000,0.000000,-1,-0.077304,0.446575,0.306779,0.010340,-0.057817,0.339329
"2019-04-16 11:00:26.193 +0000",1555412426.193017,2.061588,-1.325769,-0.353098,0.213949,0.970131,0.114335,0.000000,0.000000,0.000000,-1,0.017544,0.534279,0.650818,-0.010320,-0.198814,0.268157
"2019-04-16 11:00:26.213 +0000",1555412426.213066,2.049179,-1.313522,-0.377821,0.225882,0.967087,0.117132,0.000000,0.000000,0.000000,-1,-0.004461,0.659041,0.641059,-0.065375,-0.093766,0.135767
"2019-04-16 11:00:26.233 +0000",1555412426.233115,2.067510,-1.311309,-0.380723,0.225578,0.966522,0.122273,0.000000,0.000000,0.000000,-1,0.161013,1.049120,-0.189648,-0.228706,0.522263,0.125621
"2019-04-16 11:00:26.253 +0000",1555412426.253165,2.046396,-1.322581,-0.412760,0.218409,0.969352,0.112487,0.000000,0.000000,0.000000,-1,0.931744,0.183945,-0.378225,-0.267161,0.726570,-0.206771
"2019-04-16 11:00:26.273 +0000",1555412426.273213,1.987643,-1.333171,-0.471482,0.215238,0.971900,0.095306,0.000000,0.000000,0.000000,-1,0.712978,-0.497865,0.065982,0.259768,0.029855,0.120666
"2019-04-16 11:00:26.293 +0000",1555412426.293264,1.915742,-1.332990,-0.531141,0.221694,0.971857,0.079657,0.000000,0.000000,0.000000,-1,0.665972,-0.490875,0.447102,0.100633,-0.173075,-0.180976
"2019-04-16 11:00:26.313 +0000",1555412426.313313,1.838064,-1.323514,-0.621015,0.236080,0.969581,0.064643,0.000000,0.000000,0.000000,-1,0.963109,1.168349,1.134349,-0.151073,-0.227394,-0.001518
"2019-04-16 11:00:26.333 +0000",1555412426.333362,1.779439,-1.300429,-0.699458,0.261292,0.963673,0.055322,0.000000,0.000000,0.000000,-1,0.461460,0.345563,1.466888,-0.077577,-0.401463,-0.368585
"2019-04-16 11:00:26.353 +0000",1555412426.353412,1.740827,-1.274699,-0.739305,0.287582,0.956483,0.049374,0.000000,0.000000,0.000000,-1,0.120044,-0.290777,1.192051,-0.134704,0.086608,-0.300259
"2019-04-16 11:00:26.373 +0000",1555412426.373461,1.722725,-1.258390,-0.746875,0.303809,0.951597,0.046516,0.000000,0.000000,0.000000,-1,-0.057545,-0.674522,0.345038,-0.174399,0.070803,-0.215309
"2019-04-16 11:00:26.394 +0000",1555412426.393511,1.694493,-1.260951,-0.757855,0.302582,0.952381,0.037620,0.000000,0.000000,0.000000,-1,0.321270,-1.371545,-0.345497,0.188278,0.315396,-0.109291
"2019-04-16 11:00:26.414 +0000",1555412426.413559,1.644842,-1.271351,-0.773106,0.294182,0.955500,0.021823,0.000000,0.000000,0.000000,-1,0.192281,-1.890530,-0.577172,0.289131,-0.025172,0.018186
"2019-04-16 11:00:26.434 +0000",1555412426.433609,1.616945,-1.285832,-0.769439,0.280824,0.959672,0.012969,0.000000,0.000000,0.000000,-1,-0.288395,-1.318562,-0.894905,0.242049,-0.319077,0.083497
"2019-04-16 11:00:26.454 +0000",1555412426.453659,1.633756,-1.308041,-0.737270,0.259228,0.965678,0.016342,0.000000,0.000000,0.000000,-1,-0.243596,-0.320552,-1.337649,0.284703,-0.045298,-0.047013
"2019-04-16 11:00:26.474 +0000",1555412426.473708,1.623878,-1.337692,-0.735142,0.230673,0.972954,0.012256,0.000000,0.000000,0.000000,-1,0.259776,-0.511487,-1.672634,0.332941,-0.051461,0.095608
"2019-04-16 11:00:26.494 +0000",1555412426.493758,1.572367,-1.368193,-0.792684,0.201219,0.979546,0.000316,0.000000,0.000000,0.000000,-1,0.944130,0.652619,-1.315098,0.150206,-0.087853,0.071446
"2019-04-16 11:00:26.514 +0000",1555412426.513807,1.470429,-1.394893,-0.918133,0.174117,0.984569,-0.017535,0.000000,0.000000,0.000000,-1,1.263404,1.256314,-1.308338,-0.027999,-0.161968,0.039858
"2019-04-16 11:00:26.534 +0000",1555412426.533857,1.310121,-1.417125,-1.104019,0.147896,0.988216,-0.039450,0.000000,0.000000,0.000000,-1,1.290102,0.918054,-1.162784,-0.132652,-0.101924,-0.096277
"2019-04-16 11:00:26.554 +0000",1555412426.553905,1.128067,-1.429257,-1.304183,0.127465,0.990000,-0.060434,0.000000,0.000000,0.000000,-1,1.012149,0.692816,-0.856825,-0.212136,-0.121744,0.007257
"2019-04-16 11:00:26.574 +0000",1555412426.573955,0.979876,-1.432288,-1.468070,0.114654,0.990423,-0.076920,0.000000,0.000000,0.000000,-1,0.778342,0.579233,-0.342595,-0.312240,-0.118582,0.070466
"2019-04-16 11:00:26.594 +0000",1555412426.594004,0.901980,-1.424726,-1.553534,0.114194,0.989351,-0.090251,0.000000,0.000000,0.000000,-1,0.677598,-0.139855,0.177758,-0.122037,0.117461,0.068538
"2019-04-16 11:00:26.614 +0000",1555412426.614054,0.853003,-1.411482,-1.590383,0.119498,0.987336,-0.104342,0.000000,0.000000,0.000000,-1,0.616003,-1.027337,0.456986,-0.044516,0.228820,0.054614
"2019-04-16 11:00:26.634 +0000",1555412426.634104,0.807042,-1.396187,-1.615915,0.125470,0.984795,-0.120153,0.000000,0.000000,0.000000,-1,0.583790,-1.255957,0.474162,-0.026349,0.209221,0.056829
"2019-04-16 11:00:26.654 +0000",1555412426.654153,0.785864,-1.386948,-1.609660,0.129330,0.983147,-0.129209,0.000000,0.000000,0.000000,-1,0.076315,-1.450344,0.226345,0.226368,0.257560,0.260755
"2019-04-16 11:00:26.674 +0000",1555412426.674202,0.756431,-1.386576,-1.607138,0.125722,0.983079,-0.133225,0.000000,0.000000,0.000000,-1,-0.067317,-1.501007,-0.139203,0.435374,0.105284,0.113495
"2019-04-16 11:00:26.694 +0000",1555412426.694252,0.722867,-1.389708,-1.614677,0.119143,0.983648,-0.135060,0.000000,0.000000,0.000000,-1,-0.019489,-0.961287,-0.153367,0.470609,-0.007360,0.174626
"2019-04-16 11:00:26.714 +0000",1555412426.714301,0.683073,-1.390835,-1.642564,0.112976,0.983851,-0.138832,0.000000,0.000000,0.000000,-1,0.243912,-0.355284,-0.257811,0.335282,-0.000010,0.067650
"2019-04-16 11:00:26.734 +0000",1555412426.734350,0.642620,-1.389294,-1.680232,0.108177,0.983574,-0.144502,0.000000,0.000000,0.000000,-1,0.269985,0.077156,-0.314666,0.127479,-0.006492,0.101991
"2019-04-16 11:00:26.754 +0000",1555412426.754400,0.591475,-1.391215,-1.735271,0.099595,0.983919,-0.148274,0.000000,0.000000,0.000000,-1,0.135793,0.175053,-0.597004,-0.063416,0.207991,0.088963
"2019-04-16 11:00:26.774 +0000",1555412426.774449,0.521602,-1.398111,-1.811371,0.085617,0.985127,-0.148979,0.000000,0.000000,0.000000,-1,-0.004602,0.387885,-0.897597,0.126511,0.386348,-0.052070
"2019-04-16 11:00:26.794 +0000",1555412426.794498,0.439112,-1.407033,-1.910731,0.069311,0.986621,-0.147565,0.000000,0.000000,0.000000,-1,-0.017079,1.171732,-0.985779,0.160273,0.408857,-0.054064
"2019-04-16 11:00:26.815 +0000",1555412426.814549,0.387603,-1.414340,-1.991916,0.058895,0.987786,-0.144260,0.000000,0.000000,0.000000,-1,-0.141896,1.580366,-0.370213,-0.016185,0.126487,-0.014783
"2019-04-16 11:00:26.835 +0000",1555412426.834597,0.416829,-1.422938,-1.987676,0.059645,0.989089,-0.134707,0.000000,0.000000,0.000000,-1,-0.710457,0.741570,-0.058120,-0.292952,-0.168166,0.039858
"2019-04-16 11:00:26.855 +0000",1555412426.854647,0.448061,-1.440043,-1.966039,0.056484,0.991464,-0.117512,0.000000,0.000000,0.000000,-1,-0.796933,0.549767,-0.380703,-0.570751,-0.226678,0.008228
"2019-04-16 11:00:26.875 +0000",1555412426.874696,0.447787,-1.457632,-1.983025,0.048892,0.993604,-0.101789,0.000000,0.000000,0.000000,-1,-0.741416,1.040597,-0.486652,-0.434070,-0.026197,0.040937
"2019-04-16 11:00:26.895 +0000",1555412426.894746,0.471554,-1.475609,-1.981274,0.043175,0.995473,-0.084671,0.000000,0.000000,0.000000,-1,-0.833124,1.109412,-0.303253,-0.182961,0.051844,0.058670
"2019-04-16 11:00:26.915 +0000",1555412426.914794,0.541016,-1.494407,-1.937712,0.039303,0.997084,-0.065416,0.000000,0.000000,0.000000,-1,-0.995999,1.513416,-0.262314,0.016071,0.082460,0.107958
"2019-04-16 11:00:26.935 +0000",1555412426.934845,0.713374,-1.515149,-1.795783,0.036396,0.998452,-0.042056,0.000000,0.000000,0.000000,-1,-1.135191,1.430582,-0.149403,0.070065,0.137305,0.008487
"2019-04-16 11:00:26.955 +0000",1555412426.954894,1.155293,-1.530806,-1.375986,0.036577,0.999200,-0.016137,0.000000,0.000000,0.000000,-1,-1.363847,0.744323,0.100423,0.122252,0.211111,-0.041510
"2019-04-16 11:00:26.975 +0000",1555412426.974943,1.787775,-1.533006,-0.756645,0.036895,0.999286,0.008133,0.000000,0.000000,0.000000,-1,-0.798794,0.765725,-0.125638,0.033509,0.267697,-0.039856
"2019-04-16 11:00:26.995 +0000",1555412426.994993,2.131217,-1.532179,-0.427592,0.032703,0.999254,0.020522,0.000000,0.000000,0.000000,-1,-0.508481,0.698337,-0.233786,-0.157764,0.052427,-0.038054
"2019-04-16 11:00:27.015 +0000",1555412427.015042,2.478546,-1.529282,-0.093521,0.025547,0.999138,0.032711,0.000000,0.000000,0.000000,-1,-0.543982,0.609428,-0.426033,-0.276478,0.069511,0.092579
"2019-04-16 11:00:27.035 +0000",1555412427.035092,2.812533,-1.524540,0.232971,0.014942,0.998930,0.043756,0.000000,0.000000,0.000000,-1,-0.529200,0.146312,-0.567683,-0.258289,0.006593,0.023260
"2019-04-16 11:00:27.055 +0000",1555412427.055140,3.091451,-1.515426,0.513744,0.002774,0.998467,0.055272,0.000000,0.000000,0.000000,-1,-0.542043,-0.273233,-0.589830,-0.126111,-0.032067,0.046978
"2019-04-16 11:00:27.075 +0000",1555412427.075190,-2.990967,-1.505075,0.718860,-0.009855,0.997841,0.064933,0.000000,0.000000,0.000000,-1,-0.412937,-0.154536,-0.645125,-0.082277,-0.052941,0.086328
"2019-04-16 11:00:27.095 +0000",1555412427.095239,-2.834270,-1.494970,0.879137,-0.022916,0.997127,0.072204,0.000000,0.000000,0.000000,-1,-0.158620,-0.124112,-0.638101,0.030744,-0.175898,0.078354
"2019-04-16 11:00:27.115 +0000",1555412427.115289,-2.670673,-1.491928,1.043845,-0.035747,0.996891,0.070212,0.000000,0.000000,0.000000,-1,0.391424,0.031961,-0.642175,0.056605,-0.099476,0.051767
"2019-04-16 11:00:27.135 +0000",1555412427.135339,-2.439278,-1.494657,1.273386,-0.049138,0.997103,0.058066,0.000000,0.000000,0.000000,-1,0.784974,0.247223,-0.630668,0.049260,-0.259691,0.047876
"2019-04-16 11:00:27.155 +0000",1555412427.155388,-2.213419,-1.495290,1.495597,-0.060389,0.997151,0.045209,0.000000,0.000000,0.000000,-1,0.389956,0.162219,-0.450052,0.065593,-0.348652,0.231005
"2019-04-16 11:00:27.175 +0000",1555412427.175438,-2.144756,-1.490186,1.559179,-0.067620,0.996753,0.043721,0.000000,0.000000,0.000000,-1,-0.152421,0.352132,-0.235838,0.010964,-0.204593,0.418987
"2019-04-16 11:00:27.195 +0000",1555412427.195486,-2.161142,-1.484636,1.534873,-0.071489,0.996291,0.047902,0.000000,0.000000,0.000000,-1,-0.250966,0.413336,-0.116525,-0.150160,-0.093046,0.269817
"2019-04-16 11:00:27.216 +0000",1555412427.215537,-2.202046,-1.480441,1.486128,-0.072843,0.995921,0.053251,0.000000,0.000000,0.000000,-1,-0.259333,0.337622,0.070394,-0.147524,-0.078516,0.179064
"2019-04-16 11:00:27.236 +0000",1555412427.235585,-2.279415,-1.479562,1.401444,-0.069175,0.995841,0.059292,0.000000,0.000000,0.000000,-1,-0.437171,0.381931,0.361454,-0.061853,-0.083015,0.314060
"2019-04-16 11:00:27.256 +0000",1555412427.255635,-2.461238,-1.477678,1.208698,-0.058493,0.995668,0.072281,0.000000,0.000000,0.000000,-1,-0.779515,0.695900,0.806746,0.138510,-0.230150,0.516250
"2019-04-16 11:00:27.276 +0000",1555412427.275683,-2.684946,-1.475760,0.969094,-0.041842,0.995487,0.085170,0.000000,0.000000,0.000000,-1,-0.572379,0.683209,0.894844,-0.029386,-0.529255,0.068364
"2019-04-16 11:00:27.296 +0000",1555412427.295734,-2.844383,-1.473459,0.796451,-0.028460,0.995266,0.092923,0.000000,0.000000,0.000000,-1,0.020074,0.509271,0.569682,-0.226911,-0.027630,-0.250988
"2019-04-16 11:00:27.316 +0000",1555412427.315784,-2.921503,-1.483333,0.715850,-0.019070,0.996178,0.085243,0.000000,0.000000,0.000000,-1,0.660141,-0.161289,0.407329,-0.135120,0.667305,-0.499687
"2019-04-16 11:00:27.336 +0000",1555412427.335832,-2.963468,-1.502705,0.683282,-0.012056,0.997683,0.066964,0.000000,0.000000,0.000000,-1,1.121010,-0.766003,0.340590,0.003251,0.446409,-0.427346
"2019-04-16 11:00:27.356 +0000",1555412427.355883,-3.043306,-1.522634,0.620049,-0.004724,0.998840,0.047913,0.000000,0.000000,0.000000,-1,0.775311,-0.640009,0.239245,0.060099,-0.356445,-0.167130
"2019-04-16 11:00:27.376 +0000",1555412427.375931,-3.089836,-1.534721,0.578968,-0.001866,0.999349,0.036023,0.000000,0.000000,0.000000,-1,0.528990,-0.034154,0.096144,0.031758,-0.349096,-0.210858
"2019-04-16 11:00:27.396 +0000",1555412427.395981,3.111145,-1.543735,0.497328,0.000824,0.999634,0.027045,0.000000,0.000000,0.000000,-1,0.391944,-0.086644,0.202630,0.155335,-0.148193,-0.321158
"2019-04-16 11:00:27.416 +0000",1555412427.416030,2.914288,-1.551736,0.306379,0.004296,0.999818,0.018573,0.000000,0.000000,0.000000,-1,0.522523,-0.504665,0.094342,0.073127,0.051634,-0.301532
"2019-04-16 11:00:27.436 +0000",1555412427.436081,2.536201,-1.562832,-0.059124,0.004537,0.999968,0.006556,0.000000,0.000000,0.000000,-1,0.639757,-0.662451,-0.044075,-0.051076,0.153230,-0.198450
"2019-04-16 11:00:27.456 +0000",1555412427.456129,0.783351,-1.563590,-1.794810,0.005100,0.999974,-0.005121,0.000000,0.000000,0.000000,-1,0.522230,-0.944758,0.203595,-0.052326,0.115459,-0.054937
"2019-04-16 11:00:27.476 +0000",1555412427.476179,0.697564,-1.551062,-1.865350,0.012676,0.999805,-0.015124,0.000000,0.000000,0.000000,-1,0.451354,-0.605946,0.539556,0.076451,0.063458,0.078097
"2019-04-16 11:00:27.496 +0000",1555412427.496228,0.820856,-1.538037,-1.730266,0.023966,0.999463,-0.022324,0.000000,0.000000,0.000000,-1,0.272868,-0.586747,0.603168,0.172308,-0.052137,0.084412
"2019-04-16 11:00:27.516 +0000",1555412427.516278,0.890343,-1.526208,-1.649956,0.034649,0.999006,-0.028045,0.000000,0.000000,0.000000,-1,0.307183,-0.440627,0.465386,0.128254,-0.127958,0.043655
"2019-04-16 11:00:27.536 +0000",1555412427.536328,0.868771,-1.515792,-1.665608,0.041977,0.998488,-0.035503,0.000000,0.000000,0.000000,-1,0.423337,-0.144145,0.315950,0.104599,-0.153151,0.005916
"2019-04-16 11:00:27.556 +0000",1555412427.556377,0.809943,-1.505059,-1.724257,0.047576,0.997840,-0.045296,0.000000,0.000000,0.000000,-1,0.561283,0.114380,0.263777,0.064759,-0.128669,0.012245
"2019-04-16 11:00:27.576 +0000",1555412427.576427,0.735332,-1.492195,-1.803462,0.052673,0.996913,-0.058230,0.000000,0.000000,0.000000,-1,0.731786,0.235088,0.220331,0.022095,-0.074351,-0.019895
"2019-04-16 11:00:27.596 +0000",1555412427.596475,0.834085,-1.480320,-1.708776,0.066923,0.995910,-0.060704,0.000000,0.000000,0.000000,-1,0.718844,0.064830,0.099751,-0.019681,0.001298,-0.001628
"2019-04-16 11:00:27.617 +0000",1555412427.616525,0.886040,-1.466506,-1.658807,0.080634,0.994567,-0.065842,0.000000,0.000000,0.000000,-1,0.658901,0.021647,0.027015,-0.013693,0.096635,0.046784
"2019-04-16 11:00:27.637 +0000",1555412427.636575,0.910389,-1.456917,-1.634364,0.089740,0.993523,-0.069707,0.000000,0.000000,0.000000,-1,0.523216,-0.100300,0.052394,0.005474,0.109993,0.095936
"2019-04-16 11:00:27.657 +0000",1555412427.656625,0.857819,-1.450007,-1.683493,0.091145,0.992714,-0.078815,0.000000,0.000000,0.000000,-1,0.359902,-0.255746,0.076662,0.092312,0.066155,0.044025
"2019-04-16 11:00:27.677 +0000",1555412427.676674,0.804008,-1.447439,-1.732102,0.088610,0.992401,-0.085372,0.000000,0.000000,0.000000,-1,0.391511,-0.263478,0.056457,0.157682,0.035248,0.013350
"2019-04-16 11:00:27.697 +0000",1555412427.696723,0.769664,-1.445809,-1.761553,0.086752,0.992199,-0.089526,0.000000,0.000000,0.000000,-1,0.438019,-0.279934,0.049110,0.254358,0.041584,0.032519
"2019-04-16 11:00:27.717 +0000",1555412427.716773,0.724164,-1.439314,-1.802161,0.086858,0.991369,-0.098204,0.000000,0.000000,0.000000,-1,0.388927,-0.201736,-0.029029,0.270183,0.106059,0.119703
"2019-04-16 11:00:27.737 +0000",1555412427.736822,0.676570,-1.434902,-1.847870,0.084825,0.990781,-0.105635,0.000000,0.000000,0.000000,-1,0.355451,-0.060763,-0.165910,0.278441,0.137607,0.158522
"2019-04-16 11:00:27.757 +0000",1555412427.756871,0.620373,-1.432766,-1.904348,0.079988,0.990489,-0.111954,0.000000,0.000000,0.000000,-1,0.260481,0.082617,-0.312558,0.235686,0.170674,0.113495
"2019-04-16 11:00:27.777 +0000",1555412427.776921,0.571050,-1.433613,-1.957552,0.073917,0.990605,-0.115055,0.000000,0.000000,0.000000,-1,0.109182,0.191633,-0.327970,0.221325,0.193401,0.066837
"2019-04-16 11:00:27.797 +0000",1555412427.796970,0.536371,-1.436086,-1.995493,0.068631,0.990940,-0.115443,0.000000,0.000000,0.000000,-1,-0.068242,0.180479,-0.253654,0.206713,0.074749,-0.134405
"2019-04-16 11:00:27.817 +0000",1555412427.817020,0.533158,-1.440340,-2.009518,0.066117,0.991503,-0.112031,0.000000,0.000000,0.000000,-1,-0.188483,0.879274,-0.129530,-0.056825,0.098707,-0.200408
"2019-04-16 11:00:27.837 +0000",1555412427.837069,0.566816,-1.448560,-1.993924,0.065472,0.992538,-0.102864,0.000000,0.000000,0.000000,-1,-0.657978,0.842110,-0.158447,-0.249279,0.008774,-0.024623
"2019-04-16 11:00:27.857 +0000",1555412427.857118,0.637900,-1.464726,-1.939144,0.063048,0.994380,-0.085053,0.000000,0.000000,0.000000,-1,-0.911749,0.967711,-0.289462,-0.476760,0.098455,0.044586
"2019-04-16 11:00:27.877 +0000",1555412427.877168,0.719001,-1.482318,-1.878188,0.058199,0.996088,-0.066490,0.000000,0.000000,0.000000,-1,-0.836593,0.880692,-0.265715,-0.413866,0.107320,-0.083519
"2019-04-16 11:00:27.897 +0000",1555412427.897218,0.868173,-1.495868,-1.740990,0.057129,0.997194,-0.048376,0.000000,0.000000,0.000000,-1,-0.933200,0.434605,0.001351,-0.252304,-0.040224,-0.091654
"2019-04-16 11:00:27.917 +0000",1555412427.917267,1.128292,-1.506944,-1.491521,0.057664,0.997962,-0.027324,0.000000,0.000000,0.000000,-1,-1.063552,0.843864,-0.002484,-0.120881,-0.070853,0.021830
"2019-04-16 11:00:27.937 +0000",1555412427.937317,1.469589,-1.513731,-1.172067,0.056744,0.998372,-0.005763,0.000000,0.000000,0.000000,-1,-0.938351,1.245510,-0.108191,-0.064449,0.058146,-0.064153
"2019-04-16 11:00:27.957 +0000",1555412427.957366,1.813218,-1.514647,-0.850374,0.054478,0.998424,0.013472,0.000000,0.000000,0.000000,-1,-0.919912,0.864921,-0.065146,0.010952,0.134587,-0.114378
"2019-04-16 11:00:27.977 +0000",1555412427.977416,2.114362,-1.506529,-0.560159,0.054968,0.997936,0.033216,0.000000,0.000000,0.000000,-1,-0.902757,0.352077,-0.008122,0.111063,0.092992,-0.061292
"2019-04-16 11:00:27.997 +0000",1555412427.997465,2.340175,-1.499796,-0.342285,0.050959,0.997481,0.049352,0.000000,0.000000,0.000000,-1,-0.646110,0.587143,-0.334433,-0.217189,0.051165,-0.041723
"2019-04-16 11:00:28.018 +0000",1555412428.017515,2.547049,-1.494999,-0.146545,0.042417,0.997129,0.062732,0.000000,0.000000,0.000000,-1,-0.717756,0.406346,-0.367583,-0.257108,0.030902,0.011196
"2019-04-16 11:00:28.038 +0000",1555412428.037564,2.737583,-1.486892,0.037726,0.032945,0.996482,0.077059,0.000000,0.000000,0.000000,-1,-0.574223,0.361161,-0.569024,-0.205125,0.170998,-0.033159
"2019-04-16 11:00:28.058 +0000",1555412428.057614,2.911741,-1.481456,0.209194,0.020328,0.996012,0.086875,0.000000,0.000000,0.000000,-1,-0.422005,0.005968,-0.635656,-0.179431,0.017416,-0.100394
"2019-04-16 11:00:28.078 +0000",1555412428.077664,3.066339,-1.475989,0.363583,0.007117,0.995509,0.094398,0.000000,0.000000,0.000000,-1,-0.312591,0.171399,-0.647251,-0.102729,-0.013957,0.043404
"2019-04-16 11:00:28.098 +0000",1555412428.097713,-3.087649,-1.470920,0.489326,-0.005376,0.995016,0.099566,0.000000,0.000000,0.000000,-1,-0.177335,0.191529,-0.550815,-0.047175,0.010996,0.009138
"2019-04-16 11:00:28.118 +0000",1555412428.117763,-2.981472,-1.468692,0.591743,-0.016251,0.994792,0.100623,0.000000,0.000000,0.000000,-1,0.063664,0.254571,-0.492589,-0.118988,-0.060573,-0.024802
"2019-04-16 11:00:28.138 +0000",1555412428.137812,-2.727415,-1.478327,0.840631,-0.037160,0.995728,0.084531,0.000000,0.000000,0.000000,-1,0.330092,0.217793,-0.398985,-0.089030,-0.030625,-0.002500
"2019-04-16 11:00:28.158 +0000",1555412428.157861,-2.581976,-1.478806,0.982261,-0.048765,0.995772,0.077848,0.000000,0.000000,0.000000,-1,0.425716,0.195763,-0.349604,-0.136095,-0.196562,0.023516
"2019-04-16 11:00:28.178 +0000",1555412428.177910,-2.480175,-1.480276,1.080583,-0.055524,0.995906,0.071333,0.000000,0.000000,0.000000,-1,0.194408,0.226028,-0.271183,-0.085802,-0.246745,0.152147
"2019-04-16 11:00:28.198 +0000",1555412428.197960,-2.427041,-1.479527,1.130302,-0.059725,0.995838,0.068849,0.000000,0.000000,0.000000,-1,0.054463,0.110713,-0.104855,-0.009168,-0.127598,0.136259
"2019-04-16 11:00:28.218 +0000",1555412428.218009,-2.426584,-1.479852,1.130527,-0.059543,0.995867,0.068576,0.000000,0.000000,0.000000,-1,-0.008839,-0.070987,0.137537,0.026889,-0.081759,0.103482
"2019-04-16 11:00:28.238 +0000",1555412428.238059,-2.487662,-1.481710,1.071528,-0.054120,0.996034,0.070614,0.000000,0.000000,0.000000,-1,-0.254880,-0.152180,0.413568,0.018094,-0.103761,0.195698
"2019-04-16 11:00:28.258 +0000",1555412428.258109,-2.664591,-1.478626,0.895490,-0.042257,0.995755,0.081766,0.000000,0.000000,0.000000,-1,-0.798315,0.088795,0.756958,0.101171,-0.290158,0.478521
"2019-04-16 11:00:28.278 +0000",1555412428.278158,-2.886852,-1.468840,0.665984,-0.025648,0.994807,0.098494,0.000000,0.000000,0.000000,-1,-0.804835,0.362173,0.934012,-0.004015,-0.430430,0.357850
"2019-04-16 11:00:28.298 +0000",1555412428.298208,-3.064437,-1.459200,0.481483,-0.008584,0.993780,0.111034,0.000000,0.000000,0.000000,-1,-0.374109,0.151097,0.812441,-0.142493,-0.339651,-0.247356
"2019-04-16 11:00:28.318 +0000",1555412428.318257,3.095662,-1.457809,0.360676,0.005177,0.993624,0.112629,0.000000,0.000000,0.000000,-1,0.221680,-0.543222,0.540000,-0.323643,0.335722,-0.582783
"2019-04-16 11:00:28.338 +0000",1555412428.338307,3.007688,-1.465706,0.287587,0.014005,0.994483,0.103960,0.000000,0.000000,0.000000,-1,0.730872,-0.892487,0.184857,-0.209226,0.796639,-0.392534
"2019-04-16 11:00:28.358 +0000",1555412428.358357,2.936077,-1.481780,0.233374,0.018142,0.996041,0.087028,0.000000,0.000000,0.000000,-1,0.779944,-0.888425,0.085662,-0.045592,0.034156,-0.283958
"2019-04-16 11:00:28.378 +0000",1555412428.378406,2.887593,-1.493181,0.200037,0.019484,0.996989,0.075050,0.000000,0.000000,0.000000,-1,0.448437,-0.499055,-0.046813,-0.054853,-0.335170,-0.179283
"2019-04-16 11:00:28.398 +0000",1555412428.398455,2.862344,-1.501349,0.181110,0.019126,0.997590,0.066702,0.000000,0.000000,0.000000,-1,0.402862,-0.219116,-0.000147,0.080224,-0.217789,-0.288153
"2019-04-16 11:00:28.419 +0000",1555412428.418504,2.811906,-1.509376,0.137407,0.019872,0.998114,0.058076,0.000000,0.000000,0.000000,-1,0.426898,-0.436027,0.028908,0.024562,-0.052771,-0.301545
"2019-04-16 11:00:28.439 +0000",1555412428.438554,2.734424,-1.517942,0.070035,0.020921,0.998604,0.048509,0.000000,0.000000,0.000000,-1,0.521769,-0.573028,0.013229,-0.093766,0.038689,-0.167040
"2019-04-16 11:00:28.459 +0000",1555412428.458604,2.607722,-1.527173,-0.043003,0.022192,0.999049,0.037542,0.000000,0.000000,0.000000,-1,0.513378,-0.819030,0.108435,-0.076254,0.037694,-0.070410
"2019-04-16 11:00:28.479 +0000",1555412428.478653,2.387114,-1.531655,-0.245809,0.026805,0.999234,0.028516,0.000000,0.000000,0.000000,-1,0.328162,-0.911372,0.304534,0.027044,-0.038663,-0.004895
"2019-04-16 11:00:28.499 +0000",1555412428.498703,2.146519,-1.528817,-0.468902,0.035203,0.999119,0.022849,0.000000,0.000000,0.000000,-1,0.189767,-0.873811,0.486770,0.088653,-0.076908,0.038415
"2019-04-16 11:00:28.519 +0000",1555412428.518752,1.955938,-1.521510,-0.641935,0.045658,0.998786,0.018509,0.000000,0.000000,0.000000,-1,0.183319,-0.908480,0.485712,0.074627,-0.094870,-0.002686
"2019-04-16 11:00:28.539 +0000",1555412428.538801,1.801625,-1.515257,-0.779080,0.054037,0.998458,0.012700,0.000000,0.000000,0.000000,-1,0.306505,-0.780071,0.340690,0.055888,-0.128280,-0.079991
"2019-04-16 11:00:28.559 +0000",1555412428.558851,1.653403,-1.510727,-0.914852,0.059828,0.998196,0.004953,0.000000,0.000000,0.000000,-1,0.431412,-0.517194,0.241493,0.096392,-0.131329,-0.076990
"2019-04-16 11:00:28.579 +0000",1555412428.578900,1.539079,-1.503485,-1.020825,0.067227,0.997735,-0.002133,0.000000,0.000000,0.000000,-1,0.578847,-0.345424,0.212902,0.073947,-0.130289,-0.094257
"2019-04-16 11:00:28.599 +0000",1555412428.598950,1.364385,-1.498326,-1.189765,0.070869,0.997375,-0.014840,0.000000,0.000000,0.000000,-1,0.601776,-0.308704,0.148858,-0.021095,-0.121658,-0.057640
"2019-04-16 11:00:28.619 +0000",1555412428.618999,1.223770,-1.493297,-1.323978,0.072807,0.996998,-0.026332,0.000000,0.000000,0.000000,-1,0.497418,-0.354952,0.086692,-0.059914,-0.017903,0.042063
"2019-04-16 11:00:28.639 +0000",1555412428.639049,1.114972,-1.487856,-1.425172,0.074387,0.996562,-0.036469,0.000000,0.000000,0.000000,-1,0.463433,-0.477306,0.115531,0.024718,0.089970,0.071351
"2019-04-16 11:00:28.659 +0000",1555412428.659099,1.023020,-1.479394,-1.505526,0.077920,0.995826,-0.047535,0.000000,0.000000,0.000000,-1,0.451317,-0.629053,0.102798,0.163291,0.108300,0.012241
"2019-04-16 11:00:28.679 +0000",1555412428.679148,0.931607,-1.471561,-1.584166,0.079513,0.995080,-0.059101,0.000000,0.000000,0.000000,-1,0.453078,-0.686545,0.072944,0.209122,0.124243,0.039173
"2019-04-16 11:00:28.699 +0000",1555412428.699198,0.856029,-1.465008,-1.646184,0.079748,0.994410,-0.069209,0.000000,0.000000,0.000000,-1,0.437936,-0.650749,0.017348,0.330668,0.113287,0.060969
"2019-04-16 11:00:28.719 +0000",1555412428.719248,0.782986,-1.459233,-1.708686,0.078534,0.993783,-0.078914,0.000000,0.000000,0.000000,-1,0.431542,-0.430698,-0.062924,0.306903,0.131064,0.061275
"2019-04-16 11:00:28.739 +0000",1555412428.739297,0.712546,-1.454772,-1.774153,0.075682,0.993277,-0.087598,0.000000,0.000000,0.000000,-1,0.389044,-0.135721,-0.181787,0.269472,0.184809,0.123533
"2019-04-16 11:00:28.759 +0000",1555412428.759347,0.644202,-1.452195,-1.842026,0.071061,0.992975,-0.094609,0.000000,0.000000,0.000000,-1,0.286149,0.045687,-0.265478,0.249481,0.200277,0.122518
"2019-04-16 11:00:28.779 +0000",1555412428.779395,0.586878,-1.452189,-1.901285,0.065526,0.992974,-0.098529,0.000000,0.000000,0.000000,-1,0.108114,0.087581,-0.293721,0.206080,0.224555,0.179767
"2019-04-16 11:00:28.799 +0000",1555412428.799445,0.550290,-1.454639,-1.940213,0.060606,0.993261,-0.098786,0.000000,0.000000,0.000000,-1,-0.058104,0.156656,-0.161770,0.104220,0.264566,0.083009
"2019-04-16 11:00:28.819 +0000",1555412428.819495,0.558490,-1.457323,-1.936405,0.060001,0.993569,-0.096025,0.000000,0.000000,0.000000,-1,-0.217532,0.327637,-0.004246,0.231777,0.156196,-0.160429
"2019-04-16 11:00:28.840 +0000",1555412428.839545,0.595770,-1.462117,-1.911411,0.060866,0.994100,-0.089780,0.000000,0.000000,0.000000,-1,-0.362548,0.857285,-0.026362,-0.019942,0.081599,-0.156528
"2019-04-16 11:00:28.860 +0000",1555412428.859594,0.659152,-1.471135,-1.863695,0.060937,0.995038,-0.078654,0.000000,0.000000,0.000000,-1,-0.639020,0.685940,-0.119838,-0.199883,-0.028104,-0.045675
"2019-04-16 11:00:28.880 +0000",1555412428.879643,0.732243,-1.483393,-1.803193,0.058358,0.996183,-0.064917,0.000000,0.000000,0.000000,-1,-0.626995,0.683650,-0.213782,-0.610467,0.032275,0.056204
"2019-04-16 11:00:28.900 +0000",1555412428.899693,0.807627,-1.496404,-1.743510,0.053709,0.997234,-0.051373,0.000000,0.000000,0.000000,-1,-0.674197,0.750978,-0.319673,-0.485213,0.066258,0.055920
"2019-04-16 11:00:28.920 +0000",1555412428.919742,0.941029,-1.510067,-1.620536,0.049049,0.998157,-0.035745,0.000000,0.000000,0.000000,-1,-0.830801,0.425370,-0.188472,-0.160255,0.001233,-0.032355
"2019-04-16 11:00:28.940 +0000",1555412428.939792,1.187796,-1.520851,-1.386838,0.046306,0.998753,-0.018657,0.000000,0.000000,0.000000,-1,-0.782248,1.018277,-0.120444,0.048435,-0.068867,-0.047139
"2019-04-16 11:00:28.960 +0000",1555412428.959841,1.496079,-1.527011,-1.105145,0.043649,0.999042,-0.003267,0.000000,0.000000,0.000000,-1,-0.661815,1.502375,-0.181372,0.076498,-0.023227,-0.051771
"2019-04-16 11:00:28.980 +0000",1555412428.979891,1.837608,-1.529685,-0.790278,0.039646,0.999155,0.010836,0.000000,0.000000,0.000000,-1,-0.650232,1.138018,-0.213110,0.012432,0.058630,-0.106341
"2019-04-16 11:00:29.000 +0000",1555412428.999940,2.179067,-1.526746,-0.466160,0.036139,0.999030,0.025165,0.000000,0.000000,0.000000,-1,-0.695377,0.598347,-0.120982,-0.044745,0.082177,-0.104663
"2019-04-16 11:00:29.020 +0000",1555412429.019990,2.454313,-1.521069,-0.200528,0.031536,0.998764,0.038422,0.000000,0.000000,0.000000,-1,-0.592919,0.493737,-0.270154,-0.216900,0.113815,-0.066315
"2019-04-16 11:00:29.040 +0000",1555412429.040039,2.677012,-1.514209,0.014652,0.025341,0.998399,0.050564,0.000000,0.000000,0.000000,-1,-0.606333,0.320292,-0.308504,-0.222866,0.012846,-0.009106
"2019-04-16 11:00:29.060 +0000",1555412429.060089,2.884132,-1.505641,0.213263,0.016578,0.997878,0.062961,0.000000,0.000000,0.000000,-1,-0.626074,0.538162,-0.476377,-0.299720,-0.084579,0.086575
"2019-04-16 11:00:29.080 +0000",1555412429.080138,3.073345,-1.495649,0.391746,0.005120,0.997178,0.074904,0.000000,0.000000,0.000000,-1,-0.508348,0.612381,-0.625643,-0.197808,0.041091,-0.000426
"2019-04-16 11:00:29.100 +0000",1555412429.100188,-3.055116,-1.485718,0.539451,-0.007339,0.996383,0.084659,0.000000,0.000000,0.000000,-1,-0.519408,0.113782,-0.520646,-0.036560,-0.020126,-0.110156
"2019-04-16 11:00:29.120 +0000",1555412429.120237,-2.956314,-1.474237,0.636967,-0.017760,0.995342,0.094758,0.000000,0.000000,0.000000,-1,-0.452854,0.153600,-0.557885,-0.003388,-0.144588,0.004546
"2019-04-16 11:00:29.140 +0000",1555412429.140286,-2.772361,-1.462517,0.815401,-0.039002,0.994143,0.100785,0.000000,0.000000,0.000000,-1,-0.224043,0.283835,-0.596920,-0.047683,-0.010959,-0.055390
"2019-04-16 11:00:29.160 +0000",1555412429.160336,-2.626308,-1.453056,0.957385,-0.057886,0.993077,0.102215,0.000000,0.000000,0.000000,-1,-0.032046,0.119426,-0.500203,0.046778,-0.116337,-0.042401
"2019-04-16 11:00:29.180 +0000",1555412429.180385,-2.520144,-1.453513,1.063335,-0.068128,0.993130,0.095137,0.000000,0.000000,0.000000,-1,0.179024,-0.000620,-0.417355,-0.036075,-0.153485,-0.033324
"2019-04-16 11:00:29.200 +0000",1555412429.200435,-2.447299,-1.452368,1.134327,-0.075599,0.992996,0.090801,0.000000,0.000000,0.000000,-1,0.128003,0.230550,-0.374939,-0.105767,-0.191680,0.132496
"2019-04-16 11:00:29.220 +0000",1555412429.220485,-2.399386,-1.448926,1.177166,-0.082171,0.992583,0.089594,0.000000,0.000000,0.000000,-1,-0.043290,0.298585,-0.212030,-0.035627,-0.151961,0.182211
"2019-04-16 11:00:29.241 +0000",1555412429.240535,-2.386115,-1.446066,1.185519,-0.085298,0.992231,0.090561,0.000000,0.000000,0.000000,-1,-0.067966,0.142683,-0.056061,-0.040999,-0.124952,0.128906
"2019-04-16 11:00:29.261 +0000",1555412429.260583,-2.390263,-1.445958,1.180861,-0.084995,0.992218,0.090993,0.000000,0.000000,0.000000,-1,0.031183,-0.080929,0.109880,-0.052502,-0.109009,0.072306
"2019-04-16 11:00:29.281 +0000",1555412429.280634,-2.412063,-1.449850,1.161694,-0.080417,0.992695,0.089944,0.000000,0.000000,0.000000,-1,0.052660,-0.187092,0.333206,-0.016355,-0.089359,0.114539
"2019-04-16 11:00:29.301 +0000",1555412429.300683,-2.479776,-1.454970,1.097407,-0.071022,0.993300,0.091169,0.000000,0.000000,0.000000,-1,-0.160515,-0.157856,0.576132,0.049385,-0.132963,0.257037
"2019-04-16 11:00:29.321 +0000",1555412429.320732,-2.602512,-1.457923,0.975561,-0.057821,0.993637,0.096661,0.000000,0.000000,0.000000,-1,-0.314014,-0.090999,0.710253,0.006261,-0.207366,0.298969
"2019-04-16 11:00:29.341 +0000",1555412429.340782,-2.724497,-1.460375,0.853895,-0.044642,0.993910,0.100750,0.000000,0.000000,0.000000,-1,-0.021398,0.086585,0.544262,-0.179983,-0.206388,-0.066433
"2019-04-16 11:00:29.361 +0000",1555412429.360832,-2.762356,-1.467117,0.812530,-0.038315,0.994630,0.096141,0.000000,0.000000,0.000000,-1,0.462243,0.039930,0.214460,-0.408859,0.260390,-0.125972
"2019-04-16 11:00:29.381 +0000",1555412429.380880,-2.790411,-1.479426,0.793338,-0.031388,0.995829,0.085674,0.000000,0.000000,0.000000,-1,0.577949,-0.924206,0.432253,0.099061,0.447607,-0.315044
"2019-04-16 11:00:29.401 +0000",1555412429.400931,-2.848837,-1.495748,0.755357,-0.021638,0.997185,0.071788,0.000000,0.000000,0.000000,-1,0.833446,-0.907979,0.314344,0.154466,0.122901,-0.286296
"2019-04-16 11:00:29.421 +0000",1555412429.420979,-2.840862,-1.511890,0.774293,-0.017439,0.998266,0.056230,0.000000,0.000000,0.000000,-1,0.654431,-0.221154,0.077376,-0.047945,-0.237066,-0.201814
"2019-04-16 11:00:29.441 +0000",1555412429.441030,-2.803246,-1.521213,0.815546,-0.016452,0.998771,0.046754,0.000000,0.000000,0.000000,-1,0.366292,-0.169057,0.052052,-0.001615,-0.260520,-0.212922
"2019-04-16 11:00:29.461 +0000",1555412429.461079,-2.780737,-1.528854,0.844303,-0.014805,0.999121,0.039230,0.000000,0.000000,0.000000,-1,0.404058,-0.448894,0.097207,0.051273,-0.123449,-0.230041
"2019-04-16 11:00:29.481 +0000",1555412429.481129,-2.742917,-1.538405,0.891426,-0.012570,0.999475,0.029842,0.000000,0.000000,0.000000,-1,0.548833,-0.453847,0.053790,-0.014926,0.098593,-0.082317
"2019-04-16 11:00:29.501 +0000",1555412429.501178,-2.565667,-1.548591,1.080586,-0.012094,0.999753,0.018625,0.000000,0.000000,0.000000,-1,0.539502,-0.784490,0.047605,-0.063605,0.176806,-0.042322
"2019-04-16 11:00:29.521 +0000",1555412429.521228,-2.302497,-1.558119,1.361376,-0.009436,0.999920,0.008473,0.000000,0.000000,0.000000,-1,0.476656,-0.903391,0.185296,0.011755,0.057011,-0.056462
"2019-04-16 11:00:29.541 +0000",1555412429.541278,-1.698444,-1.566506,1.981559,-0.004240,0.999991,0.000544,0.000000,0.000000,0.000000,-1,0.338659,-0.663100,0.353500,0.096021,0.001627,0.091024
"2019-04-16 11:00:29.561 +0000",1555412429.561327,0.656093,-1.563712,-1.934283,0.004322,0.999975,-0.005614,0.000000,0.000000,0.000000,-1,0.269728,-0.675725,0.492165,0.174724,0.006556,0.043532
"2019-04-16 11:00:29.581 +0000",1555412429.581376,0.883985,-1.552706,-1.692318,0.013982,0.999836,-0.011465,0.000000,0.000000,0.000000,-1,0.322570,-0.666195,0.473068,0.133800,-0.008519,0.020651
"2019-04-16 11:00:29.601 +0000",1555412429.601426,0.829527,-1.541520,-1.736062,0.021592,0.999571,-0.019766,0.000000,0.000000,0.000000,-1,0.400609,-0.407493,0.338515,0.076003,-0.043105,-0.015390
"2019-04-16 11:00:29.621 +0000",1555412429.621475,0.847135,-1.532340,-1.712657,0.028813,0.999261,-0.025459,0.000000,0.000000,0.000000,-1,0.562456,-0.194638,0.238380,0.081096,-0.091271,-0.098962
"2019-04-16 11:00:29.642 +0000",1555412429.641526,0.830717,-1.518419,-1.728100,0.038659,0.998629,-0.035305,0.000000,0.000000,0.000000,-1,0.823452,0.052572,0.216426,0.016272,-0.083544,-0.182316
"2019-04-16 11:00:29.662 +0000",1555412429.661575,0.771274,-1.502851,-1.790199,0.047326,0.997693,-0.048682,0.000000,0.000000,0.000000,-1,0.779926,0.074414,0.194942,-0.032723,0.011142,-0.018655
"2019-04-16 11:00:29.682 +0000",1555412429.681625,0.718852,-1.488915,-1.841533,0.053861,0.996650,-0.061553,0.000000,0.000000,0.000000,-1,0.656808,-0.187421,0.248223,-0.081540,0.132684,0.057723
"2019-04-16 11:00:29.702 +0000",1555412429.701674,0.680402,-1.473999,-1.871840,0.060800,0.995319,-0.075125,0.000000,0.000000,0.000000,-1,0.542603,-0.717082,0.307065,-0.026468,0.176938,0.115622
"2019-04-16 11:00:29.722 +0000",1555412429.721724,0.621451,-1.458215,-1.913249,0.065408,0.993669,-0.091339,0.000000,0.000000,0.000000,-1,0.531348,-0.927384,0.286903,0.135367,0.101149,0.025543
"2019-04-16 11:00:29.742 +0000",1555412429.741772,0.574623,-1.447219,-1.943184,0.066995,0.992374,-0.103465,0.000000,0.000000,0.000000,-1,0.480219,-0.759206,0.189470,0.263053,0.037518,0.103801
"2019-04-16 11:00:29.762 +0000",1555412429.761822,0.542036,-1.438297,-1.962235,0.068154,0.991235,-0.113175,0.000000,0.000000,0.000000,-1,0.407707,-0.615892,0.072779,0.353157,0.041999,0.135056
"2019-04-16 11:00:29.782 +0000",1555412429.781872,0.504144,-1.430654,-1.989963,0.067476,0.990196,-0.122306,0.000000,0.000000,0.000000,-1,0.453241,-0.377619,-0.009513,0.357771,0.051720,0.147209
"2019-04-16 11:00:29.802 +0000",1555412429.801922,0.463368,-1.422897,-2.026766,0.065865,0.989083,-0.131822,0.000000,0.000000,0.000000,-1,0.456378,-0.082816,-0.115447,0.336479,0.018684,0.175233
"2019-04-16 11:00:29.822 +0000",1555412429.821970,0.416739,-1.417579,-2.073625,0.061777,0.988285,-0.139557,0.000000,0.000000,0.000000,-1,0.321690,0.027067,-0.324109,0.215094,-0.002384,0.204101
"2019-04-16 11:00:29.842 +0000",1555412429.842021,0.350483,-1.416417,-2.138455,0.052796,0.988107,-0.144419,0.000000,0.000000,0.000000,-1,0.169173,-0.294465,-0.507933,0.001190,-0.069574,0.104838
"2019-04-16 11:00:29.862 +0000",1555412429.862070,0.286735,-1.417506,-2.194521,0.043184,0.988274,-0.146457,0.000000,0.000000,0.000000,-1,0.000811,-0.461673,-0.298922,-0.126635,-0.037377,-0.131375
"2019-04-16 11:00:29.882 +0000",1555412429.882120,0.256907,-1.420581,-2.217818,0.038025,0.988739,-0.144740,0.000000,0.000000,0.000000,-1,-0.186545,-0.140930,-0.099932,-0.168396,0.086365,-0.257055
"2019-04-16 11:00:29.902 +0000",1555412429.902169,0.268368,-1.426254,-2.204398,0.038193,0.989572,-0.138883,0.000000,0.000000,0.000000,-1,-0.464333,-0.116855,0.143904,-0.204972,0.077887,-0.060565
"2019-04-16 11:00:29.922 +0000",1555412429.922219,0.319960,-1.437404,-2.148483,0.041831,0.991116,-0.126247,0.000000,0.000000,0.000000,-1,-0.793430,-0.322524,0.254293,-0.456977,0.209476,0.135098
"2019-04-16 11:00:29.942 +0000",1555412429.942269,0.394369,-1.452078,-2.063483,0.045508,0.992961,-0.109348,0.000000,0.000000,0.000000,-1,-0.931039,-0.654832,0.231768,-0.447470,0.211583,0.027744
"2019-04-16 11:00:29.962 +0000",1555412429.962318,0.487543,-1.467437,-1.954480,0.048333,0.994663,-0.091155,0.000000,0.000000,0.000000,-1,-0.955966,-0.778357,0.195488,-0.319299,0.061504,-0.115068
"2019-04-16 11:00:29.982 +0000",1555412429.982368,0.598388,-1.482071,-1.831248,0.049915,0.996066,-0.073214,0.000000,0.000000,0.000000,-1,-0.885918,-0.329889,0.062910,-0.218113,-0.026920,-0.109647
"2019-04-16 11:00:30.002 +0000",1555412430.002417,0.723181,-1.495854,-1.706587,0.049549,0.997193,-0.056133,0.000000,0.000000,0.000000,-1,-0.852451,0.389752,-0.094523,-0.164890,-0.036011,0.028332
"2019-04-16 11:00:30.022 +0000",1555412430.022467,0.903858,-1.510568,-1.537518,0.047293,0.998187,-0.037233,0.000000,0.000000,0.000000,-1,-0.989716,0.751288,-0.159211,-0.122717,0.059980,0.132158
"2019-04-16 11:00:30.043 +0000",1555412430.042516,1.227004,-1.522803,-1.226940,0.045168,0.998849,-0.016170,0.000000,0.000000,0.000000,-1,-1.000234,0.479279,-0.056516,-0.062441,0.119590,0.050091
"2019-04-16 11:00:30.063 +0000",1555412430.062566,1.597405,-1.525623,-0.862381,0.045143,0.998980,0.001201,0.000000,0.000000,0.000000,-1,-0.686823,0.153923,0.041692,-0.034325,0.011366,-0.058315
"2019-04-16 11:00:30.083 +0000",1555412430.082615,1.807448,-1.523482,-0.653238,0.045979,0.998881,0.011089,0.000000,0.000000,0.000000,-1,-0.310373,-0.017828,0.017136,-0.106023,-0.161112,-0.165935
"2019-04-16 11:00:30.103 +0000",1555412430.102665,1.910513,-1.523833,-0.550000,0.044263,0.998897,0.015643,0.000000,0.000000,0.000000,-1,-0.188734,0.056340,-0.176973,-0.224774,-0.210781,-0.102542
"2019-04-16 11:00:30.123 +0000",1555412430.122714,2.030575,-1.526842,-0.431626,0.039378,0.999034,0.019499,0.000000,0.000000,0.000000,-1,-0.207538,0.086679,-0.297717,-0.283031,-0.271114,-0.023527
"2019-04-16 11:00:30.143 +0000",1555412430.142764,2.219206,-1.529997,-0.241608,0.032513,0.999168,0.024635,0.000000,0.000000,0.000000,-1,-0.339133,-0.237019,-0.370425,-0.224895,-0.294822,0.011300
"2019-04-16 11:00:30.163 +0000",1555412430.162814,2.496876,-1.528449,0.045414,0.025440,0.999103,0.033835,0.000000,0.000000,0.000000,-1,-0.582707,-0.652366,-0.371796,-0.139820,-0.158680,0.025430
"2019-04-16 11:00:30.183 +0000",1555412430.182863,2.766646,-1.521382,0.330066,0.018089,0.998779,0.045961,0.000000,0.000000,0.000000,-1,-0.637094,-0.759493,-0.386803,-0.053703,-0.089127,-0.075167
"2019-04-16 11:00:30.203 +0000",1555412430.202912,2.942145,-1.511883,0.519912,0.011665,0.998265,0.057711,0.000000,0.000000,0.000000,-1,-0.523344,-0.612381,-0.231780,0.003502,-0.117329,-0.067523
"2019-04-16 11:00:30.223 +0000",1555412430.222963,3.046154,-1.504202,0.636576,0.006341,0.997783,0.066244,0.000000,0.000000,0.000000,-1,-0.391714,-0.555546,-0.356437,-0.085229,-0.148525,0.003366
"2019-04-16 11:00:30.243 +0000",1555412430.243012,3.137717,-1.497334,0.739610,0.000284,0.997303,0.073397,0.000000,0.000000,0.000000,-1,-0.329051,-0.576374,-0.325295,-0.069849,-0.098972,0.053037
"2019-04-16 11:00:30.263 +0000",1555412430.263062,-3.083399,-1.491546,0.814616,-0.004604,0.996861,0.079034,0.000000,0.000000,0.000000,-1,-0.219622,-0.697091,-0.237362,-0.118290,-0.167394,0.058799
"2019-04-16 11:00:30.283 +0000",1555412430.283110,-3.052560,-1.488449,0.859941,-0.007314,0.996611,0.081928,0.000000,0.000000,0.000000,-1,-0.053894,-0.722633,-0.158969,-0.139278,-0.275100,0.078183
"2019-04-16 11:00:30.303 +0000",1555412430.303160,-3.028751,-1.489178,0.898656,-0.009180,0.996671,0.081007,0.000000,0.000000,0.000000,-1,0.160163,-0.750580,-0.133849,-0.156607,-0.301938,0.073823
"2019-04-16 11:00:30.323 +0000",1555412430.323209,-3.009863,-1.494441,0.933452,-0.010019,0.997086,0.075621,0.000000,0.000000,0.000000,-1,0.396608,-0.823040,-0.073399,-0.107748,-0.291642,0.080523
"2019-04-16 11:00:30.343 +0000",1555412430.343260,-2.995481,-1.504095,0.965118,-0.009704,0.997776,0.065942,0.000000,0.000000,0.000000,-1,0.568508,-0.913661,0.001854,-0.070649,-0.268666,0.119452
"2019-04-16 11:00:30.363 +0000",1555412430.363309,-3.002037,-1.515525,0.977477,-0.007684,0.998473,0.054705,0.000000,0.000000,0.000000,-1,0.528754,-0.964391,0.087225,-0.029593,-0.215850,0.205747
"2019-04-16 11:00:30.383 +0000",1555412430.383359,-3.046474,-1.523782,0.951884,-0.004464,0.998895,0.046787,0.000000,0.000000,0.000000,-1,0.257146,-0.883027,0.140945,-0.040763,-0.123865,0.339795
"2019-04-16 11:00:30.403 +0000",1555412430.403409,-3.120672,-1.525710,0.894016,-0.000943,0.998984,0.045061,0.000000,0.000000,0.000000,-1,-0.053920,-0.732163,0.133645,-0.097736,0.002801,0.427091
"2019-04-16 11:00:30.423 +0000",1555412430.423458,3.100254,-1.524256,0.842800,0.001923,0.998917,0.046485,0.000000,0.000000,0.000000,-1,-0.052074,-0.402581,0.130201,-0.077377,0.099792,0.335412
"2019-04-16 11:00:30.444 +0000",1555412430.443508,3.019736,-1.524047,0.769447,0.005681,0.998907,0.046386,0.000000,0.000000,0.000000,-1,0.052508,-0.356310,0.223337,0.057918,0.080957,0.249726
"2019-04-16 11:00:30.464 +0000",1555412430.463558,2.880813,-1.525270,0.637576,0.011734,0.998964,0.043973,0.000000,0.000000,0.000000,-1,0.182627,-0.375162,0.355031,0.145080,0.183562,0.216174
"2019-04-16 11:00:30.484 +0000",1555412430.483606,2.695297,-1.524548,0.460763,0.019955,0.998931,0.041703,0.000000,0.000000,0.000000,-1,-0.027000,-0.532559,0.419764,0.017917,0.283494,0.317794
"2019-04-16 11:00:30.504 +0000",1555412430.503656,2.556670,-1.518544,0.334140,0.028837,0.998635,0.043545,0.000000,0.000000,0.000000,-1,-0.087593,-0.666742,0.434662,-0.248243,0.460548,0.219608
"2019-04-16 11:00:30.524 +0000",1555412430.523707,2.413455,-1.513309,0.204030,0.038236,0.998348,0.042886,0.000000,0.000000,0.000000,-1,0.120037,-0.545093,0.398784,-0.308667,0.533390,-0.026894
"2019-04-16 11:00:30.544 +0000",1555412430.543755,2.309745,-1.510603,0.106352,0.044468,0.998189,0.040517,0.000000,0.000000,0.000000,-1,0.024398,-0.195728,0.235962,-0.360492,-0.021688,0.040598
"2019-04-16 11:00:30.564 +0000",1555412430.563805,2.282101,-1.506403,0.088571,0.048746,0.997927,0.042009,0.000000,0.000000,0.000000,-1,-0.160216,-0.805481,0.105667,-0.240625,-0.380130,-0.100267
"2019-04-16 11:00:30.584 +0000",1555412430.583854,2.344058,-1.503034,0.184196,0.048456,0.997705,0.047293,0.000000,0.000000,0.000000,-1,-0.299638,-2.198370,-0.246058,0.018851,-0.297144,-0.577887
"2019-04-16 11:00:30.604 +0000",1555412430.603904,2.243112,-1.511994,0.106479,0.045979,0.998272,0.036600,0.000000,0.000000,0.000000,-1,0.849052,-0.872532,-0.029509,-0.344700,-0.056469,-0.040018
"2019-04-16 11:00:30.624 +0000",1555412430.623953,2.010254,-1.520272,-0.107033,0.045704,0.998724,0.021486,0.000000,0.000000,0.000000,-1,0.528822,-0.836598,-0.093347,-0.064243,0.009363,-0.502718
"2019-04-16 11:00:30.644 +0000",1555412430.644004,1.858673,-1.524134,-0.247925,0.044726,0.998911,0.013244,0.000000,0.000000,0.000000,-1,0.288773,-0.443108,-0.029100,-0.115954,0.039174,-0.120543
"2019-04-16 11:00:30.664 +0000",1555412430.664052,1.768299,-1.524668,-0.322218,0.045219,0.998936,0.009049,0.000000,0.000000,0.000000,-1,0.148975,-1.203554,0.084313,-0.076576,-0.237919,-0.118851
"2019-04-16 11:00:30.684 +0000",1555412430.684102,1.603309,-1.523051,-0.459209,0.047704,0.998860,0.001552,0.000000,0.000000,0.000000,-1,0.473539,-1.511666,0.107783,-0.154057,-0.181096,-0.177043
"2019-04-16 11:00:30.704 +0000",1555412430.704152,1.370683,-1.522621,-0.660535,0.047196,0.998840,-0.009573,0.000000,0.000000,0.000000,-1,0.406998,-1.638422,-0.116551,-0.252351,-0.082580,-0.214167
"2019-04-16 11:00:30.724 +0000",1555412430.724202,1.171507,-1.524890,-0.830509,0.042280,0.998946,-0.017840,0.000000,0.000000,0.000000,-1,0.315506,-1.284748,-0.293248,-0.200986,0.037537,-0.183744
"2019-04-16 11:00:30.744 +0000",1555412430.744251,1.008943,-1.527417,-0.964219,0.036699,0.999059,-0.023103,0.000000,0.000000,0.000000,-1,0.054546,-1.743201,-0.047944,-0.161393,0.108454,-0.104033
"2019-04-16 11:00:30.764 +0000",1555412430.764301,1.016788,-1.524867,-0.917314,0.039047,0.998945,-0.024156,0.000000,0.000000,0.000000,-1,-0.027346,-2.011487,0.289509,-0.035416,0.169588,-0.025023
"2019-04-16 11:00:30.784 +0000",1555412430.784351,1.051270,-1.519263,-0.843793,0.044712,0.998672,-0.025572,0.000000,0.000000,0.000000,-1,0.007528,-1.907467,0.389903,0.137310,0.055130,0.026793
"2019-04-16 11:00:30.804 +0000",1555412430.804400,1.071604,-1.511936,-0.787677,0.051646,0.998268,-0.028160,0.000000,0.000000,0.000000,-1,0.112137,-1.689938,0.428449,0.168019,-0.030190,-0.037849
"2019-04-16 11:00:30.824 +0000",1555412430.824449,1.049956,-1.504707,-0.778579,0.057285,0.997817,-0.032863,0.000000,0.000000,0.000000,-1,0.194403,-1.425835,0.290699,0.161633,-0.057143,0.014598
"2019-04-16 11:00:30.844 +0000",1555412430.844499,1.005316,-1.498352,-0.792587,0.061115,0.997377,-0.038784,0.000000,0.000000,0.000000,-1,0.217428,-1.548551,0.147748,0.090923,-0.134203,0.003140
"2019-04-16 11:00:30.865 +0000",1555412430.864548,0.912603,-1.493912,-0.855357,0.060764,0.997046,-0.046984,0.000000,0.000000,0.000000,-1,0.379528,-1.490781,-0.011006,0.019665,-0.170142,0.065478
"2019-04-16 11:00:30.885 +0000",1555412430.884598,0.793963,-1.489371,-0.944513,0.058003,0.996687,-0.057018,0.000000,0.000000,0.000000,-1,0.438316,-1.478067,-0.087757,0.034344,-0.086042,0.130717
"2019-04-16 11:00:30.905 +0000",1555412430.904647,0.671719,-1.484264,-1.039147,0.053785,0.996258,-0.067650,0.000000,0.000000,0.000000,-1,0.468186,-1.280895,-0.125206,0.108156,-0.026959,0.110725
"2019-04-16 11:00:30.925 +0000",1555412430.924698,0.569736,-1.479150,-1.118659,0.049365,0.995803,-0.077062,0.000000,0.000000,0.000000,-1,0.347877,-1.032152,-0.150255,0.132916,-0.016784,0.182775
"2019-04-16 11:00:30.945 +0000",1555412430.944747,0.483582,-1.475904,-1.185295,0.044054,0.995501,-0.083886,0.000000,0.000000,0.000000,-1,0.240810,-0.978620,-0.181533,0.084562,-0.010211,0.188622
"2019-04-16 11:00:30.965 +0000",1555412430.964797,0.410160,-1.473514,-1.239306,0.038731,0.995272,-0.089072,0.000000,0.000000,0.000000,-1,0.232530,-0.943882,-0.166628,0.074307,0.025083,0.167457
"2019-04-16 11:00:30.985 +0000",1555412430.984846,0.346682,-1.471496,-1.283821,0.033685,0.995074,-0.093239,0.000000,0.000000,0.000000,-1,0.098249,-0.934646,-0.138139,0.168281,0.066785,0.096443
"2019-04-16 11:00:31.005 +0000",1555412431.004896,0.307841,-1.471311,-1.304689,0.030095,0.995055,-0.094653,0.000000,0.000000,0.000000,-1,-0.044232,-0.927515,-0.071224,0.168483,0.133576,0.128390
"2019-04-16 11:00:31.025 +0000",1555412431.024946,0.280237,-1.474297,-1.312943,0.026649,0.995348,-0.092591,0.000000,0.000000,0.000000,-1,-0.174432,-0.962752,-0.049099,0.050835,0.083540,0.166093
"2019-04-16 11:00:31.045 +0000",1555412431.044995,0.263430,-1.477698,-1.310927,0.024207,0.995669,-0.089756,0.000000,0.000000,0.000000,-1,-0.183745,-0.996292,-0.007449,0.015878,0.118695,0.170506
"2019-04-16 11:00:31.065 +0000",1555412431.065044,0.255833,-1.481897,-1.295564,0.022466,0.996051,-0.085892,0.000000,0.000000,0.000000,-1,-0.231614,-1.234579,0.044936,0.052408,0.125668,0.214036
"2019-04-16 11:00:31.085 +0000",1555412431.085095,0.253247,-1.486758,-1.271331,0.021031,0.996471,-0.081262,0.000000,0.000000,0.000000,-1,-0.271363,-1.446923,0.039654,-0.012776,0.109837,0.271555
"2019-04-16 11:00:31.105 +0000",1555412431.105143,0.254002,-1.491674,-1.239058,0.019861,0.996871,-0.076504,0.000000,0.000000,0.000000,-1,-0.253335,-1.642095,0.109259,-0.016580,0.062073,0.233639
"2019-04-16 11:00:31.125 +0000",1555412431.125194,0.268766,-1.495977,-1.192498,0.019849,0.997202,-0.072065,0.000000,0.000000,0.000000,-1,-0.272002,-1.571524,0.140129,-0.084805,0.014928,0.161451
"2019-04-16 11:00:31.145 +0000",1555412431.145243,0.318630,-1.500459,-1.109071,0.022016,0.997527,-0.066741,0.000000,0.000000,0.000000,-1,-0.268524,-1.756738,0.391233,-0.072446,0.005692,-0.018449
"2019-04-16 11:00:31.165 +0000",1555412431.165292,0.465801,-1.500336,-0.928472,0.031620,0.997519,-0.062902,0.000000,0.000000,0.000000,-1,-0.290131,-1.380129,0.790297,0.148998,0.075144,-0.379298
"2019-04-16 11:00:31.185 +0000",1555412431.185342,0.737957,-1.497020,-0.632265,0.049589,0.997280,-0.054533,0.000000,0.000000,0.000000,-1,-0.649044,-0.976203,1.110536,-0.003370,-0.071758,-0.376421
"2019-04-16 11:00:31.205 +0000",1555412431.205392,1.026240,-1.492376,-0.325698,0.067009,0.996927,-0.040583,0.000000,0.000000,0.000000,-1,-0.790296,-0.826440,0.566505,-0.473762,-0.109399,-0.333150
"2019-04-16 11:00:31.225 +0000",1555412431.225441,1.211250,-1.495047,-0.115188,0.070839,0.997132,-0.026627,0.000000,0.000000,0.000000,-1,-0.822925,-1.891471,-0.068192,-0.551872,-0.230332,-0.210861
"2019-04-16 11:00:31.245 +0000",1555412431.245490,1.382507,-1.506214,0.109661,0.063396,0.997915,-0.012080,0.000000,0.000000,0.000000,-1,-0.945060,-3.215137,-0.542734,-0.615062,-0.147802,-0.051534
"2019-04-16 11:00:31.266 +0000",1555412431.265540,1.612413,-1.520460,0.400390,0.050270,0.998733,0.002093,0.000000,0.000000,0.000000,-1,-0.751968,-2.452701,-0.610094,-0.505699,0.138779,-0.051623
"2019-04-16 11:00:31.286 +0000",1555412431.285590,1.897356,-1.524958,0.728503,0.043401,0.998950,0.014699,0.000000,0.000000,0.000000,-1,-0.788016,-2.097556,-0.003876,-0.047002,0.412488,-0.150426
"2019-04-16 11:00:31.306 +0000",1555412431.305640,2.149224,-1.516580,1.026848,0.045375,0.998531,0.029627,0.000000,0.000000,0.000000,-1,-0.828211,-2.078963,-0.002923,0.363026,0.512562,-0.064249
"2019-04-16 11:00:31.326 +0000",1555412431.325689,2.355125,-1.509199,1.264590,0.043575,0.998103,0.043482,0.000000,0.000000,0.000000,-1,-0.718714,-1.244758,-0.230733,0.184254,0.301762,0.138800
"2019-04-16 11:00:31.346 +0000",1555412431.345738,2.528322,-1.502123,1.461360,0.039495,0.997643,0.056117,0.000000,0.000000,0.000000,-1,-0.604096,-1.094533,-0.249779,0.159068,-0.014458,0.103276
"2019-04-16 11:00:31.366 +0000",1555412431.365788,2.627781,-1.496769,1.581385,0.036351,0.997261,0.064410,0.000000,0.000000,0.000000,-1,-0.310854,-0.963378,-0.166911,0.048137,-0.118309,0.048017
"2019-04-16 11:00:31.386 +0000",1555412431.385838,2.660428,-1.494216,1.633499,0.035407,0.997069,0.067818,0.000000,0.000000,0.000000,-1,-0.123494,-0.982456,-0.028666,0.085702,-0.152907,0.075721
"2019-04-16 11:00:31.406 +0000",1555412431.405887,2.657194,-1.492324,1.649038,0.036505,0.996923,0.069373,0.000000,0.000000,0.000000,-1,-0.113499,-0.835037,-0.014867,0.072916,-0.093145,0.079476
"2019-04-16 11:00:31.426 +0000",1555412431.425938,2.677615,-1.491174,1.681601,0.035594,0.996832,0.071129,0.000000,0.000000,0.000000,-1,-0.086644,-0.354938,-0.126219,-0.014476,-0.152288,0.146034
"2019-04-16 11:00:31.446 +0000",1555412431.445987,2.715455,-1.491931,1.723510,0.032566,0.996892,0.071738,0.000000,0.000000,0.000000,-1,0.008977,-0.066974,-0.182792,-0.013584,-0.172353,0.110513
"2019-04-16 11:00:31.466 +0000",1555412431.466036,2.761073,-1.494086,1.769603,0.028463,0.997059,0.071154,0.000000,0.000000,0.000000,-1,0.041632,-0.080131,-0.202991,0.041163,-0.222447,0.104979
"2019-04-16 11:00:31.486 +0000",1555412431.486086,2.808750,-1.495986,1.821343,0.024420,0.997203,0.070639,0.000000,0.000000,0.000000,-1,-0.012021,-0.275091,-0.232882,0.015161,-0.336635,0.054193
"2019-04-16 11:00:31.506 +0000",1555412431.506136,2.864140,-1.496470,1.882147,0.020340,0.997239,0.071417,0.000000,0.000000,0.000000,-1,-0.049342,-0.194646,-0.148671,-0.048416,-0.410890,0.153818
"2019-04-16 11:00:31.526 +0000",1555412431.526185,2.881263,-1.497086,1.901439,0.018956,0.997285,0.071162,0.000000,0.000000,0.000000,-1,0.068100,-0.096383,-0.052337,-0.089238,-0.365266,0.199575
"2019-04-16 11:00:31.546 +0000",1555412431.546235,2.899794,-1.500676,1.922187,0.016776,0.997543,0.068024,0.000000,0.000000,0.000000,-1,0.231140,-0.272752,-0.147908,-0.071906,-0.147887,0.161667
"2019-04-16 11:00:31.566 +0000",1555412431.566285,2.919675,-1.504880,1.949385,0.014497,0.997828,0.064252,0.000000,0.000000,0.000000,-1,0.053820,-0.474775,-0.140728,-0.068468,-0.054484,0.079928
"2019-04-16 11:00:31.586 +0000",1555412431.586335,2.958110,-1.503334,1.999555,0.012299,0.997725,0.066277,0.000000,0.000000,0.000000,-1,-0.197146,-0.591904,-0.094283,-0.087342,0.158174,-0.026009
"2019-04-16 11:00:31.606 +0000",1555412431.606384,2.969516,-1.500294,2.025088,0.012062,0.997516,0.069402,0.000000,0.000000,0.000000,-1,-0.022605,-0.815913,-0.047759,-0.019569,0.352216,0.018122
"2019-04-16 11:00:31.626 +0000",1555412431.626434,2.943272,-1.504104,2.013942,0.013130,0.997777,0.065338,0.000000,0.000000,0.000000,-1,0.313041,-0.514639,0.129066,0.222450,0.437724,0.294296
"2019-04-16 11:00:31.646 +0000",1555412431.646483,2.861774,-1.503850,1.934003,0.018476,0.997760,0.064296,0.000000,0.000000,0.000000,-1,-0.312040,0.312073,0.406673,0.487368,0.233914,0.880330
"2019-04-16 11:00:31.667 +0000",1555412431.666532,2.774082,-1.491536,1.835145,0.028448,0.996861,0.073891,0.000000,0.000000,0.000000,-1,-0.458251,0.683690,0.712520,0.445826,-0.097706,0.681114
"2019-04-16 11:00:31.687 +0000",1555412431.686582,2.651948,-1.474802,1.702019,0.045078,0.995396,0.084585,0.000000,0.000000,0.000000,-1,-0.548827,0.369779,0.889799,0.101941,-0.097020,0.068095
"2019-04-16 11:00:31.707 +0000",1555412431.706632,2.595595,-1.463098,1.636347,0.055816,0.994206,0.091862,0.000000,0.000000,0.000000,-1,-0.036049,0.409549,0.312250,-0.082718,0.016063,0.050838
"2019-04-16 11:00:31.727 +0000",1555412431.726682,2.562272,-1.465178,1.602699,0.057714,0.994428,0.088220,0.000000,0.000000,0.000000,-1,0.250907,-0.434485,-0.288702,-0.502950,-0.010556,0.004355
"2019-04-16 11:00:31.747 +0000",1555412431.746731,2.636779,-1.476071,1.691346,0.045744,0.995517,0.082785,0.000000,0.000000,0.000000,-1,0.223073,-0.909721,-0.900330,-0.802764,0.283810,-0.346869
"2019-04-16 11:00:31.767 +0000",1555412431.766781,2.884249,-1.479802,1.949442,0.023127,0.995863,0.087877,0.000000,0.000000,0.000000,-1,-0.864488,0.026711,-1.342668,-0.447749,0.623491,0.152373
"2019-04-16 11:00:31.787 +0000",1555412431.786831,3.105114,-1.462226,2.172489,0.003952,0.994112,0.108285,0.000000,0.000000,0.000000,-1,-0.713477,-0.190041,-0.451492,-0.031174,0.026411,-0.025902
"2019-04-16 11:00:31.807 +0000",1555412431.806881,-3.137035,-1.464293,2.214638,-0.000484,0.994334,0.106301,0.000000,0.000000,0.000000,-1,0.861672,0.296076,-0.146747,-0.063877,-0.389140,-0.969049
"2019-04-16 11:00:31.827 +0000",1555412431.826930,-3.079493,-1.484164,2.261664,-0.005370,0.996250,0.086355,0.000000,0.000000,0.000000,-1,0.805372,0.404674,-0.206772,-0.178880,-0.379291,-0.476874
"2019-04-16 11:00:31.847 +0000",1555412431.846979,-3.034730,-1.490856,2.311008,-0.008517,0.996806,0.079398,0.000000,0.000000,0.000000,-1,0.033024,-0.858464,-0.103118,-0.091474,-0.042827,-0.066062
"2019-04-16 11:00:31.867 +0000",1555412431.867029,-3.051586,-1.490171,2.319610,-0.007239,0.996752,0.080212,0.000000,0.000000,0.000000,-1,-0.001209,-1.490275,0.064927,-0.264138,0.225401,0.008533
"2019-04-16 11:00:31.887 +0000",1555412431.887078,-3.118220,-1.494848,2.281498,-0.001773,0.997117,0.075853,0.000000,0.000000,0.000000,-1,0.451907,-1.313048,0.270972,-0.445996,0.209517,-0.215151
"2019-04-16 11:00:31.907 +0000",1555412431.907128,3.008620,-1.504477,2.149577,0.008786,0.997802,0.065684,0.000000,0.000000,0.000000,-1,0.487832,-1.248911,0.676820,-0.214444,0.007646,-0.217494
"2019-04-16 11:00:31.927 +0000",1555412431.927178,2.701753,-1.506665,1.870919,0.027289,0.997944,0.057989,0.000000,0.000000,0.000000,-1,0.256722,-1.600157,0.912508,0.013025,-0.113484,-0.099493
"2019-04-16 11:00:31.947 +0000",1555412431.947228,2.423411,-1.500512,1.625845,0.046211,0.997531,0.052882,0.000000,0.000000,0.000000,-1,0.140714,-1.775456,0.747889,0.051049,-0.179248,-0.119227
"2019-04-16 11:00:31.967 +0000",1555412431.967277,2.278120,-1.495078,1.519328,0.057499,0.997135,0.049155,0.000000,0.000000,0.000000,-1,0.038268,-2.134352,0.177636,0.171581,-0.020145,-0.108146
"2019-04-16 11:00:31.987 +0000",1555412431.987327,2.237596,-1.495008,1.522837,0.059498,0.997129,0.046829,0.000000,0.000000,0.000000,-1,-0.024199,-2.103976,-0.122626,0.117733,-0.093168,-0.020843
"2019-04-16 11:00:32.007 +0000",1555412432.007376,2.221523,-1.498820,1.545886,0.057218,0.997411,0.043563,0.000000,0.000000,0.000000,-1,0.118537,-1.800002,-0.260254,0.125582,-0.076558,0.017884
"2019-04-16 11:00:32.027 +0000",1555412432.027426,2.198036,-1.505957,1.557157,0.052459,0.997899,0.038028,0.000000,0.000000,0.000000,-1,0.220932,-1.662796,-0.354075,0.125901,-0.013173,0.054563
"2019-04-16 11:00:32.047 +0000",1555412432.047475,2.197276,-1.515994,1.588677,0.044373,0.998499,0.032114,0.000000,0.000000,0.000000,-1,0.221619,-1.569737,-0.583742,0.168808,-0.014200,0.163793
"2019-04-16 11:00:32.068 +0000",1555412432.067526,2.269626,-1.530602,1.690760,0.030764,0.999192,0.025851,0.000000,0.000000,0.000000,-1,0.306320,-1.353416,-0.807951,0.269712,-0.045274,0.176466
"2019-04-16 11:00:32.088 +0000",1555412432.087575,2.516647,-1.547204,1.962095,0.013800,0.999722,0.019130,0.000000,0.000000,0.000000,-1,0.265866,-1.113734,-0.918226,0.320901,-0.062435,0.198781
"2019-04-16 11:00:32.108 +0000",1555412432.107625,-2.675007,-1.554505,3.072873,-0.007326,0.999867,0.014545,0.000000,0.000000,0.000000,-1,0.222006,-0.806975,-1.229325,0.281450,-0.100163,0.209577
"2019-04-16 11:00:32.128 +0000",1555412432.127674,-1.914845,-1.534924,-2.432193,-0.033760,0.999357,0.012096,0.000000,0.000000,0.000000,-1,0.009915,-1.052309,-1.328991,0.191566,-0.153562,0.156086
"2019-04-16 11:00:32.148 +0000",1555412432.147724,-1.795164,-1.509813,-2.291840,-0.059416,0.998141,0.013559,0.000000,0.000000,0.000000,-1,0.001955,-0.996829,-1.130421,0.093077,-0.131274,0.169302
"2019-04-16 11:00:32.168 +0000",1555412432.167773,-1.751254,-1.495482,-2.230731,-0.074021,0.997165,0.013505,0.000000,0.000000,0.000000,-1,0.156484,-0.533955,-0.423422,0.230332,0.002423,0.032974
"2019-04-16 11:00:32.188 +0000",1555412432.187824,-1.710070,-1.493070,-2.179620,-0.076896,0.996981,0.010779,0.000000,0.000000,0.000000,-1,0.169078,-0.484787,0.129750,0.318656,0.103590,0.048257
"2019-04-16 11:00:32.208 +0000",1555412432.207872,-1.696645,-1.500005,-2.157193,-0.070174,0.997495,0.008878,0.000000,0.000000,0.000000,-1,0.099996,-0.428914,0.517186,0.284972,-0.003446,0.064517
"2019-04-16 11:00:32.228 +0000",1555412432.227923,-1.706031,-1.513759,-2.157168,-0.056487,0.998374,0.007686,0.000000,0.000000,0.000000,-1,0.174057,-0.258821,0.741507,0.186050,-0.070273,0.050755
"2019-04-16 11:00:32.248 +0000",1555412432.247972,-1.688474,-1.529938,-2.132456,-0.040566,0.999165,0.004796,0.000000,0.000000,0.000000,-1,0.131286,-0.496066,0.766137,0.103127,-0.141881,0.026988
"2019-04-16 11:00:32.268 +0000",1555412432.268021,-1.687806,-1.540101,-2.120466,-0.030479,0.999529,0.003583,0.000000,0.000000,0.000000,-1,0.014033,-0.742061,0.306825,0.040931,0.031172,0.178622
"2019-04-16 11:00:32.288 +0000",1555412432.288071,-1.737597,-1.543409,-2.155770,-0.027005,0.999625,0.004547,0.000000,0.000000,0.000000,-1,-0.026666,-0.643425,0.064234,-0.054218,0.164178,0.215256
"2019-04-16 11:00:32.308 +0000",1555412432.308120,-1.774172,-1.545192,-2.179775,-0.025075,0.999672,0.005171,0.000000,0.000000,0.000000,-1,0.007203,-0.529641,0.168890,0.151433,0.318611,-0.024763
"2019-04-16 11:00:32.328 +0000",1555412432.328171,-1.948683,-1.550739,-2.349704,-0.018639,0.999799,0.007399,0.000000,0.000000,0.000000,-1,-0.234016,-0.057889,0.484034,0.119622,0.378817,-0.147307
"2019-04-16 11:00:32.348 +0000",1555412432.348220,-2.768275,-1.554371,3.116377,-0.005988,0.999865,0.015287,0.000000,0.000000,0.000000,-1,-0.509365,-0.274528,0.707765,-0.006326,0.183713,-0.134794
"2019-04-16 11:00:32.368 +0000",1555412432.368271,2.826831,-1.541183,2.436600,0.009167,0.999562,0.028154,0.000000,0.000000,0.000000,-1,-0.766986,-0.476207,0.741441,-0.235378,0.157329,-0.123216
"2019-04-16 11:00:32.388 +0000",1555412432.388320,2.676021,-1.519972,2.296719,0.022807,0.998709,0.045395,0.000000,0.000000,0.000000,-1,-0.938110,-0.617688,0.559571,-0.474849,0.144800,-0.081040
"2019-04-16 11:00:32.408 +0000",1555412432.408369,2.680989,-1.498988,2.316665,0.031890,0.997423,0.064268,0.000000,0.000000,0.000000,-1,-0.958995,-0.915985,0.262862,-0.640944,0.011916,0.015856
"2019-04-16 11:00:32.428 +0000",1555412432.428419,2.722339,-1.481592,2.380707,0.036264,0.996024,0.081369,0.000000,0.000000,0.000000,-1,-0.795117,-1.258331,0.046743,-0.567194,-0.045188,0.007345
"2019-04-16 11:00:32.448 +0000",1555412432.448469,2.758557,-1.468662,2.443117,0.038105,0.994789,0.094569,0.000000,0.000000,0.000000,-1,-0.657271,-1.320764,-0.056452,-0.359974,0.117272,-0.093653
"2019-04-16 11:00:32.469 +0000",1555412432.468518,2.786226,-1.455994,2.496980,0.039856,0.993418,0.107393,0.000000,0.000000,0.000000,-1,-0.727439,-1.144805,-0.006567,0.032654,0.162955,-0.095323
"2019-04-16 11:00:32.489 +0000",1555412432.488568,2.818496,-1.441897,2.548430,0.040813,0.991704,0.121891,0.000000,0.000000,0.000000,-1,-0.848346,-0.872278,-0.122408,0.156651,0.085750,-0.001408
"2019-04-16 11:00:32.509 +0000",1555412432.508617,2.866564,-1.425295,2.617130,0.039375,0.989433,0.139540,0.000000,0.000000,0.000000,-1,-0.981185,-1.123370,-0.245364,0.000648,0.156975,-0.051039
"2019-04-16 11:00:32.529 +0000",1555412432.528666,2.907820,-1.407674,2.682097,0.037620,0.986725,0.157983,0.000000,0.000000,0.000000,-1,-0.951470,-1.061701,-0.258150,-0.158286,0.040481,0.031242
"2019-04-16 11:00:32.549 +0000",1555412432.548717,2.936432,-1.391408,2.730642,0.036350,0.983953,0.174686,0.000000,0.000000,0.000000,-1,-0.789407,-0.923499,-0.156395,-0.217518,-0.005742,0.101331
"2019-04-16 11:00:32.569 +0000",1555412432.568766,2.945736,-1.378237,2.760476,0.037242,0.981518,0.187712,0.000000,0.000000,0.000000,-1,-0.596906,-1.087970,-0.136567,-0.150981,-0.122967,0.052751
"2019-04-16 11:00:32.589 +0000",1555412432.588816,2.948065,-1.369506,2.786563,0.038452,0.979809,0.196202,0.000000,0.000000,0.000000,-1,-0.354870,-1.207143,-0.165772,-0.132843,-0.230221,-0.028858
"2019-04-16 11:00:32.609 +0000",1555412432.608866,2.945308,-1.365503,2.807180,0.039757,0.979001,0.199940,0.000000,0.000000,0.000000,-1,-0.127902,-1.109388,-0.155663,-0.092018,-0.253095,-0.024845
"2019-04-16 11:00:32.629 +0000",1555412432.628916,2.937075,-1.365729,2.819761,0.041357,0.979047,0.199389,0.000000,0.000000,0.000000,-1,0.084617,-1.029960,-0.086842,-0.030325,-0.258527,0.000821
"2019-04-16 11:00:32.649 +0000",1555412432.648965,2.923366,-1.369651,2.827926,0.043255,0.979838,0.195053,0.000000,0.000000,0.000000,-1,0.283880,-1.098062,-0.189878,0.022129,-0.273265,-0.051605
"2019-04-16 11:00:32.669 +0000",1555412432.669016,2.920895,-1.378603,2.848306,0.041815,0.981588,0.186379,0.000000,0.000000,0.000000,-1,0.478293,-1.170545,-0.376220,-0.028753,-0.306661,-0.026818
"2019-04-16 11:00:32.689 +0000",1555412432.689065,2.927380,-1.391421,2.879479,0.037927,0.983955,0.174337,0.000000,0.000000,0.000000,-1,0.677794,-1.195266,-0.461133,-0.028131,-0.283531,0.047907
"2019-04-16 11:00:32.709 +0000",1555412432.709114,2.934368,-1.409534,2.911231,0.033035,0.987025,0.157130,0.000000,0.000000,0.000000,-1,0.974569,-1.262555,-0.408011,0.035110,-0.245998,0.086752
"2019-04-16 11:00:32.729 +0000",1555412432.729164,2.928912,-1.430340,2.933053,0.029550,0.990152,0.136841,0.000000,0.000000,0.000000,-1,0.908752,-1.458492,-0.362110,-0.002726,-0.187174,0.140563
"2019-04-16 11:00:32.749 +0000",1555412432.749213,2.936663,-1.446109,2.971048,0.025308,0.992237,0.121763,0.000000,0.000000,0.000000,-1,0.487635,-1.459034,-0.450736,-0.133539,-0.055210,0.223025
"2019-04-16 11:00:32.769 +0000",1555412432.769263,2.974783,-1.451989,3.036440,0.019680,0.992951,0.116883,0.000000,0.000000,0.000000,-1,-0.048323,-1.256247,-0.378547,-0.046246,0.191528,0.221496
"2019-04-16 11:00:32.789 +0000",1555412432.789313,2.995734,-1.448913,3.083584,0.017671,0.992581,0.120291,0.000000,0.000000,0.000000,-1,-0.213965,-1.414730,-0.089442,0.212935,0.302463,0.135538
"2019-04-16 11:00:32.809 +0000",1555412432.809362,2.957559,-1.447937,3.075164,0.022426,0.992462,0.120482,0.000000,0.000000,0.000000,-1,0.108821,-1.413661,0.168734,0.356785,0.385376,0.090654
"2019-04-16 11:00:32.829 +0000",1555412432.829412,2.906998,-1.446478,3.046640,0.028823,0.992282,0.120602,0.000000,0.000000,0.000000,-1,-0.271557,-0.791929,0.229256,0.275345,0.420666,0.701587
"2019-04-16 11:00:32.849 +0000",1555412432.849462,2.888198,-1.435487,3.037743,0.033817,0.990860,0.130589,0.000000,0.000000,0.000000,-1,-0.650050,-0.237546,0.133917,0.070309,0.139435,0.703548
"2019-04-16 11:00:32.870 +0000",1555412432.869511,2.900830,-1.423475,3.049641,0.035001,0.989168,0.142555,0.000000,0.000000,0.000000,-1,-0.514815,0.172671,-0.051864,0.088443,0.003355,0.149529
"2019-04-16 11:00:32.890 +0000",1555412432.889561,2.969614,-1.415704,3.118882,0.026435,0.987997,0.152193,0.000000,0.000000,0.000000,-1,-0.447225,-0.205501,-0.828851,-0.122031,0.302088,0.035719
"2019-04-16 11:00:32.910 +0000",1555412432.909611,3.093042,-1.409191,-3.028685,0.007809,0.986970,0.160714,0.000000,0.000000,0.000000,-1,-0.363870,-0.726482,-1.134744,-0.160290,0.592162,-0.043359
"2019-04-16 11:00:32.930 +0000",1555412432.929660,-3.080986,-1.402434,-2.903303,-0.010150,0.985861,0.167260,0.000000,0.000000,0.000000,-1,-0.339336,-0.654797,-0.842129,-0.175275,0.249171,0.158088
"2019-04-16 11:00:32.950 +0000",1555412432.949710,-3.030633,-1.395195,-2.841174,-0.019345,0.984622,0.173625,0.000000,0.000000,0.000000,-1,-0.226840,-0.497605,-0.278107,-0.187397,-0.012484,0.152212
"2019-04-16 11:00:32.970 +0000",1555412432.969760,-3.028232,-1.394390,-2.828636,-0.019851,0.984481,0.174366,0.000000,0.000000,0.000000,-1,0.222302,-0.502429,0.026310,-0.240311,-0.439742,-0.397557
"2019-04-16 11:00:32.990 +0000",1555412432.989810,-3.036589,-1.403246,-2.828349,-0.017479,0.985996,0.165850,0.000000,0.000000,0.000000,-1,0.658199,-0.332863,0.050773,-0.205757,-0.397129,-0.456347
"2019-04-16 11:00:33.010 +0000",1555412433.009859,-3.034897,-1.417857,-2.819225,-0.016224,0.988328,0.151477,0.000000,0.000000,0.000000,-1,0.738787,-0.459023,-0.039703,-0.077099,-0.175354,-0.317951
"2019-04-16 11:00:33.030 +0000",1555412433.029909,-3.004034,-1.433254,-2.781625,-0.018801,0.990556,0.135815,0.000000,0.000000,0.000000,-1,0.906195,-0.107537,-0.296910,-0.043882,0.053115,-0.157711
"2019-04-16 11:00:33.050 +0000",1555412433.049957,-2.909871,-1.452533,-2.686631,-0.027096,0.993015,0.114835,0.000000,0.000000,0.000000,-1,1.363759,0.299139,-0.579059,-0.098773,0.105816,-0.142621
"2019-04-16 11:00:33.070 +0000",1555412433.070008,-2.727496,-1.475346,-2.505529,-0.038347,0.995448,0.087249,0.000000,0.000000,0.000000,-1,1.062398,-0.542982,-0.370948,-0.038832,0.075917,-0.178511
"2019-04-16 11:00:33.090 +0000",1555412433.090057,-2.655310,-1.481596,-2.409362,-0.041631,0.996024,0.078754,0.000000,0.000000,0.000000,-1,0.070690,-1.381332,-0.282043,0.068853,-0.188041,-0.410236
"2019-04-16 11:00:33.110 +0000",1555412433.110106,-2.603030,-1.479345,-2.335694,-0.046841,0.995821,0.078397,0.000000,0.000000,0.000000,-1,0.127931,-0.698588,-0.361432,-0.084232,0.004408,0.001238
"2019-04-16 11:00:33.130 +0000",1555412433.130157,-2.542563,-1.477929,-2.261889,-0.052287,0.995691,0.076587,0.000000,0.000000,0.000000,-1,0.029030,-0.892137,-0.204554,0.006755,0.042548,-0.047122
"2019-04-16 11:00:33.150 +0000",1555412433.150206,-2.544960,-1.476658,-2.242930,-0.052814,0.995572,0.077759,0.000000,0.000000,0.000000,-1,0.031923,-1.145697,-0.011067,0.072620,-0.000608,-0.118011
"2019-04-16 11:00:33.170 +0000",1555412433.170256,-2.557163,-1.478329,-2.233126,-0.050944,0.995728,0.077011,0.000000,0.000000,0.000000,-1,0.156299,-1.010661,0.006232,0.037333,-0.011292,-0.020950
"2019-04-16 11:00:33.190 +0000",1555412433.190305,-2.560575,-1.480676,-2.214883,-0.049398,0.995942,0.075231,0.000000,0.000000,0.000000,-1,0.138992,-1.132027,-0.002265,0.096960,-0.074937,-0.045430
"2019-04-16 11:00:33.210 +0000",1555412433.210355,-2.561997,-1.482913,-2.192398,-0.048071,0.996141,0.073437,0.000000,0.000000,0.000000,-1,0.154332,-1.216691,-0.049151,0.149817,-0.068681,-0.047345
"2019-04-16 11:00:33.230 +0000",1555412433.230405,-2.544395,-1.484503,-2.151121,-0.048465,0.996279,0.071269,0.000000,0.000000,0.000000,-1,0.205833,-1.092293,-0.146294,0.145175,-0.071551,0.025991
"2019-04-16 11:00:33.250 +0000",1555412433.250454,-2.497551,-1.485937,-2.083135,-0.050890,0.996402,0.067778,0.000000,0.000000,0.000000,-1,0.243456,-1.018794,-0.241298,0.141619,-0.106189,0.047762
"2019-04-16 11:00:33.271 +0000",1555412433.270504,-2.427951,-1.485750,-1.993625,-0.055603,0.996386,0.064216,0.000000,0.000000,0.000000,-1,0.218573,-0.923367,-0.346086,0.127854,-0.088610,0.078210
"2019-04-16 11:00:33.291 +0000",1555412433.290554,-2.347938,-1.482965,-1.895899,-0.062537,0.996145,0.061512,0.000000,0.000000,0.000000,-1,0.147145,-0.795230,-0.454220,0.125204,-0.083761,0.125332
"2019-04-16 11:00:33.311 +0000",1555412433.310603,-2.275359,-1.476537,-1.808334,-0.071709,0.995561,0.060961,0.000000,0.000000,0.000000,-1,0.002864,-0.680866,-0.526217,0.159447,-0.077790,0.179532
"2019-04-16 11:00:33.331 +0000",1555412433.330653,-2.237562,-1.467433,-1.757193,-0.081081,0.994663,0.063811,0.000000,0.000000,0.000000,-1,-0.181968,-0.626956,-0.473326,0.223583,-0.015964,0.195558
"2019-04-16 11:00:33.351 +0000",1555412433.350703,-2.251191,-1.459250,-1.759093,-0.086527,0.993785,0.070028,0.000000,0.000000,0.000000,-1,-0.239764,-0.509499,-0.303761,0.279826,0.012074,0.163615
"2019-04-16 11:00:33.371 +0000",1555412433.370752,-2.284523,-1.453859,-1.783915,-0.088196,0.993171,0.076380,0.000000,0.000000,0.000000,-1,-0.161612,-0.326431,-0.104002,0.338501,-0.034659,0.138662
"2019-04-16 11:00:33.391 +0000",1555412433.390803,-2.328998,-1.452261,-1.822817,-0.085864,0.992983,0.081316,0.000000,0.000000,0.000000,-1,-0.001347,-0.212033,0.050095,0.336856,-0.059435,0.070097
"2019-04-16 11:00:33.411 +0000",1555412433.410852,-2.384017,-1.454207,-1.873640,-0.079935,0.993211,0.084511,0.000000,0.000000,0.000000,-1,0.037183,-0.218648,0.107863,0.308694,-0.134126,0.029136
"2019-04-16 11:00:33.431 +0000",1555412433.430902,-2.435849,-1.456172,-1.920710,-0.074183,0.993438,0.087054,0.000000,0.000000,0.000000,-1,0.004141,-0.228293,0.082158,0.229411,-0.201415,-0.054690
"2019-04-16 11:00:33.451 +0000",1555412433.450952,-2.493566,-1.458844,-1.970076,-0.067435,0.993740,0.089070,0.000000,0.000000,0.000000,-1,0.003236,-0.633650,0.241575,0.106497,-0.128567,-0.073980
"2019-04-16 11:00:33.471 +0000",1555412433.471002,-2.583294,-1.464779,-2.044916,-0.056057,0.994385,0.089751,0.000000,0.000000,0.000000,-1,0.142160,-0.749940,0.598692,-0.160313,0.158706,-0.129210
"2019-04-16 11:00:33.491 +0000",1555412433.491051,-2.712276,-1.475694,-2.162687,-0.039526,0.995481,0.086340,0.000000,0.000000,0.000000,-1,0.187601,-0.412700,0.909317,-0.246058,0.139437,-0.213796
"2019-04-16 11:00:33.511 +0000",1555412433.511100,-2.918276,-1.481089,-2.358715,-0.019841,0.995979,0.087363,0.000000,0.000000,0.000000,-1,-0.223860,-0.664732,0.923422,-0.269771,0.419655,-0.162391
"2019-04-16 11:00:33.531 +0000",1555412433.531151,-3.113453,-1.475707,-2.543130,-0.002671,0.995482,0.094909,0.000000,0.000000,0.000000,-1,-0.499431,-0.357015,0.644845,-0.239150,0.625733,-0.176422
"2019-04-16 11:00:33.551 +0000",1555412433.551199,3.069988,-1.464892,-2.641950,0.007563,0.994397,0.105436,0.000000,0.000000,0.000000,-1,-0.520280,0.162178,0.367818,-0.263758,0.321612,-0.277799
"2019-04-16 11:00:33.571 +0000",1555412433.571250,3.046803,-1.453231,-2.670416,0.011102,0.993097,0.116767,0.000000,0.000000,0.000000,-1,-0.671724,0.292628,0.032017,-0.354974,0.057455,-0.173942
"2019-04-16 11:00:33.591 +0000",1555412433.591299,3.081620,-1.437138,-2.641659,0.007987,0.991081,0.133022,0.000000,0.000000,0.000000,-1,-0.903260,0.370334,-0.230259,-0.371574,0.059349,0.133793
"2019-04-16 11:00:33.611 +0000",1555412433.611349,-3.140549,-1.420220,-2.588160,-0.000157,0.988685,0.150008,0.000000,0.000000,0.000000,-1,-0.799020,0.270016,-0.427486,-0.048763,0.357385,0.189271
"2019-04-16 11:00:33.631 +0000",1555412433.631398,-3.089943,-1.403806,-2.538014,-0.008581,0.986090,0.165993,0.000000,0.000000,0.000000,-1,-0.862238,-0.146025,-0.386755,0.305838,0.412378,-0.006066
"2019-04-16 11:00:33.651 +0000",1555412433.651449,-3.045116,-1.385627,-2.493164,-0.017735,0.982905,0.183257,0.000000,0.000000,0.000000,-1,-0.811762,0.265614,-0.577022,0.240803,0.304952,0.069642
"2019-04-16 11:00:33.671 +0000",1555412433.671498,-2.984119,-1.368909,-2.438972,-0.031446,0.979690,0.198037,0.000000,0.000000,0.000000,-1,-0.721652,0.440852,-0.624982,0.025526,-0.054916,-0.014062
"2019-04-16 11:00:33.692 +0000",1555412433.691547,-2.930540,-1.352234,-2.392136,-0.045423,0.976210,0.212015,0.000000,0.000000,0.000000,-1,-0.709395,0.319358,-0.646219,-0.100100,-0.255705,-0.069299
"2019-04-16 11:00:33.712 +0000",1555412433.711598,-2.887840,-1.335368,-2.353026,-0.058557,0.972414,0.225790,0.000000,0.000000,0.000000,-1,-0.751509,0.123369,-0.544728,-0.053092,-0.106661,-0.036444
"2019-04-16 11:00:33.732 +0000",1555412433.731647,-2.861112,-1.317340,-2.324675,-0.069412,0.968052,0.240953,0.000000,0.000000,0.000000,-1,-0.765395,-0.066384,-0.642869,-0.122589,-0.111682,0.044875
"2019-04-16 11:00:33.752 +0000",1555412433.751697,-2.829484,-1.300884,-2.292570,-0.081878,0.963794,0.253764,0.000000,0.000000,0.000000,-1,-0.560349,0.045584,-0.593314,-0.120240,-0.008411,0.062596
"2019-04-16 11:00:33.772 +0000",1555412433.771746,-2.804613,-1.289016,-2.267616,-0.091939,0.960562,0.262427,0.000000,0.000000,0.000000,-1,-0.375838,0.050399,-0.417717,0.037084,-0.130667,-0.033301
"2019-04-16 11:00:33.792 +0000",1555412433.791797,-2.785461,-1.280609,-2.251779,-0.099760,0.958190,0.268178,0.000000,0.000000,0.000000,-1,-0.247081,0.357886,-0.292676,0.049727,-0.283935,0.016933
"2019-04-16 11:00:33.812 +0000",1555412433.811846,-2.763513,-1.274838,-2.238881,-0.107661,0.956523,0.271058,0.000000,0.000000,0.000000,-1,-0.173359,0.587444,-0.281983,0.029323,-0.239864,-0.027925
"2019-04-16 11:00:33.832 +0000",1555412433.831897,-2.737273,-1.268352,-2.225562,-0.117174,0.954611,0.273838,0.000000,0.000000,0.000000,-1,-0.294739,0.822100,-0.303820,-0.054335,-0.168875,0.049511
"2019-04-16 11:00:33.852 +0000",1555412433.851946,-2.712393,-1.259639,-2.215634,-0.127407,0.951980,0.278392,0.000000,0.000000,0.000000,-1,-0.369141,0.668458,-0.287874,-0.133869,-0.154601,0.035527
"2019-04-16 11:00:33.872 +0000",1555412433.871994,-2.700021,-1.250445,-2.214564,-0.134576,0.949125,0.284695,0.000000,0.000000,0.000000,-1,-0.414961,0.474708,-0.113776,-0.064185,-0.240141,0.068195
"2019-04-16 11:00:33.892 +0000",1555412433.892045,-2.697819,-1.244181,-2.220842,-0.137753,0.947134,0.289762,0.000000,0.000000,0.000000,-1,-0.169595,0.339394,0.030040,-0.065113,-0.277532,0.036959
"2019-04-16 11:00:33.912 +0000",1555412433.912094,-2.697487,-1.242435,-2.227430,-0.138559,0.946572,0.291209,0.000000,0.000000,0.000000,-1,-0.072803,0.327125,0.091163,-0.034476,-0.363366,0.057164
"2019-04-16 11:00:33.932 +0000",1555412433.932145,-2.698183,-1.243602,-2.234910,-0.137882,0.946948,0.290307,0.000000,0.000000,0.000000,-1,0.087675,0.291854,0.179161,0.042255,-0.208102,0.074469
"2019-04-16 11:00:33.952 +0000",1555412433.952194,-2.700361,-1.249238,-2.242629,-0.134969,0.948744,0.285777,0.000000,0.000000,0.000000,-1,0.328748,0.218333,0.294087,0.122945,-0.151396,0.063634
"2019-04-16 11:00:33.972 +0000",1555412433.972244,-2.702649,-1.260084,-2.249732,-0.129933,0.952116,0.276753,0.000000,0.000000,0.000000,-1,0.537823,0.252222,0.341575,0.145421,-0.098310,0.097850
"2019-04-16 11:00:33.992 +0000",1555412433.992294,-2.699967,-1.273927,-2.252428,-0.125029,0.956257,0.264462,0.000000,0.000000,0.000000,-1,0.683899,0.245122,0.332336,0.149809,-0.094105,0.164569
"2019-04-16 11:00:34.012 +0000",1555412434.012344,-2.694542,-1.290468,-2.250727,-0.119607,0.960965,0.249482,0.000000,0.000000,0.000000,-1,0.820334,0.143750,0.340230,0.150964,-0.033078,0.159225
"2019-04-16 11:00:34.032 +0000",1555412434.032392,-2.687050,-1.308795,-2.246232,-0.113721,0.965873,0.232715,0.000000,0.000000,0.000000,-1,0.867099,0.206445,0.341368,0.136746,0.077904,0.242840
"2019-04-16 11:00:34.052 +0000",1555412434.052442,-2.689304,-1.320980,-2.249259,-0.108044,0.968958,0.222368,0.000000,0.000000,0.000000,-1,0.009261,-0.308428,0.231738,-0.047763,0.162970,0.142775
"2019-04-16 11:00:34.072 +0000",1555412434.072492,-2.669913,-1.327380,-2.227909,-0.109515,0.970520,0.214702,0.000000,0.000000,0.000000,-1,1.018552,0.035094,-0.333042,-0.875470,1.696670,-0.215068
"2019-04-16 11:00:34.093 +0000",1555412434.092541,-2.632805,-1.340801,-2.183016,-0.111050,0.973668,0.199097,0.000000,0.000000,0.000000,-1,0.516407,-0.284588,0.052517,-0.114200,0.910564,0.503464
"2019-04-16 11:00:34.113 +0000",1555412434.112592,-2.640622,-1.344266,-2.190342,-0.107869,0.974452,0.196999,0.000000,0.000000,0.000000,-1,-0.212195,0.106616,0.223398,-0.017390,-0.135355,0.325447
"2019-04-16 11:00:34.133 +0000",1555412434.132641,-2.674204,-1.343492,-2.224868,-0.101534,0.974277,0.201183,0.000000,0.000000,0.000000,-1,-0.103050,-0.204782,0.483405,-0.051848,-0.149418,-0.192744
"2019-04-16 11:00:34.153 +0000",1555412434.152691,-2.735111,-1.349802,-2.278165,-0.086667,0.975680,0.201339,0.000000,0.000000,0.000000,-1,0.173643,-0.600293,0.800495,-0.088260,-0.130526,-0.430663
"2019-04-16 11:00:34.173 +0000",1555412434.172741,-2.792037,-1.361622,-2.325324,-0.071117,0.978203,0.195094,0.000000,0.000000,0.000000,-1,0.592099,-0.453699,0.471453,-0.386891,0.123314,-0.504039
"2019-04-16 11:00:34.193 +0000",1555412434.192791,-2.798790,-1.376974,-2.322209,-0.064742,0.981275,0.181405,0.000000,0.000000,0.000000,-1,0.805823,-0.596915,0.050272,-0.460832,0.285448,-0.479287
"2019-04-16 11:00:34.213 +0000",1555412434.212840,-2.784625,-1.391203,-2.292612,-0.062419,0.983916,0.167369,0.000000,0.000000,0.000000,-1,0.677670,-0.866404,-0.004313,-0.253056,0.009126,-0.299555
"2019-04-16 11:00:34.233 +0000",1555412434.232889,-2.785356,-1.403012,-2.274320,-0.058241,0.985957,0.156514,0.000000,0.000000,0.000000,-1,0.560855,-0.981830,0.138580,-0.065325,-0.197841,-0.202504
"2019-04-16 11:00:34.253 +0000",1555412434.252939,-2.803087,-1.414491,-2.272804,-0.051695,0.987809,0.146836,0.000000,0.000000,0.000000,-1,0.513761,-0.973992,0.214277,0.010649,-0.137132,-0.144761
"2019-04-16 11:00:34.273 +0000",1555412434.272989,-2.829488,-1.426042,-2.277857,-0.044294,0.989541,0.137281,0.000000,0.000000,0.000000,-1,0.585522,-1.168327,0.244503,0.049070,-0.022439,-0.113629
"2019-04-16 11:00:34.293 +0000",1555412434.293040,-2.857545,-1.439999,-2.281173,-0.036551,0.991458,0.125199,0.000000,0.000000,0.000000,-1,0.684453,-1.292357,0.199992,0.041220,0.049664,-0.100098
"2019-04-16 11:00:34.313 +0000",1555412434.313089,-2.890152,-1.453280,-2.287547,-0.029171,0.993103,0.113558,0.000000,0.000000,0.000000,-1,0.565203,-1.257146,0.247722,0.042552,0.032211,-0.040286
"2019-04-16 11:00:34.333 +0000",1555412434.333139,-2.937382,-1.464735,-2.313334,-0.021469,0.994381,0.103664,0.000000,0.000000,0.000000,-1,0.490077,-0.915294,0.287860,0.051513,-0.065288,-0.001598
"2019-04-16 11:00:34.353 +0000",1555412434.353189,-2.997177,-1.474691,-2.356758,-0.013810,0.995385,0.094959,0.000000,0.000000,0.000000,-1,0.426232,-0.730693,0.330278,0.117325,-0.188928,-0.022144
"2019-04-16 11:00:34.373 +0000",1555412434.373237,-3.071392,-1.483927,-2.418515,-0.006086,0.996229,0.086547,0.000000,0.000000,0.000000,-1,0.443670,-0.498756,0.319471,0.167844,-0.208128,-0.004820
"2019-04-16 11:00:34.393 +0000",1555412434.393287,3.137902,-1.493388,-2.484392,0.000285,0.997005,0.077333,0.000000,0.000000,0.000000,-1,0.490157,-0.376475,0.261830,0.122288,-0.117596,0.043364
"2019-04-16 11:00:34.413 +0000",1555412434.413337,3.057259,-1.504286,-2.556905,0.005598,0.997789,0.066226,0.000000,0.000000,0.000000,-1,0.624141,-0.484376,0.225937,0.088869,-0.074617,0.034634
"2019-04-16 11:00:34.433 +0000",1555412434.433388,2.938370,-1.518937,-2.664933,0.010462,0.998656,0.050772,0.000000,0.000000,0.000000,-1,0.889456,-0.597142,0.191447,0.153112,-0.118223,-0.100409
"2019-04-16 11:00:34.453 +0000",1555412434.453437,2.733823,-1.537458,-2.859517,0.013219,0.999444,0.030600,0.000000,0.000000,0.000000,-1,1.075158,-0.392025,0.024099,0.087489,-0.146798,-0.122016
"2019-04-16 11:00:34.473 +0000",1555412434.473487,2.209947,-1.555213,2.907964,0.012514,0.999879,0.009301,0.000000,0.000000,0.000000,-1,1.026748,-0.445021,-0.061416,0.003385,-0.146683,-0.115014
"2019-04-16 11:00:34.494 +0000",1555412434.493536,0.890762,-1.556214,1.600272,0.011345,0.999894,-0.009175,0.000000,0.000000,0.000000,-1,0.831258,-0.707687,-0.056372,0.099235,0.011901,0.013158
"2019-04-16 11:00:34.514 +0000",1555412434.513586,0.339177,-1.544144,1.062312,0.008866,0.999645,-0.025130,0.000000,0.000000,0.000000,-1,0.698418,-0.612902,-0.150752,0.127532,0.227848,0.032226
"2019-04-16 11:00:34.534 +0000",1555412434.533636,0.127476,-1.534081,0.861449,0.004667,0.999326,-0.036409,0.000000,0.000000,0.000000,-1,0.465164,-0.493845,-0.225112,0.219561,0.288714,0.174546
"2019-04-16 11:00:34.554 +0000",1555412434.553685,-0.029722,-1.524811,0.712788,-0.001366,0.998943,-0.045951,0.000000,0.000000,0.000000,-1,0.475552,-0.309646,-0.315995,0.283989,0.229725,0.080939
"2019-04-16 11:00:34.574 +0000",1555412434.573735,-0.162234,-1.515130,0.584367,-0.008987,0.998451,-0.054906,0.000000,0.000000,0.000000,-1,0.413628,-0.117600,-0.449782,0.226272,0.147957,0.036626
"2019-04-16 11:00:34.594 +0000",1555412434.593785,-0.308297,-1.505919,0.439746,-0.019672,0.997896,-0.061774,0.000000,0.000000,0.000000,-1,0.266644,-0.071573,-0.579403,0.053577,0.100965,0.011130
"2019-04-16 11:00:34.614 +0000",1555412434.613836,-0.441712,-1.498517,0.308410,-0.030872,0.997389,-0.065285,0.000000,0.000000,0.000000,-1,0.060326,-0.219214,-0.499718,-0.027371,0.228350,-0.070976
"2019-04-16 11:00:34.634 +0000",1555412434.633884,-0.560884,-1.496533,0.194331,-0.039467,0.997244,-0.062827,0.000000,0.000000,0.000000,-1,-0.288798,-0.233912,-0.294477,0.029701,0.286600,-0.119729
"2019-04-16 11:00:34.654 +0000",1555412434.653934,-0.666106,-1.501950,0.089969,-0.042508,0.997631,-0.054086,0.000000,0.000000,0.000000,-1,-0.563543,0.053638,-0.012385,-0.028949,0.250217,-0.158301
"2019-04-16 11:00:34.674 +0000",1555412434.673984,-0.796068,-1.513366,-0.040132,-0.041018,0.998351,-0.040152,0.000000,0.000000,0.000000,-1,-0.854045,-0.113116,0.149331,-0.180661,0.005479,-0.136300
"2019-04-16 11:00:34.694 +0000",1555412434.694034,-1.080298,-1.526359,-0.320559,-0.039184,0.999013,-0.020925,0.000000,0.000000,0.000000,-1,-0.987842,-0.253635,0.002796,-0.527345,-0.080876,-0.023341
"2019-04-16 11:00:34.714 +0000",1555412434.714084,-1.490262,-1.529463,-0.728174,-0.041187,0.999146,-0.003324,0.000000,0.000000,0.000000,-1,-0.772553,-0.010708,-0.186931,-0.619457,-0.086609,-0.124239
"2019-04-16 11:00:34.734 +0000",1555412434.734133,-1.820776,-1.523614,-1.060878,-0.045699,0.998887,0.011668,0.000000,0.000000,0.000000,-1,-0.765008,0.174623,-0.231902,-0.428621,-0.092515,-0.068964
"2019-04-16 11:00:34.754 +0000",1555412434.754184,-2.076184,-1.513449,-1.322022,-0.050149,0.998356,0.027749,0.000000,0.000000,0.000000,-1,-0.898903,0.362742,-0.211020,-0.111869,-0.089924,0.011909
"2019-04-16 11:00:34.774 +0000",1555412434.774233,-2.301509,-1.497468,-1.555218,-0.054558,0.997313,0.048895,0.000000,0.000000,0.000000,-1,-1.261012,0.282919,-0.168086,0.149330,0.123552,0.072550
"2019-04-16 11:00:34.794 +0000",1555412434.794283,-2.502713,-1.476127,-1.756356,-0.056367,0.995522,0.075884,0.000000,0.000000,0.000000,-1,-1.281517,-0.192871,-0.058857,0.365815,0.347526,-0.066148
"2019-04-16 11:00:34.814 +0000",1555412434.814332,-2.572049,-1.457954,-1.827257,-0.060721,0.993640,0.094828,0.000000,0.000000,0.000000,-1,-0.668328,0.376841,-0.405879,0.112998,0.231427,-0.198313
"2019-04-16 11:00:34.834 +0000",1555412434.834383,-2.543842,-1.443542,-1.809013,-0.071424,0.991914,0.104905,0.000000,0.000000,0.000000,-1,-0.452502,0.542867,-0.495165,-0.022159,-0.055986,-0.115800
"2019-04-16 11:00:34.854 +0000",1555412434.854431,-2.510040,-1.430684,-1.781474,-0.082453,0.990200,0.112718,0.000000,0.000000,0.000000,-1,-0.363019,0.207410,-0.602549,-0.063193,0.048237,-0.157945
"2019-04-16 11:00:34.874 +0000",1555412434.874481,-2.459299,-1.416984,-1.732543,-0.096608,0.988194,0.118908,0.000000,0.000000,0.000000,-1,-0.274755,0.061624,-0.796579,-0.251170,-0.004811,-0.112286
"2019-04-16 11:00:34.895 +0000",1555412434.894531,-2.406079,-1.402520,-1.677049,-0.112375,0.985875,0.124186,0.000000,0.000000,0.000000,-1,-0.210229,-0.107847,-0.896674,-0.170492,-0.134862,-0.066920
"2019-04-16 11:00:34.915 +0000",1555412434.914581,-2.340815,-1.388562,-1.609046,-0.130103,0.983441,0.126162,0.000000,0.000000,0.000000,-1,0.032252,-0.105577,-0.905678,-0.091943,-0.032300,-0.061037
"2019-04-16 11:00:34.935 +0000",1555412434.934631,-2.257363,-1.377665,-1.523864,-0.148447,0.981408,0.121664,0.000000,0.000000,0.000000,-1,0.401828,0.062017,-0.971085,-0.036017,-0.143624,-0.039648
"2019-04-16 11:00:34.955 +0000",1555412434.954680,-2.156913,-1.368142,-1.423815,-0.167677,0.979536,0.111328,0.000000,0.000000,0.000000,-1,0.573112,0.199065,-0.912022,0.040312,-0.218473,0.069671
"2019-04-16 11:00:34.975 +0000",1555412434.974731,-2.068911,-1.359316,-1.339413,-0.184400,0.977721,0.100287,0.000000,0.000000,0.000000,-1,0.397837,0.354940,-0.743848,0.092649,-0.289947,0.126595
"2019-04-16 11:00:34.995 +0000",1555412434.994780,-2.008311,-1.350364,-1.287572,-0.198056,0.975803,0.092640,0.000000,0.000000,0.000000,-1,0.220908,0.555310,-0.526588,0.068585,-0.326374,0.180538
"2019-04-16 11:00:35.015 +0000",1555412435.014829,-1.966161,-1.344017,-1.252915,-0.207495,0.974396,0.086596,0.000000,0.000000,0.000000,-1,0.210164,0.458984,-0.368493,-0.055689,-0.207703,0.043714
"2019-04-16 11:00:35.035 +0000",1555412435.034878,-1.938209,-1.340073,-1.230577,-0.213420,0.973501,0.082143,0.000000,0.000000,0.000000,-1,0.099577,0.147334,-0.176315,-0.102315,-0.224173,0.055522
"2019-04-16 11:00:35.055 +0000",1555412435.054928,-1.932004,-1.338791,-1.224169,-0.215093,0.973207,0.081258,0.000000,0.000000,0.000000,-1,-0.015184,-0.139364,0.015833,-0.057124,-0.118974,0.069148
"2019-04-16 11:00:35.075 +0000",1555412435.074979,-1.945397,-1.340520,-1.233938,-0.212418,0.973603,0.083516,0.000000,0.000000,0.000000,-1,-0.160995,-0.215583,0.236581,0.024735,-0.089540,0.205806
"2019-04-16 11:00:35.095 +0000",1555412435.095028,-1.981883,-1.346220,-1.268218,-0.204140,0.974889,0.088990,0.000000,0.000000,0.000000,-1,-0.313536,-0.041206,0.613040,0.155098,-0.130025,0.370361
"2019-04-16 11:00:35.115 +0000",1555412435.115078,-2.039434,-1.359017,-1.330791,-0.187537,0.977658,0.094941,0.000000,0.000000,0.000000,-1,-0.326899,0.349549,1.122108,0.332862,-0.266721,0.344543
"2019-04-16 11:00:35.135 +0000",1555412435.135128,-2.126087,-1.376216,-1.420815,-0.164303,0.981129,0.101935,0.000000,0.000000,0.000000,-1,-0.388231,-0.164075,1.163984,0.089550,-0.253559,-0.147208
"2019-04-16 11:00:35.155 +0000",1555412435.155177,-2.186309,-1.390710,-1.483111,-0.146243,0.983828,0.103416,0.000000,0.000000,0.000000,-1,0.318711,0.253345,0.651785,-0.367292,0.563505,-0.214729
"2019-04-16 11:00:35.175 +0000",1555412435.175227,-2.155273,-1.403862,-1.452294,-0.138577,0.986099,0.091680,0.000000,0.000000,0.000000,-1,0.703930,-0.284138,0.206766,-0.484012,0.802430,-0.385442
"2019-04-16 11:00:35.195 +0000",1555412435.195277,-2.085089,-1.417059,-1.371572,-0.133323,0.988206,0.075329,0.000000,0.000000,0.000000,-1,1.117075,-0.494984,0.290190,-0.061699,0.237579,-0.421139
"2019-04-16 11:00:35.215 +0000",1555412435.215327,-1.976204,-1.431061,-1.253407,-0.127991,0.990253,0.054932,0.000000,0.000000,0.000000,-1,0.878507,-0.267518,0.176223,-0.086410,-0.230533,-0.353149
"2019-04-16 11:00:35.235 +0000",1555412435.235376,-1.903775,-1.438455,-1.180052,-0.124708,0.991256,0.043131,0.000000,0.000000,0.000000,-1,0.322814,0.225876,0.203295,0.103071,-0.265197,-0.182566
"2019-04-16 11:00:35.255 +0000",1555412435.255426,-1.890819,-1.443786,-1.170591,-0.120237,0.991945,0.039848,0.000000,0.000000,0.000000,-1,0.027224,0.057967,0.247529,0.183653,-0.170015,-0.181114
"2019-04-16 11:00:35.275 +0000",1555412435.275476,-1.896538,-1.448696,-1.174543,-0.115393,0.992555,0.038977,0.000000,0.000000,0.000000,-1,0.099361,-0.231825,0.215888,0.036993,-0.052217,-0.307028
"2019-04-16 11:00:35.296 +0000",1555412435.295526,-1.881217,-1.452572,-1.151846,-0.112311,0.993020,0.036028,0.000000,0.000000,0.000000,-1,0.274467,-0.506946,0.064889,-0.221292,0.136589,-0.238818
"2019-04-16 11:00:35.316 +0000",1555412435.315575,-1.850628,-1.455369,-1.107945,-0.110691,0.993346,0.031810,0.000000,0.000000,0.000000,-1,0.227785,-0.794000,0.151486,-0.261120,0.146074,-0.144206
"2019-04-16 11:00:35.336 +0000",1555412435.335625,-1.850882,-1.462047,-1.091421,-0.104306,0.994093,0.030003,0.000000,0.000000,0.000000,-1,0.129141,-0.794474,0.424623,-0.054401,0.023440,0.003551
"2019-04-16 11:00:35.356 +0000",1555412435.355675,-1.883742,-1.471778,-1.109556,-0.094055,0.995102,0.030434,0.000000,0.000000,0.000000,-1,-0.018905,-0.663672,0.558711,0.048645,-0.039917,0.073203
"2019-04-16 11:00:35.376 +0000",1555412435.375724,-1.935179,-1.481875,-1.148231,-0.082973,0.996049,0.031647,0.000000,0.000000,0.000000,-1,0.071968,-0.562174,0.494789,0.131572,-0.116014,-0.037110
"2019-04-16 11:00:35.396 +0000",1555412435.395775,-1.935637,-1.491863,-1.139013,-0.073661,0.996886,0.028134,0.000000,0.000000,0.000000,-1,0.352297,-0.379076,0.385363,0.228919,-0.176009,-0.133816
"2019-04-16 11:00:35.416 +0000",1555412435.415824,-1.838126,-1.501188,-1.036544,-0.067082,0.997578,0.018373,0.000000,0.000000,0.000000,-1,0.621056,-0.131973,0.265180,0.198490,-0.122822,-0.155625
"2019-04-16 11:00:35.436 +0000",1555412435.435875,-1.654340,-1.508004,-0.850015,-0.062534,0.998029,0.005236,0.000000,0.000000,0.000000,-1,0.667212,-0.106193,0.194795,0.101780,-0.092634,-0.098239
"2019-04-16 11:00:35.456 +0000",1555412435.455924,-1.432744,-1.510884,-0.627570,-0.059305,0.998206,-0.008240,0.000000,0.000000,0.000000,-1,0.655444,0.024993,0.133797,-0.054907,-0.032767,-0.090164
"2019-04-16 11:00:35.476 +0000",1555412435.475973,-1.245102,-1.510652,-0.438044,-0.056949,0.998192,-0.019233,0.000000,0.000000,0.000000,-1,0.444050,-0.212681,0.128103,-0.097516,-0.001686,-0.000314
"2019-04-16 11:00:35.496 +0000",1555412435.496024,-1.113833,-1.510236,-0.300039,-0.054314,0.998167,-0.026705,0.000000,0.000000,0.000000,-1,0.359985,-0.397732,0.136573,-0.003853,0.018374,0.008577
