timestamp,timeIntervalSince1970,attitude.roll,attitude.pitch,attitude.yaw,gravity.x,gravity.y,gravity.z,magneticField.x,magneticField.y,magneticField.z,magneticField.accuracy,rotationRate.x,rotationRate.y,rotationRate.z,userAcceleration.x,userAcceleration.y,userAcceleration.z
"2019-04-05 12:11:05.691 +0000",1554466265.691445,-0.175766,0.329870,0.065148,-0.165435,-0.323920,-0.931508,0.000000,0.000000,0.000000,-1,-0.491631,1.612041,1.121336,0.267959,-0.188745,0.306035
"2019-04-05 12:11:05.711 +0000",1554466265.711369,-0.154955,0.319440,0.091340,-0.146528,-0.314034,-0.938036,0.000000,0.000000,0.000000,-1,-0.100668,1.334712,1.423629,0.238065,-0.091437,-0.164686
"2019-04-05 12:11:05.731 +0000",1554466265.731294,-0.135422,0.318560,0.119933,-0.128215,-0.313199,-0.940993,0.000000,0.000000,0.000000,-1,0.418433,1.573313,1.227226,0.154720,0.103910,-0.220064
"2019-04-05 12:11:05.751 +0000",1554466265.751220,-0.108923,0.328544,0.142355,-0.102894,-0.322665,-0.940904,0.000000,0.000000,0.000000,-1,0.789814,1.775386,0.741828,0.001026,0.184832,-0.191603
"2019-04-05 12:11:05.771 +0000",1554466265.771145,-0.076673,0.344506,0.154409,-0.072097,-0.337732,-0.938477,0.000000,0.000000,0.000000,-1,0.887880,1.784553,0.300195,-0.045319,0.115792,-0.166519
"2019-04-05 12:11:05.791 +0000",1554466265.791071,-0.046987,0.361349,0.161610,-0.043936,-0.353536,-0.934388,0.000000,0.000000,0.000000,-1,0.810958,1.421145,0.344257,0.056235,0.036611,-0.167571
"2019-04-05 12:11:05.811 +0000",1554466265.810997,-0.026781,0.376047,0.171809,-0.024907,-0.367247,-0.929790,0.000000,0.000000,0.000000,-1,0.699351,0.989622,0.572521,0.084172,-0.016710,-0.150029
"2019-04-05 12:11:05.831 +0000",1554466265.830923,-0.015984,0.388082,0.186992,-0.014795,-0.378414,-0.925518,0.000000,0.000000,0.000000,-1,0.468896,0.588549,0.769358,0.040155,-0.045185,-0.102604
"2019-04-05 12:11:05.851 +0000",1554466265.850847,-0.015716,0.391597,0.201572,-0.014526,-0.381665,-0.924186,0.000000,0.000000,0.000000,-1,-0.048369,0.182257,0.572470,-0.144120,-0.054324,0.000099
"2019-04-05 12:11:05.871 +0000",1554466265.870774,-0.017041,0.388932,0.212501,-0.015768,-0.379200,-0.925180,0.000000,0.000000,0.000000,-1,-0.139534,0.037039,0.460271,-0.078730,-0.001568,-0.086859
"2019-04-05 12:11:05.891 +0000",1554466265.890699,-0.022362,0.387121,0.221296,-0.020706,-0.377524,-0.925768,0.000000,0.000000,0.000000,-1,-0.014233,-0.185798,0.376413,-0.013215,0.017920,-0.146757
"2019-04-05 12:11:05.911 +0000",1554466265.910625,-0.030565,0.387597,0.230000,-0.028294,-0.377965,-0.925388,0.000000,0.000000,0.000000,-1,0.046468,-0.319016,0.451931,0.032307,-0.026637,-0.112622
"2019-04-05 12:11:05.931 +0000",1554466265.930551,-0.040742,0.387249,0.242139,-0.037715,-0.377642,-0.925183,0.000000,0.000000,0.000000,-1,-0.040276,-0.243608,0.698551,0.023357,-0.086866,-0.019534
"2019-04-05 12:11:05.950 +0000",1554466265.950476,-0.053844,0.385324,0.259876,-0.049872,-0.375859,-0.925334,0.000000,0.000000,0.000000,-1,-0.051414,-0.440710,0.932354,0.047888,-0.092692,-0.049016
"2019-04-05 12:11:05.970 +0000",1554466265.970402,-0.073459,0.384445,0.280266,-0.068036,-0.375044,-0.924507,0.000000,0.000000,0.000000,-1,0.116453,-0.710706,0.921831,0.064786,-0.041688,-0.099862
"2019-04-05 12:11:05.990 +0000",1554466265.990327,-0.094549,0.389922,0.299299,-0.087322,-0.380116,-0.920808,0.000000,0.000000,0.000000,-1,0.617864,-0.702811,0.773890,0.027370,-0.013301,-0.161071
"2019-04-05 12:11:06.010 +0000",1554466266.010256,-0.162450,0.404714,0.336904,-0.148671,-0.393756,-0.907113,0.000000,0.000000,0.000000,-1,1.287802,-0.486461,0.757659,0.016667,-0.051739,-0.217704
"2019-04-05 12:11:06.030 +0000",1554466266.030178,-0.179220,0.432522,0.360800,-0.161846,-0.419162,-0.893370,0.000000,0.000000,0.000000,-1,1.829620,-0.219222,0.950274,-0.079228,-0.095212,-0.211565
"2019-04-05 12:11:06.050 +0000",1554466266.050104,-0.228737,0.466559,0.406616,-0.202513,-0.449816,-0.869859,0.000000,0.000000,0.000000,-1,2.383382,-0.202635,1.123510,-0.087618,-0.057661,-0.302108
"2019-04-05 12:11:06.070 +0000",1554466266.070030,-0.255315,0.514399,0.445736,-0.219867,-0.492012,-0.842367,0.000000,0.000000,0.000000,-1,3.111207,-0.536046,1.073963,-0.148785,0.094185,-0.422891
"2019-04-05 12:11:06.090 +0000",1554466266.089955,-0.309330,0.572235,0.501057,-0.255924,-0.541513,-0.800792,0.000000,0.000000,0.000000,-1,3.754542,-0.472703,0.835725,-0.003567,0.197915,-0.328130
"2019-04-05 12:11:06.110 +0000",1554466266.109882,-0.346113,0.640644,0.545631,-0.271975,-0.597712,-0.754168,0.000000,0.000000,0.000000,-1,3.766992,-0.646982,0.443528,-0.087064,0.308390,-0.290983
"2019-04-05 12:11:06.130 +0000",1554466266.129806,-0.396532,0.707176,0.592643,-0.293606,-0.649689,-0.701213,0.000000,0.000000,0.000000,-1,3.616130,-0.795231,0.076946,-0.048695,0.341904,-0.262471
"2019-04-05 12:11:06.150 +0000",1554466266.149732,-0.434867,0.770783,0.626019,-0.302219,-0.696697,-0.650597,0.000000,0.000000,0.000000,-1,3.137421,-0.905026,-0.381718,-0.076367,0.436749,-0.223869
"2019-04-05 12:11:06.170 +0000",1554466266.169657,-0.478669,0.823717,0.647070,-0.312976,-0.733676,-0.603129,0.000000,0.000000,0.000000,-1,2.183139,-2.128766,-0.600816,0.012332,0.488971,-0.335576
"2019-04-05 12:11:06.190 +0000",1554466266.189583,-0.543237,0.856578,0.654204,-0.338590,-0.755606,-0.560729,0.000000,0.000000,0.000000,-1,0.897752,-3.734901,-0.528407,0.225156,0.430975,-0.348527
"2019-04-05 12:11:06.210 +0000",1554466266.209509,-0.626180,0.866763,0.649228,-0.379351,-0.762238,-0.524487,0.000000,0.000000,0.000000,-1,-0.107945,-4.956606,-0.302570,0.341875,0.315842,-0.269916
"2019-04-05 12:11:06.229 +0000",1554466266.229435,-0.723932,0.865929,0.635393,-0.429149,-0.761697,-0.485436,0.000000,0.000000,0.000000,-1,-0.437966,-5.777248,-0.418362,0.278972,0.294443,-0.253761
"2019-04-05 12:11:06.249 +0000",1554466266.249360,-0.817814,0.868696,0.611822,-0.471226,-0.763487,-0.441625,0.000000,0.000000,0.000000,-1,-0.380894,-5.232802,-0.901001,0.190678,0.330306,-0.040736
"2019-04-05 12:11:06.269 +0000",1554466266.269286,-0.887633,0.883569,0.585677,-0.492025,-0.773008,-0.400462,0.000000,0.000000,0.000000,-1,0.158671,-3.710521,-1.305330,0.115590,0.345060,0.059672
"2019-04-05 12:11:06.289 +0000",1554466266.289212,-0.936144,0.913214,0.572052,-0.492190,-0.791472,-0.362382,0.000000,0.000000,0.000000,-1,0.968005,-2.372483,-1.558401,0.192431,0.321852,-0.014144
"2019-04-05 12:11:06.309 +0000",1554466266.309137,-0.971571,0.952667,0.565483,-0.478545,-0.814964,-0.326846,0.000000,0.000000,0.000000,-1,0.811032,-1.825076,-1.900207,0.251662,0.292366,0.014667
"2019-04-05 12:11:06.329 +0000",1554466266.329062,-0.982112,0.992314,0.537261,-0.454720,-0.837294,-0.303594,0.000000,0.000000,0.000000,-1,0.135787,-1.559894,-2.275121,0.247597,0.208677,0.113454
"2019-04-05 12:11:06.349 +0000",1554466266.348988,-0.964899,1.031901,0.487178,-0.421836,-0.858276,-0.292261,0.000000,0.000000,0.000000,-1,0.073421,-0.989592,-2.413136,0.254447,0.084930,0.084985
"2019-04-05 12:11:06.369 +0000",1554466266.368914,-0.950746,1.077980,0.454627,-0.385039,-0.881004,-0.274912,0.000000,0.000000,0.000000,-1,1.233910,-0.327594,-2.356433,0.283934,-0.053719,-0.205282
"2019-04-05 12:11:06.389 +0000",1554466266.388839,-0.946891,1.135937,0.447491,-0.341915,-0.906929,-0.246117,0.000000,0.000000,0.000000,-1,1.769732,0.028998,-2.636856,0.319255,0.056801,-0.160056
"2019-04-05 12:11:06.409 +0000",1554466266.408765,-0.935294,1.204556,0.438581,-0.288196,-0.933680,-0.212566,0.000000,0.000000,0.000000,-1,2.312526,0.623782,-3.049802,0.331775,0.169902,-0.158421
"2019-04-05 12:11:06.429 +0000",1554466266.428691,-0.977679,1.284994,0.478460,-0.233775,-0.959436,-0.157583,0.000000,0.000000,0.000000,-1,2.987066,-0.905873,-2.763247,0.460963,0.081369,-0.578181
"2019-04-05 12:11:06.449 +0000",1554466266.448616,-1.028207,1.356824,0.513936,-0.181846,-0.977195,-0.109645,0.000000,0.000000,0.000000,-1,1.777931,-0.738661,-2.758604,0.358604,0.157630,0.239924
"2019-04-05 12:11:06.469 +0000",1554466266.468542,-1.027646,1.420977,0.504324,-0.127779,-0.988798,-0.077143,0.000000,0.000000,0.000000,-1,1.606192,-0.056108,-2.903248,0.213457,0.193571,0.160944
"2019-04-05 12:11:06.488 +0000",1554466266.488467,-0.990166,1.484717,0.470429,-0.071883,-0.996297,-0.047160,0.000000,0.000000,0.000000,-1,1.535272,0.219519,-2.528380,0.234877,-0.075343,0.010631
"2019-04-05 12:11:06.508 +0000",1554466266.508393,-1.048047,1.530980,0.523385,-0.034489,-0.999207,-0.019873,0.000000,0.000000,0.000000,-1,0.937764,-0.684589,-1.213638,0.230793,-0.506225,-0.230402
"2019-04-05 12:11:06.528 +0000",1554466266.528319,-1.105574,1.549912,0.565523,-0.018662,-0.999782,-0.009368,0.000000,0.000000,0.000000,-1,0.356793,-0.914251,-0.445170,0.026184,-0.628178,-0.010743
"2019-04-05 12:11:06.548 +0000",1554466266.548244,-1.384575,1.557183,0.821008,-0.013378,-0.999907,-0.002520,0.000000,0.000000,0.000000,-1,0.449075,-1.517215,-0.159491,-0.111210,-0.507631,-0.295270
"2019-04-05 12:11:06.568 +0000",1554466266.568170,-2.315527,1.555433,1.716179,-0.011295,-0.999882,0.010412,0.000000,0.000000,0.000000,-1,0.849867,-2.093889,0.081397,-0.043866,-0.320446,-0.426336
"2019-04-05 12:11:06.588 +0000",1554466266.588095,-2.591462,1.535709,1.950368,-0.018338,-0.999384,0.029902,0.000000,0.000000,0.000000,-1,1.011861,-2.012067,0.808963,0.161695,-0.285116,-0.214289
"2019-04-05 12:11:06.608 +0000",1554466266.608021,-2.438300,1.506118,1.762385,-0.041799,-0.997909,0.049295,0.000000,0.000000,0.000000,-1,0.755526,-1.460010,1.587619,0.233693,-0.058320,0.086523
"2019-04-05 12:11:06.628 +0000",1554466266.627947,-2.270809,1.472958,1.567383,-0.074711,-0.995218,0.062930,0.000000,0.000000,0.000000,-1,0.595586,-1.389313,1.811501,0.269657,0.362527,0.094907
"2019-04-05 12:11:06.648 +0000",1554466266.647872,-2.247204,1.433570,1.512639,-0.106676,-0.990599,0.085633,0.000000,0.000000,0.000000,-1,1.514836,-1.548263,1.511182,0.325594,0.628813,-0.145493
"2019-04-05 12:11:06.668 +0000",1554466266.667798,-2.370655,1.390517,1.610518,-0.124941,-0.983794,0.128607,0.000000,0.000000,0.000000,-1,2.447351,-1.053989,0.569765,0.310579,0.724486,-0.086279
"2019-04-05 12:11:06.688 +0000",1554466266.687723,-2.535140,1.353065,1.773627,-0.123119,-0.976390,0.177494,0.000000,0.000000,0.000000,-1,2.268792,0.640552,-0.670719,0.323299,0.602260,0.113934
"2019-04-05 12:11:06.708 +0000",1554466266.707649,-2.656029,1.333048,1.912149,-0.109916,-0.971871,0.208292,0.000000,0.000000,0.000000,-1,1.159755,0.919693,-1.079689,0.512504,0.201302,0.173895
"2019-04-05 12:11:06.728 +0000",1554466266.727575,-2.748958,1.332697,2.038056,-0.090244,-0.971788,0.217908,0.000000,0.000000,0.000000,-1,0.080604,1.888956,-1.516629,0.277836,0.058198,0.205828
"2019-04-05 12:11:06.747 +0000",1554466266.747500,-2.817920,1.348222,2.149924,-0.070207,-0.975332,0.209279,0.000000,0.000000,0.000000,-1,-0.457011,1.985795,-1.385982,0.237000,-0.153787,-0.043385
"2019-04-05 12:11:06.767 +0000",1554466266.767426,-2.887475,1.360381,2.256656,-0.052507,-0.977944,0.202158,0.000000,0.000000,0.000000,-1,0.012570,1.462188,-1.208563,0.208452,-0.285636,-0.427408
"2019-04-05 12:11:06.787 +0000",1554466266.787352,-2.967665,1.359618,2.362561,-0.036274,-0.977785,0.206450,0.000000,0.000000,0.000000,-1,0.466740,0.890823,-0.676666,0.152332,-0.195815,-0.451002
"2019-04-05 12:11:06.807 +0000",1554466266.807277,-2.918621,1.349441,2.326418,-0.048549,-0.975601,0.214117,0.000000,0.000000,0.000000,-1,0.289947,0.543031,1.800269,0.263759,-0.631241,-0.262442
"2019-04-05 12:11:06.827 +0000",1554466266.827203,-2.715276,1.326285,2.131469,-0.100106,-0.970256,0.220415,0.000000,0.000000,0.000000,-1,0.507828,1.032813,2.667996,0.177285,-0.442998,-0.102220
"2019-04-05 12:11:06.847 +0000",1554466266.847129,-2.542808,1.295675,1.982403,-0.153120,-0.962392,0.224399,0.000000,0.000000,0.000000,-1,0.140058,1.938706,2.010161,-0.000689,-0.064768,0.100552
"2019-04-05 12:11:06.867 +0000",1554466266.867054,-2.414967,1.289147,1.896218,-0.184650,-0.960598,0.207738,0.000000,0.000000,0.000000,-1,-0.923771,2.112164,0.326560,-0.167203,0.235836,0.093882
"2019-04-05 12:11:06.887 +0000",1554466266.886980,-2.356632,1.297347,1.860362,-0.190874,-0.962845,0.191041,0.000000,0.000000,0.000000,-1,-0.229547,0.252923,-0.082929,-0.019377,-0.079956,-0.619676
"2019-04-05 12:11:06.907 +0000",1554466266.906906,-2.377947,1.298369,1.874183,-0.186078,-0.963121,0.194354,0.000000,0.000000,0.000000,-1,0.243301,-0.720972,-0.274016,-0.020313,-0.292784,-0.487659
"2019-04-05 12:11:06.927 +0000",1554466266.926831,-2.414918,1.306383,1.899631,-0.173633,-0.965246,0.195324,0.000000,0.000000,0.000000,-1,-0.500619,-0.733313,-0.712607,-0.068890,-0.071650,0.042102
"2019-04-05 12:11:06.947 +0000",1554466266.946757,-2.439095,1.339016,1.894777,-0.148423,-0.973259,0.175323,0.000000,0.000000,0.000000,-1,-1.865751,-2.014630,-1.349321,-0.001419,0.441307,-0.291641
"2019-04-05 12:11:06.967 +0000",1554466266.966682,-2.428379,1.391674,1.858644,-0.116568,-0.984000,0.134741,0.000000,0.000000,0.000000,-1,-2.656238,0.078409,-1.374214,-0.034646,0.412177,0.442026
"2019-04-05 12:11:06.987 +0000",1554466266.986608,-2.329342,1.444289,1.774772,-0.091578,-0.992009,0.086787,0.000000,0.000000,0.000000,-1,-1.756400,1.311214,-1.436429,0.080500,0.480824,0.306157
"2019-04-05 12:11:07.007 +0000",1554466267.006533,-2.414766,1.481816,1.886691,-0.059049,-0.996044,0.066405,0.000000,0.000000,0.000000,-1,-0.146148,1.145924,-2.086976,0.037153,0.350032,-0.108337
"2019-04-05 12:11:07.026 +0000",1554466267.026459,-2.973881,1.498351,2.465619,-0.012082,-0.997377,0.071367,0.000000,0.000000,0.000000,-1,0.526986,0.688267,-2.747556,-0.030490,0.128938,0.001708
"2019-04-05 12:11:07.046 +0000",1554466267.046385,2.627288,1.475580,-3.121589,0.046769,-0.995470,0.082774,0.000000,0.000000,0.000000,-1,0.624168,0.542829,-3.197810,-0.155961,0.047045,0.068822
"2019-04-05 12:11:07.066 +0000",1554466267.066310,2.288743,1.422393,-2.767626,0.111361,-0.989008,0.097268,0.000000,0.000000,0.000000,-1,0.714887,0.739177,-3.394858,-0.113421,-0.157812,0.053352
"2019-04-05 12:11:07.086 +0000",1554466267.086236,2.151619,1.361759,-2.613547,0.173488,-0.978231,0.113868,0.000000,0.000000,0.000000,-1,0.766357,0.691778,-2.983170,-0.033030,-0.453928,-0.049353
"2019-04-05 12:11:07.106 +0000",1554466267.106161,2.109690,1.311111,-2.559734,0.220385,-0.966471,0.131774,0.000000,0.000000,0.000000,-1,0.894331,0.293974,-1.935636,-0.053897,-0.535315,-0.208831
"2019-04-05 12:11:07.126 +0000",1554466267.126087,2.119996,1.277815,-2.572476,0.246336,-0.957387,0.150759,0.000000,0.000000,0.000000,-1,1.117190,-0.430132,-0.799602,-0.004408,-0.430674,-0.303240
"2019-04-05 12:11:07.146 +0000",1554466267.146013,2.156427,1.256390,-2.619992,0.257720,-0.950980,0.170931,0.000000,0.000000,0.000000,-1,1.249596,-0.624898,-0.256337,-0.090498,-0.158074,-0.166659
"2019-04-05 12:11:07.166 +0000",1554466267.165938,2.205249,1.241088,-2.688440,0.260760,-0.946137,0.191908,0.000000,0.000000,0.000000,-1,1.413850,-0.958952,0.178148,-0.063403,0.244111,-0.172728
"2019-04-05 12:11:07.186 +0000",1554466267.185864,2.258728,1.227725,-2.767752,0.259875,-0.941726,0.213582,0.000000,0.000000,0.000000,-1,1.466105,-1.067774,0.307528,-0.063311,0.474258,-0.159108
"2019-04-05 12:11:07.206 +0000",1554466267.205790,2.301311,1.212636,-2.832129,0.261102,-0.936543,0.233907,0.000000,0.000000,0.000000,-1,1.068479,-0.745685,-0.193037,0.096136,0.636998,-0.226018
"2019-04-05 12:11:07.226 +0000",1554466267.225715,2.284715,1.191855,-2.834389,0.279599,-0.929057,0.242235,0.000000,0.000000,0.000000,-1,0.396536,-1.313681,-1.282338,-0.101849,0.667979,-0.357805
"2019-04-05 12:11:07.246 +0000",1554466267.245640,2.205132,1.161207,-2.783021,0.320762,-0.917284,0.236010,0.000000,0.000000,0.000000,-1,0.074427,-1.799977,-2.389430,-0.199104,0.757693,-0.583300
"2019-04-05 12:11:07.266 +0000",1554466267.265567,2.107040,1.108975,-2.714899,0.383035,-0.895243,0.227651,0.000000,0.000000,0.000000,-1,0.470683,-1.810375,-3.547160,-0.174722,0.697794,-0.750356
"2019-04-05 12:11:07.285 +0000",1554466267.285491,2.050203,1.033714,-2.680763,0.453954,-0.859205,0.235991,0.000000,0.000000,0.000000,-1,2.190386,-0.121872,-3.926005,0.287791,0.282423,-0.425917
"2019-04-05 12:11:07.305 +0000",1554466267.305418,2.104452,0.922330,-2.707261,0.519985,-0.797011,0.307227,0.000000,0.000000,0.000000,-1,3.876262,2.766713,-4.760687,0.599827,-0.224321,0.929909
"2019-04-05 12:11:07.325 +0000",1554466267.325343,2.165816,0.831301,-2.717258,0.558095,-0.738809,0.377746,0.000000,0.000000,0.000000,-1,1.299282,2.662753,-2.318617,1.016078,-0.744773,1.463196
"2019-04-05 12:11:07.345 +0000",1554466267.345269,2.207879,0.811007,-2.706565,0.553656,-0.724981,0.409716,0.000000,0.000000,0.000000,-1,-0.486988,1.814488,-0.070385,0.709985,-0.841929,0.098371
"2019-04-05 12:11:07.365 +0000",1554466267.365195,2.211425,0.823548,-2.691889,0.544867,-0.733562,0.406210,0.000000,0.000000,0.000000,-1,-0.829107,0.015438,0.224334,0.322351,-0.684361,-0.377859
"2019-04-05 12:11:07.385 +0000",1554466267.385119,2.208025,0.826003,-2.680262,0.544796,-0.735228,0.403282,0.000000,0.000000,0.000000,-1,0.160926,0.498229,-0.524122,0.056355,-0.118898,-0.106957
"2019-04-05 12:11:07.405 +0000",1554466267.405045,2.220150,0.805402,-2.685893,0.551815,-0.721109,0.418930,0.000000,0.000000,0.000000,-1,1.361308,0.274004,-0.801389,-0.057400,0.236765,-0.126541
"2019-04-05 12:11:07.425 +0000",1554466267.424971,2.245616,0.773895,-2.715461,0.558438,-0.698926,0.446823,0.000000,0.000000,0.000000,-1,2.118300,0.212923,-0.154819,-0.178372,0.269864,-0.164153
"2019-04-05 12:11:07.445 +0000",1554466267.444897,2.296159,0.754108,-2.765425,0.545393,-0.684639,0.483546,0.000000,0.000000,0.000000,-1,1.824553,1.283364,0.891006,-0.124586,0.111794,0.051397
"2019-04-05 12:11:07.465 +0000",1554466267.464823,2.358441,0.754699,-2.820111,0.513953,-0.685069,0.516268,0.000000,0.000000,0.000000,-1,0.940429,1.107228,1.826032,0.081338,-0.057393,-0.153811
"2019-04-05 12:11:07.485 +0000",1554466267.484748,2.418631,0.776807,-2.869060,0.471830,-0.701006,0.534759,0.000000,0.000000,0.000000,-1,-0.109802,1.723991,2.133697,-0.026334,-0.127089,-0.003479
"2019-04-05 12:11:07.505 +0000",1554466267.504674,2.488811,0.811749,-2.903005,0.418030,-0.725492,0.546729,0.000000,0.000000,0.000000,-1,-1.295701,3.458525,1.875465,-0.180909,0.077924,-0.030921
"2019-04-05 12:11:07.525 +0000",1554466267.524599,2.593734,0.867978,-2.916065,0.336669,-0.763023,0.551769,0.000000,0.000000,0.000000,-1,-3.034856,5.324688,1.996762,0.184251,0.361900,0.269322
"2019-04-05 12:11:07.545 +0000",1554466267.544524,2.668675,0.952885,-2.906063,0.263878,-0.815090,0.515748,0.000000,0.000000,0.000000,-1,-4.059014,2.797033,1.457535,0.260444,0.399548,0.429031
"2019-04-05 12:11:07.564 +0000",1554466267.564450,2.680895,1.012393,-2.896102,0.235549,-0.848102,0.474593,0.000000,0.000000,0.000000,-1,-1.267693,-0.673628,0.773204,0.258851,0.173511,-0.387496
"2019-04-05 12:11:07.584 +0000",1554466267.584375,2.667137,1.031501,-2.912335,0.234609,-0.858071,0.456808,0.000000,0.000000,0.000000,-1,-0.961951,-1.586301,1.003173,0.215449,0.259377,-0.907705
"2019-04-05 12:11:07.604 +0000",1554466267.604302,2.648029,1.072687,-2.934360,0.226350,-0.878488,0.420744,0.000000,0.000000,0.000000,-1,-1.518467,-3.473948,1.921450,0.925933,-1.038398,-0.178281
"2019-04-05 12:11:07.624 +0000",1554466267.624227,2.655986,1.089993,-2.989340,0.215866,-0.886624,0.409024,0.000000,0.000000,0.000000,-1,0.853149,-0.452183,0.904624,0.501648,-0.877781,-0.080701
"2019-04-05 12:11:07.644 +0000",1554466267.644153,2.710837,1.075147,-3.029009,0.198592,-0.879660,0.432157,0.000000,0.000000,0.000000,-1,1.037398,1.794986,0.303654,0.234346,-0.273920,0.392291
"2019-04-05 12:11:07.664 +0000",1554466267.664078,2.763977,1.064233,-3.053693,0.178886,-0.874417,0.450993,0.000000,0.000000,0.000000,-1,0.414792,1.078746,0.374907,0.184608,0.048505,-0.057636
"2019-04-05 12:11:07.684 +0000",1554466267.684004,2.782040,1.064272,-3.068012,0.170699,-0.874436,0.454118,0.000000,0.000000,0.000000,-1,-0.162474,-0.543332,0.210253,0.016602,0.214524,-0.334886
"2019-04-05 12:11:07.704 +0000",1554466267.703929,2.750526,1.073838,-3.061515,0.181727,-0.879037,0.440760,0.000000,0.000000,0.000000,-1,-0.898264,-1.928990,-0.138895,-0.140543,0.361337,-0.259318
"2019-04-05 12:11:07.724 +0000",1554466267.723854,2.676162,1.098546,-3.026561,0.204159,-0.890547,0.406504,0.000000,0.000000,0.000000,-1,-2.055100,-2.183738,-0.274250,-0.162197,0.566801,0.054724
"2019-04-05 12:11:07.744 +0000",1554466267.743781,2.592691,1.135118,-2.963015,0.220192,-0.906584,0.360029,0.000000,0.000000,0.000000,-1,-2.373129,-0.629291,-0.381400,-0.230080,0.616896,0.130480
"2019-04-05 12:11:07.764 +0000",1554466267.763706,2.514808,1.166344,-2.883624,0.230814,-0.919318,0.318715,0.000000,0.000000,0.000000,-1,-1.905589,0.118067,-0.613437,-0.226435,0.574744,0.044811
"2019-04-05 12:11:07.784 +0000",1554466267.783632,2.455114,1.178155,-2.809277,0.242518,-0.923902,0.295958,0.000000,0.000000,0.000000,-1,-0.776253,0.700580,-0.957616,-0.220926,0.628598,-0.175215
"2019-04-05 12:11:07.804 +0000",1554466267.803557,2.411806,1.169485,-2.752446,0.260434,-0.920550,0.291140,0.000000,0.000000,0.000000,-1,-0.158653,0.063671,-1.250848,-0.206510,0.589129,-0.187685
"2019-04-05 12:11:07.823 +0000",1554466267.823483,2.357064,1.154359,-2.699837,0.285779,-0.914536,0.286276,0.000000,0.000000,0.000000,-1,-0.172581,-0.744725,-1.296126,-0.177090,0.563660,-0.190787
"2019-04-05 12:11:07.843 +0000",1554466267.843409,2.300314,1.135456,-2.655348,0.314390,-0.906727,0.281080,0.000000,0.000000,0.000000,-1,0.176210,-0.703948,-1.340856,-0.241682,0.709141,-0.210676
"2019-04-05 12:11:07.863 +0000",1554466267.863334,2.263600,1.110330,-2.625769,0.341921,-0.895845,0.283815,0.000000,0.000000,0.000000,-1,0.474668,-0.280254,-1.409366,-0.279116,0.735552,-0.207765
"2019-04-05 12:11:07.883 +0000",1554466267.883261,2.244276,1.079796,-2.606574,0.368558,-0.881861,0.294085,0.000000,0.000000,0.000000,-1,0.749013,-0.126145,-1.515626,-0.290173,0.715495,-0.203066
"2019-04-05 12:11:07.903 +0000",1554466267.903185,2.200333,1.049666,-2.581380,0.402421,-0.867257,0.293126,0.000000,0.000000,0.000000,-1,0.064210,-2.217708,-1.627646,-0.208269,0.540459,-0.051976
"2019-04-05 12:11:07.923 +0000",1554466267.923111,2.128531,1.020459,-2.549199,0.443722,-0.852348,0.276793,0.000000,0.000000,0.000000,-1,0.458877,-1.568496,-1.713251,-0.240322,0.539192,-0.307524
"2019-04-05 12:11:07.943 +0000",1554466267.943036,2.104659,0.983052,-2.540820,0.477327,-0.832194,0.282157,0.000000,0.000000,0.000000,-1,0.676153,-0.668095,-1.790503,-0.310671,0.614756,-0.316733
"2019-04-05 12:11:07.963 +0000",1554466267.962963,2.077686,0.949483,-2.519530,0.508910,-0.813114,0.282589,0.000000,0.000000,0.000000,-1,0.470965,0.223591,-3.051501,-0.440016,0.697361,-0.129924
"2019-04-05 12:11:07.983 +0000",1554466267.982888,2.008687,0.805198,-2.409850,0.627586,-0.720968,0.293839,0.000000,0.000000,0.000000,-1,-0.288372,-0.862680,-12.700698,2.085763,-4.223383,-0.240830
"2019-04-05 12:11:08.003 +0000",1554466268.002813,1.861950,0.527419,-2.254900,0.827742,-0.503305,0.248049,0.000000,0.000000,0.000000,-1,-1.090909,-3.126949,-16.422564,0.955324,-0.416220,-0.401384
"2019-04-05 12:11:08.023 +0000",1554466268.022740,1.763030,0.217884,-2.144798,0.958373,-0.216164,0.186535,0.000000,0.000000,0.000000,-1,-1.501365,-2.775326,-16.123632,-0.294173,1.118752,-0.225811
"2019-04-05 12:11:08.043 +0000",1554466268.042665,1.706259,-0.076307,-2.062675,0.987956,0.076233,0.134656,0.000000,0.000000,0.000000,-1,-1.777634,-1.826857,-13.072531,0.026586,0.722549,-0.192517
"2019-04-05 12:11:08.063 +0000",1554466268.062591,1.689960,-0.227933,-2.017128,0.967227,0.225964,0.115807,0.000000,0.000000,0.000000,-1,-0.409912,-1.009599,-1.380530,3.411313,-0.201260,-0.327614
"2019-04-05 12:11:08.083 +0000",1554466268.082516,1.661817,-0.147710,-2.038926,0.985016,0.147174,0.089905,0.000000,0.000000,0.000000,-1,1.624884,-1.281209,7.569126,3.382202,0.013456,-0.520493
"2019-04-05 12:11:08.102 +0000",1554466268.102442,1.628456,0.003196,-2.096194,0.998333,-0.003196,0.057627,0.000000,0.000000,0.000000,-1,2.868295,-1.953346,6.491330,0.184452,0.524970,-0.186945
"2019-04-05 12:11:08.122 +0000",1554466268.122368,1.576067,0.055293,-2.159699,0.998458,-0.055265,0.005263,0.000000,0.000000,0.000000,-1,3.111828,-3.249904,-0.210436,-0.746154,0.800352,-0.151137
"2019-04-05 12:11:08.142 +0000",1554466268.142293,1.520707,0.040335,-2.221332,0.997933,-0.040324,-0.050027,0.000000,0.000000,0.000000,-1,3.107868,-2.475501,-0.940995,-0.721414,0.191463,0.192621
"2019-04-05 12:11:08.162 +0000",1554466268.162219,1.488402,0.030373,-2.286451,0.996148,-0.030368,-0.082263,0.000000,0.000000,0.000000,-1,3.298238,-0.801208,-0.582970,-0.179101,0.208575,0.203006
"2019-04-05 12:11:08.182 +0000",1554466268.182144,1.494292,0.023648,-2.351117,0.996796,-0.023646,-0.076409,0.000000,0.000000,0.000000,-1,3.062719,1.032009,-0.586554,0.082366,0.362758,0.204506
"2019-04-05 12:11:08.202 +0000",1554466268.202070,1.521565,0.017927,-2.408793,0.998628,-0.017926,-0.049204,0.000000,0.000000,0.000000,-1,2.657543,1.334908,-0.352267,0.139083,0.325498,0.057398
"2019-04-05 12:11:08.222 +0000",1554466268.221995,1.542373,0.013424,-2.456068,0.999506,-0.013424,-0.028417,0.000000,0.000000,0.000000,-1,2.030647,0.631840,-0.306879,0.074255,0.299953,-0.006328
"2019-04-05 12:11:08.242 +0000",1554466268.241921,1.550187,0.008421,-2.489064,0.999752,-0.008420,-0.020607,0.000000,0.000000,0.000000,-1,1.251725,0.241851,-0.262798,0.025608,0.239225,0.047875
"2019-04-05 12:11:08.262 +0000",1554466268.261847,1.557009,0.004220,-2.506301,0.999896,-0.004220,-0.013786,0.000000,0.000000,0.000000,-1,0.492261,0.455974,-0.187439,0.014325,0.182016,0.111870
"2019-04-05 12:11:08.282 +0000",1554466268.281772,1.566784,0.001962,-2.510039,0.999990,-0.001962,-0.004012,0.000000,0.000000,0.000000,-1,-0.096154,0.467628,-0.056869,-0.016653,0.130563,0.081679
"2019-04-05 12:11:08.302 +0000",1554466268.301697,1.575721,0.001540,-2.503050,0.999987,-0.001540,0.004925,0.000000,0.000000,0.000000,-1,-0.606236,0.513563,-0.008072,-0.090197,0.107085,0.061344
"2019-04-05 12:11:08.322 +0000",1554466268.321623,1.591251,0.001867,-2.485357,0.999789,-0.001867,0.020454,0.000000,0.000000,0.000000,-1,-1.174194,1.069438,0.044949,-0.023685,0.082509,0.093636
"2019-04-05 12:11:08.342 +0000",1554466268.341549,1.611124,0.005479,-2.457994,0.999172,-0.005479,0.040316,0.000000,0.000000,0.000000,-1,-1.521449,0.720816,0.173727,0.092167,0.071840,-0.025408
"2019-04-05 12:11:08.361 +0000",1554466268.361474,1.620386,0.009109,-2.428333,0.998729,-0.009109,0.049567,0.000000,0.000000,0.000000,-1,-1.366526,0.551062,0.084526,0.064167,0.092788,-0.134665
"2019-04-05 12:11:08.381 +0000",1554466268.381401,1.689387,0.008595,-2.427055,0.992940,-0.008595,0.118308,0.000000,0.000000,0.000000,-1,1.911831,7.533092,-0.471906,0.043727,0.034855,-0.531959
"2019-04-05 12:11:08.401 +0000",1554466268.401327,1.849094,-0.006533,-2.487785,0.961504,0.006533,0.274713,0.000000,0.000000,0.000000,-1,4.018704,7.021229,0.510727,0.658094,0.006803,-1.015360
"2019-04-05 12:11:08.421 +0000",1554466268.421251,1.921285,-0.010068,-2.581751,0.939157,0.010067,0.343339,0.000000,0.000000,0.000000,-1,4.803573,-0.704677,1.645440,0.545126,-0.201291,-1.179185
"2019-04-05 12:11:08.441 +0000",1554466268.441177,1.839197,-0.018001,-2.673661,0.964040,0.018000,0.265146,0.000000,0.000000,0.000000,-1,3.869006,-6.127732,0.412424,-0.800802,0.222402,-0.516413
"2019-04-05 12:11:08.461 +0000",1554466268.461103,1.719991,-0.026750,-2.721223,0.988537,0.026747,0.148589,0.000000,0.000000,0.000000,-1,0.802347,-5.064609,-0.080308,0.050739,0.351519,0.585069
"2019-04-05 12:11:08.481 +0000",1554466268.481028,1.648859,-0.025458,-2.707624,0.996632,0.025455,0.077958,0.000000,0.000000,0.000000,-1,-1.994132,-2.172536,0.157924,0.183239,0.115689,0.850356
"2019-04-05 12:11:08.501 +0000",1554466268.500954,1.627723,-0.015534,-2.653020,0.998260,0.015533,0.056889,0.000000,0.000000,0.000000,-1,-3.297265,-0.301293,0.418877,0.080659,0.012253,0.578243
"2019-04-05 12:11:08.521 +0000",1554466268.520880,1.628133,-0.004558,-2.585524,0.998346,0.004558,0.057305,0.000000,0.000000,0.000000,-1,-3.394472,0.133066,0.273267,-0.081812,0.151890,0.157035
"2019-04-05 12:11:08.541 +0000",1554466268.540806,1.632814,0.005191,-2.521792,0.998064,-0.005191,0.061978,0.000000,0.000000,0.000000,-1,-3.047997,0.424693,0.315813,-0.037798,0.309314,-0.018368
"2019-04-05 12:11:08.561 +0000",1554466268.560731,1.646544,0.013250,-2.464415,0.997045,-0.013249,0.075669,0.000000,0.000000,0.000000,-1,-2.803882,0.920743,0.109299,-0.017873,0.401006,-0.034867
"2019-04-05 12:11:08.581 +0000",1554466268.580657,1.663633,0.020562,-2.407593,0.995483,-0.020561,0.092683,0.000000,0.000000,0.000000,-1,-2.994699,1.009907,0.251243,0.186524,0.374778,-0.024950
"2019-04-05 12:11:08.601 +0000",1554466268.600582,1.685302,0.035119,-2.343781,0.992839,-0.035112,0.114186,0.000000,0.000000,0.000000,-1,-3.600423,1.324086,0.400106,0.267934,0.478761,0.026882
"2019-04-05 12:11:08.621 +0000",1554466268.620508,1.708777,0.048214,-2.262351,0.989345,-0.048196,0.137383,0.000000,0.000000,0.000000,-1,-4.717762,1.303619,-0.153265,0.064229,0.622430,0.019584
"2019-04-05 12:11:08.640 +0000",1554466268.640433,1.727683,0.055926,-2.157104,0.986174,-0.055897,0.156000,0.000000,0.000000,0.000000,-1,-5.773473,1.257029,-0.635426,0.016404,0.673679,-0.044519
"2019-04-05 12:11:08.660 +0000",1554466268.660359,1.751187,0.057083,-2.032907,0.982171,-0.057052,0.179122,0.000000,0.000000,0.000000,-1,-6.433615,1.854910,-1.335726,0.050635,0.767074,-0.068847
"2019-04-05 12:11:08.680 +0000",1554466268.680284,1.787738,0.050842,-1.899946,0.975299,-0.050820,0.214966,0.000000,0.000000,0.000000,-1,-6.396837,2.489761,-1.846410,0.231275,0.818245,-0.190064
"2019-04-05 12:11:08.700 +0000",1554466268.700211,1.829751,0.044775,-1.772744,0.965689,-0.044760,0.255813,0.000000,0.000000,0.000000,-1,-5.785208,2.080511,-1.601972,0.366800,0.718680,-0.378555
"2019-04-05 12:11:08.720 +0000",1554466268.720136,1.863061,0.048139,-1.663721,0.956484,-0.048121,0.287788,0.000000,0.000000,0.000000,-1,-4.712210,2.728888,-1.132713,0.139707,0.459757,-0.510963
"2019-04-05 12:11:08.740 +0000",1554466268.740061,1.955352,0.052911,-1.580157,0.925668,-0.052886,0.374622,0.000000,0.000000,0.000000,-1,-3.408844,7.027034,-1.192160,-0.222924,0.149124,-0.537418
"2019-04-05 12:11:08.760 +0000",1554466268.759988,2.108084,0.055848,-1.518719,0.857761,-0.055819,0.511010,0.000000,0.000000,0.000000,-1,-2.257577,8.171202,-1.262616,0.024670,-0.007307,-0.746285
"2019-04-05 12:11:08.780 +0000",1554466268.779912,2.260947,0.051726,-1.473462,0.770119,-0.051703,0.635802,0.000000,0.000000,0.000000,-1,-1.246190,7.016080,-1.777223,-0.017799,-0.075754,-0.887252
"2019-04-05 12:11:08.800 +0000",1554466268.799838,2.366429,0.033493,-1.430008,0.699440,-0.033487,0.713906,0.000000,0.000000,0.000000,-1,-0.760231,3.465045,-2.454253,-0.140419,-0.021628,-0.933679
"2019-04-05 12:11:08.820 +0000",1554466268.819763,2.387564,0.009009,-1.384446,0.684553,-0.009009,0.728907,0.000000,0.000000,0.000000,-1,-0.639779,-1.445827,-2.455158,0.324816,-0.194009,-0.923716
"2019-04-05 12:11:08.840 +0000",1554466268.839689,2.304832,-0.013004,-1.343295,0.742415,0.013003,0.669814,0.000000,0.000000,0.000000,-1,-0.750763,-6.468739,-1.913345,0.958345,-0.376315,-0.833373
"2019-04-05 12:11:08.860 +0000",1554466268.859616,2.164573,-0.025253,-1.311679,0.828569,0.025251,0.559317,0.000000,0.000000,0.000000,-1,-0.985546,-7.037221,-1.092635,0.983931,-0.462796,-0.403998
"2019-04-05 12:11:08.880 +0000",1554466268.879541,2.007890,-0.021655,-1.271351,0.905773,0.021653,0.423209,0.000000,0.000000,0.000000,-1,-4.766204,-12.436133,-0.414121,0.447941,-0.322861,-0.020285
"2019-04-05 12:11:08.899 +0000",1554466268.899466,1.763284,0.044310,-1.090757,0.980568,-0.044295,0.191113,0.000000,0.000000,0.000000,-1,-13.992603,-6.191972,2.010400,1.007881,-0.426316,4.031162
"2019-04-05 12:11:08.919 +0000",1554466268.919391,1.745961,0.139170,-0.800772,0.975177,-0.138721,0.172585,0.000000,0.000000,0.000000,-1,-15.336710,4.895155,2.137697,0.616238,0.460697,2.600791
"2019-04-05 12:11:08.939 +0000",1554466268.939318,1.811278,0.232063,-0.521765,0.945189,-0.229985,0.231786,0.000000,0.000000,0.000000,-1,-13.090148,6.249629,1.276919,0.261354,0.990285,-0.147436
"2019-04-05 12:11:08.959 +0000",1554466268.959243,1.878629,0.309452,-0.297694,0.907726,-0.304537,0.288602,0.000000,0.000000,0.000000,-1,-9.753983,6.249396,0.353129,0.187047,0.787768,-0.722882
"2019-04-05 12:11:08.979 +0000",1554466268.979169,1.931748,0.361475,-0.136893,0.875102,-0.353654,0.330342,0.000000,0.000000,0.000000,-1,-6.562769,3.618181,-0.293962,0.067327,0.402818,-0.911595
"2019-04-05 12:11:08.999 +0000",1554466268.999095,1.924713,0.402387,-0.030444,0.863102,-0.391616,0.318893,0.000000,0.000000,0.000000,-1,-4.206884,-0.129964,0.801101,0.105954,-0.394883,-0.687134
"2019-04-05 12:11:09.019 +0000",1554466269.019019,1.880151,0.448120,0.023856,0.858481,-0.433272,0.274385,0.000000,0.000000,0.000000,-1,-1.994870,-1.667287,1.765573,-0.134253,-0.514391,-0.424287
"2019-04-05 12:11:09.039 +0000",1554466269.038946,1.848774,0.492816,0.033852,0.847184,-0.473109,0.241757,0.000000,0.000000,0.000000,-1,-0.306038,-0.777320,2.227140,-0.249909,-0.368642,-0.071271
"2019-04-05 12:11:09.059 +0000",1554466269.058871,1.857241,0.538596,0.017076,0.823452,-0.512931,0.242544,0.000000,0.000000,0.000000,-1,0.297076,0.736061,2.606258,-0.204937,-0.237191,0.291788
"2019-04-05 12:11:09.079 +0000",1554466269.078797,1.896921,0.589092,-0.012036,0.787621,-0.555607,0.266373,0.000000,0.000000,0.000000,-1,0.549945,1.571363,2.948213,-0.118538,-0.085202,0.223495
"2019-04-05 12:11:09.099 +0000",1554466269.098722,1.956155,0.641228,-0.054726,0.742593,-0.598180,0.301225,0.000000,0.000000,0.000000,-1,0.935903,1.827083,3.153522,-0.101235,0.079808,-0.048632
"2019-04-05 12:11:09.119 +0000",1554466269.118648,2.027733,0.688133,-0.114209,0.693188,-0.635096,0.340798,0.000000,0.000000,0.000000,-1,1.439718,1.578772,2.985111,-0.117901,0.229853,-0.256234
"2019-04-05 12:11:09.139 +0000",1554466269.138573,2.097952,0.720289,-0.186868,0.649577,-0.659602,0.378120,0.000000,0.000000,0.000000,-1,1.904668,0.662564,2.466449,-0.104029,0.330379,-0.371193
"2019-04-05 12:11:09.158 +0000",1554466269.158500,2.151503,0.735210,-0.263670,0.620108,-0.670743,0.406902,0.000000,0.000000,0.000000,-1,2.146908,-0.389424,1.807374,-0.089469,0.417371,-0.343898
"2019-04-05 12:11:09.178 +0000",1554466269.178425,2.183615,0.735494,-0.333015,0.606569,-0.670953,0.426492,0.000000,0.000000,0.000000,-1,2.029112,-0.993188,1.152068,-0.145478,0.534616,-0.186334
"2019-04-05 12:11:09.198 +0000",1554466269.198350,2.196105,0.729440,-0.384794,0.604477,-0.666452,0.436405,0.000000,0.000000,0.000000,-1,1.402890,-1.119176,0.590817,-0.175812,0.635996,0.082242
"2019-04-05 12:11:09.218 +0000",1554466269.218276,2.197490,0.723152,-0.409766,0.607255,-0.661751,0.439690,0.000000,0.000000,0.000000,-1,0.460478,-0.274657,-0.017241,-0.200608,0.678063,0.374351
"2019-04-05 12:11:09.238 +0000",1554466269.238201,2.198072,0.717785,-0.405814,0.609866,-0.657718,0.442122,0.000000,0.000000,0.000000,-1,-0.318407,0.430256,-0.589495,-0.114687,0.618304,0.399339
"2019-04-05 12:11:09.258 +0000",1554466269.258127,2.189258,0.709661,-0.381623,0.618071,-0.651577,0.439813,0.000000,0.000000,0.000000,-1,-0.622111,0.193804,-1.149183,-0.084838,0.456798,0.139975
"2019-04-05 12:11:09.278 +0000",1554466269.278052,2.170619,0.694174,-0.350008,0.634416,-0.639750,0.433862,0.000000,0.000000,0.000000,-1,-0.423924,0.010479,-1.425805,-0.029054,0.252131,-0.021554
"2019-04-05 12:11:09.298 +0000",1554466269.297978,2.148747,0.674763,-0.321244,0.654031,-0.624712,0.426588,0.000000,0.000000,0.000000,-1,-0.426618,-0.402504,-1.434430,-0.036356,0.090563,0.062243
"2019-04-05 12:11:09.318 +0000",1554466269.317904,2.120530,0.656351,-0.289769,0.675501,-0.610230,0.413906,0.000000,0.000000,0.000000,-1,-0.702402,-0.367002,-1.448849,-0.147394,0.035340,0.289937
"2019-04-05 12:11:09.338 +0000",1554466269.337829,2.092885,0.641946,-0.252378,0.694231,-0.598755,0.399419,0.000000,0.000000,0.000000,-1,-1.195629,-0.160747,-1.334298,-0.104632,-0.061997,0.473949
"2019-04-05 12:11:09.358 +0000",1554466269.357756,2.067824,0.634119,-0.206510,0.708120,-0.592468,0.384119,0.000000,0.000000,0.000000,-1,-1.505731,0.454952,-1.093402,0.277171,-0.398956,0.611502
"2019-04-05 12:11:09.378 +0000",1554466269.377680,2.057574,0.627892,-0.167654,0.715267,-0.587440,0.378560,0.000000,0.000000,0.000000,-1,-0.825100,0.678156,-1.030957,0.085407,-0.403588,0.212902
"2019-04-05 12:11:09.398 +0000",1554466269.397607,2.053281,0.609525,-0.150141,0.726322,-0.572478,0.380428,0.000000,0.000000,0.000000,-1,0.476833,-0.177224,-1.272515,-0.101856,-0.202378,-0.121883
"2019-04-05 12:11:09.418 +0000",1554466269.417532,2.044120,0.573488,-0.159021,0.747661,-0.542565,0.382918,0.000000,0.000000,0.000000,-1,1.753433,-1.261560,-1.641258,-0.065731,0.062203,-0.243911
"2019-04-05 12:11:09.437 +0000",1554466269.437457,2.026268,0.521893,-0.181823,0.778502,-0.498522,0.381327,0.000000,0.000000,0.000000,-1,2.202633,-1.390467,-2.122230,0.236940,0.151003,0.175344
"2019-04-05 12:11:09.457 +0000",1554466269.457383,2.019482,0.459201,-0.203888,0.807679,-0.443232,0.388845,0.000000,0.000000,0.000000,-1,2.262210,-0.380290,-2.697530,0.333770,0.190440,0.262187
"2019-04-05 12:11:09.477 +0000",1554466269.477309,2.021010,0.389117,-0.221340,0.833047,-0.379372,0.402628,0.000000,0.000000,0.000000,-1,2.210197,-0.439220,-2.794585,0.216925,0.212120,0.005148
"2019-04-05 12:11:09.497 +0000",1554466269.497234,2.009688,0.324599,-0.238310,0.857951,-0.318929,0.402745,0.000000,0.000000,0.000000,-1,1.999642,-1.268047,-2.358511,0.262349,0.109227,-0.116597
"2019-04-05 12:11:09.517 +0000",1554466269.517159,1.987625,0.270143,-0.254667,0.881216,-0.266869,0.390179,0.000000,0.000000,0.000000,-1,1.703115,-1.232789,-1.996913,0.234187,0.047448,0.031482
"2019-04-05 12:11:09.537 +0000",1554466269.537086,1.971318,0.223932,-0.269439,0.897866,-0.222065,0.380164,0.000000,0.000000,0.000000,-1,1.492017,-0.821876,-1.649194,0.197975,0.058887,0.190179
"2019-04-05 12:11:09.557 +0000",1554466269.557010,1.957705,0.186398,-0.287826,0.910038,-0.185321,0.370792,0.000000,0.000000,0.000000,-1,1.730442,-1.018565,-1.130551,0.143551,0.063861,0.038266
"2019-04-05 12:11:09.577 +0000",1554466269.576936,1.938393,0.153279,-0.320207,0.922253,-0.152680,0.355160,0.000000,0.000000,0.000000,-1,2.543668,-1.476749,-0.847018,0.040577,0.087281,-0.151943
"2019-04-05 12:11:09.597 +0000",1554466269.596861,1.911518,0.116203,-0.372374,0.936158,-0.115941,0.331913,0.000000,0.000000,0.000000,-1,3.616245,-1.881887,-0.887426,-0.103058,0.181401,-0.159550
"2019-04-05 12:11:09.617 +0000",1554466269.616787,1.877583,0.071435,-0.443436,0.950878,-0.071374,0.301226,0.000000,0.000000,0.000000,-1,4.476389,-2.174392,-1.090858,-0.210781,0.286737,-0.048129
"2019-04-05 12:11:09.637 +0000",1554466269.636712,1.836260,0.022495,-0.528094,0.964727,-0.022493,0.262291,0.000000,0.000000,0.000000,-1,5.028866,-2.256762,-1.194544,-0.169454,0.276949,0.076119
"2019-04-05 12:11:09.657 +0000",1554466269.656639,1.819529,-0.031121,-0.642031,0.968756,0.031116,0.246057,0.000000,0.000000,0.000000,-1,8.718975,2.177918,-1.430339,0.030283,0.082226,0.279822
"2019-04-05 12:11:09.677 +0000",1554466269.676564,1.884310,-0.122247,-0.844731,0.944157,0.121943,0.306101,0.000000,0.000000,0.000000,-1,11.975900,3.973359,-1.222856,0.404095,-0.370631,0.484213
"2019-04-05 12:11:09.696 +0000",1554466269.696489,1.892668,-0.199260,-1.056806,0.929875,0.197944,0.310083,0.000000,0.000000,0.000000,-1,10.441103,0.799490,0.587203,0.248028,0.190392,1.120932
"2019-04-05 12:11:09.716 +0000",1554466269.716415,1.860227,-0.233817,-1.263616,0.932327,0.231692,0.277641,0.000000,0.000000,0.000000,-1,9.970067,0.752009,2.103631,-0.024063,0.259534,0.296242
"2019-04-05 12:11:09.736 +0000",1554466269.736340,1.827913,-0.245416,-1.463932,0.938148,0.242960,0.246674,0.000000,0.000000,0.000000,-1,8.950003,0.338268,1.789615,-0.290367,0.468344,-0.054123
"2019-04-05 12:11:09.756 +0000",1554466269.756267,1.776793,-0.256749,-1.633810,0.946771,0.253938,0.197838,0.000000,0.000000,0.000000,-1,7.506372,-1.014186,1.065503,-0.314600,0.370422,-0.156639
"2019-04-05 12:11:09.776 +0000",1554466269.776192,1.712024,-0.266453,-1.777172,0.955106,0.263311,0.135791,0.000000,0.000000,0.000000,-1,6.338457,-1.650660,0.175872,-0.203824,0.251947,-0.080249
"2019-04-05 12:11:09.796 +0000",1554466269.796118,1.648733,-0.292145,-1.894637,0.954721,0.288007,0.074559,0.000000,0.000000,0.000000,-1,5.084524,-1.148553,-1.413193,-0.227198,0.321078,0.005214
"2019-04-05 12:11:09.816 +0000",1554466269.816042,1.619715,-0.333093,-1.982391,0.943905,0.326968,0.046212,0.000000,0.000000,0.000000,-1,3.597692,1.016123,-1.914318,0.070881,0.206938,0.172325
"2019-04-05 12:11:09.836 +0000",1554466269.835968,1.637293,-0.369170,-2.045878,0.930566,0.360841,0.061971,0.000000,0.000000,0.000000,-1,2.628142,2.691527,-1.363012,0.178397,-0.101350,0.089015
"2019-04-05 12:11:09.856 +0000",1554466269.855895,1.676526,-0.395676,-2.091822,0.917583,0.385432,0.097379,0.000000,0.000000,0.000000,-1,1.890466,2.767417,-0.955746,-0.078960,-0.247813,-0.082945
"2019-04-05 12:11:09.876 +0000",1554466269.875820,1.712089,-0.415076,-2.124171,0.905967,0.403260,0.128865,0.000000,0.000000,0.000000,-1,1.331940,1.991413,-0.578382,-0.259452,-0.343506,-0.166783
"2019-04-05 12:11:09.896 +0000",1554466269.895746,1.731047,-0.424480,-2.146058,0.899578,0.411847,0.145404,0.000000,0.000000,0.000000,-1,0.776268,0.758664,-0.053395,-0.251277,-0.392239,-0.205661
"2019-04-05 12:11:09.916 +0000",1554466269.915670,1.729218,-0.422556,-2.156495,0.900623,0.410093,0.143884,0.000000,0.000000,0.000000,-1,0.120818,-0.469066,0.400325,-0.209674,-0.369993,-0.190988
"2019-04-05 12:11:09.936 +0000",1554466269.935597,1.712713,-0.409550,-2.153781,0.908078,0.398196,0.129744,0.000000,0.000000,0.000000,-1,-0.556472,-1.190098,0.838929,-0.110440,-0.343997,-0.131697
"2019-04-05 12:11:09.956 +0000",1554466269.955522,1.692794,-0.387015,-2.138425,0.919157,0.377426,0.112695,0.000000,0.000000,0.000000,-1,-1.130628,-1.331301,1.202263,-0.004820,-0.291458,-0.086404
"2019-04-05 12:11:09.975 +0000",1554466269.975448,1.677006,-0.357705,-2.112704,0.931425,0.350126,0.099300,0.000000,0.000000,0.000000,-1,-1.557874,-1.198525,1.432207,0.120867,-0.207837,-0.078441
"2019-04-05 12:11:09.995 +0000",1554466269.995373,1.663923,-0.325213,-2.080487,0.943477,0.319511,0.088118,0.000000,0.000000,0.000000,-1,-1.762460,-1.224479,1.476077,0.259450,-0.117240,-0.128417
"2019-04-05 12:11:10.015 +0000",1554466270.015299,1.649304,-0.293467,-2.046374,0.954298,0.289273,0.075074,0.000000,0.000000,0.000000,-1,-1.716858,-1.254212,1.448130,0.383943,-0.042584,-0.134522
"2019-04-05 12:11:10.035 +0000",1554466270.035225,1.633430,-0.261368,-2.015443,0.964143,0.258402,0.060467,0.000000,0.000000,0.000000,-1,-1.475022,-1.191342,1.548703,0.489668,0.022039,-0.114650
"2019-04-05 12:11:10.055 +0000",1554466270.055150,1.616716,-0.228389,-1.989580,0.973006,0.226409,0.044712,0.000000,0.000000,0.000000,-1,-1.235351,-1.117502,1.623413,0.517427,0.133042,-0.073734
"2019-04-05 12:11:10.075 +0000",1554466270.075076,1.598484,-0.194666,-1.967884,0.980736,0.193439,0.027161,0.000000,0.000000,0.000000,-1,-1.032566,-1.262469,1.672207,0.461479,0.224362,-0.049210
"2019-04-05 12:11:10.095 +0000",1554466270.095001,1.565309,-0.163185,-1.943591,0.986700,0.162461,-0.005414,0.000000,0.000000,0.000000,-1,-1.721282,-2.945987,1.366230,0.230417,0.363967,0.083081
"2019-04-05 12:11:10.115 +0000",1554466270.114927,1.498976,-0.140816,-1.893234,0.987549,0.140351,-0.071048,0.000000,0.000000,0.000000,-1,-3.089496,-3.857440,1.170214,0.010040,0.566421,0.511234
"2019-04-05 12:11:10.135 +0000",1554466270.134853,1.448990,-0.121264,-1.821440,0.985302,0.120967,-0.120613,0.000000,0.000000,0.000000,-1,-3.760551,-1.941998,1.504313,0.175099,0.468144,0.577965
"2019-04-05 12:11:10.155 +0000",1554466270.154778,1.435975,-0.102902,-1.735988,0.985684,0.102720,-0.133702,0.000000,0.000000,0.000000,-1,-4.531282,-0.509435,1.374930,0.014667,0.513567,0.598683
"2019-04-05 12:11:10.175 +0000",1554466270.174703,1.442065,-0.091557,-1.628695,0.987572,0.091429,-0.127839,0.000000,0.000000,0.000000,-1,-5.980766,0.039691,1.200345,-0.037087,0.724581,1.053086
"2019-04-05 12:11:10.195 +0000",1554466270.194629,1.462088,-0.083201,-1.496346,0.990658,0.083105,-0.108119,0.000000,0.000000,0.000000,-1,-6.885335,0.977648,1.269022,0.027515,0.732584,1.101085
"2019-04-05 12:11:10.215 +0000",1554466270.214555,1.513205,-0.066130,-1.357352,0.996160,0.066081,-0.057434,0.000000,0.000000,0.000000,-1,-6.679820,3.266962,1.610907,0.232905,0.533330,0.767471
"2019-04-05 12:11:10.234 +0000",1554466270.234480,1.610625,-0.035868,-1.232186,0.998564,0.035860,0.039792,0.000000,0.000000,0.000000,-1,-5.745449,5.763029,1.548747,0.339830,0.444990,0.392474
"2019-04-05 12:11:10.254 +0000",1554466270.254406,1.737949,0.003069,-1.135119,0.986058,-0.003069,0.166375,0.000000,0.000000,0.000000,-1,-4.270073,6.277596,1.402274,0.480190,0.403200,-0.007485
"2019-04-05 12:11:10.274 +0000",1554466270.274331,1.841968,0.045247,-1.075424,0.962472,-0.045231,0.267586,0.000000,0.000000,0.000000,-1,-2.506078,4.194368,1.431866,0.417396,0.286900,-0.415612
"2019-04-05 12:11:10.294 +0000",1554466270.294257,1.913185,0.082554,-1.050402,0.938747,-0.082460,0.334595,0.000000,0.000000,0.000000,-1,-1.088445,3.425915,1.362885,0.142338,0.151903,-0.487030
"2019-04-05 12:11:10.314 +0000",1554466270.314182,1.982281,0.109124,-1.049979,0.911076,-0.108908,0.397591,0.000000,0.000000,0.000000,-1,0.043803,3.438905,1.103832,-0.031453,0.115698,-0.502312
"2019-04-05 12:11:10.334 +0000",1554466270.334109,2.046351,0.122048,-1.069038,0.882426,-0.121745,0.454426,0.000000,0.000000,0.000000,-1,1.136850,2.611676,0.912608,-0.092204,0.111537,-0.593128
"2019-04-05 12:11:10.354 +0000",1554466270.354033,2.089619,0.120557,-1.108414,0.862100,-0.120265,0.492259,0.000000,0.000000,0.000000,-1,2.421602,1.238837,0.850968,-0.102045,0.147593,-0.622859
"2019-04-05 12:11:10.374 +0000",1554466270.373959,2.112205,0.101482,-1.170834,0.852575,-0.101308,0.512692,0.000000,0.000000,0.000000,-1,3.934396,0.515513,0.598953,-0.137822,0.212712,-0.529141
"2019-04-05 12:11:10.394 +0000",1554466270.393903,2.133269,0.059209,-1.254827,0.844457,-0.059174,0.532345,0.000000,0.000000,0.000000,-1,5.426366,1.084727,0.203600,-0.156972,0.256394,-0.367490
"2019-04-05 12:11:10.414 +0000",1554466270.413810,2.165890,-0.006827,-1.356156,0.828076,0.006827,0.560574,0.000000,0.000000,0.000000,-1,6.649910,1.809981,-0.141514,-0.034009,0.255579,-0.283916
"2019-04-05 12:11:10.434 +0000",1554466270.433737,2.194435,-0.091160,-1.469922,0.808388,0.091034,0.581568,0.000000,0.000000,0.000000,-1,7.490281,1.335537,-0.218907,0.158882,0.141144,-0.263178
"2019-04-05 12:11:10.454 +0000",1554466270.453665,2.184781,-0.183605,-1.593560,0.803621,0.182575,0.566445,0.000000,0.000000,0.000000,-1,7.771744,-0.740343,-0.174309,0.254378,0.134976,-0.229241
"2019-04-05 12:11:10.474 +0000",1554466270.473587,2.125424,-0.271372,-1.718587,0.818987,0.268053,0.507354,0.000000,0.000000,0.000000,-1,7.145233,-2.050280,-0.409076,0.091704,0.101362,0.038132
"2019-04-05 12:11:10.494 +0000",1554466270.493514,2.054196,-0.345624,-1.832084,0.833060,0.338784,0.437306,0.000000,0.000000,0.000000,-1,5.922558,-1.457509,-0.646892,-0.063727,-0.036461,0.340221
"2019-04-05 12:11:10.513 +0000",1554466270.513441,2.005013,-0.402741,-1.924055,0.834615,0.391942,0.387040,0.000000,0.000000,0.000000,-1,4.304575,-0.057467,-0.754924,-0.186742,-0.231557,0.420226
"2019-04-05 12:11:10.533 +0000",1554466270.533364,1.988654,-0.447178,-1.988072,0.824092,0.432423,0.365901,0.000000,0.000000,0.000000,-1,2.918207,1.027644,-0.821662,-0.324687,-0.372090,0.248555
"2019-04-05 12:11:10.553 +0000",1554466270.553289,1.998865,-0.478441,-2.030743,0.807615,0.460396,0.368503,0.000000,0.000000,0.000000,-1,1.882725,1.834633,-0.407301,-0.308042,-0.494545,0.020428
"2019-04-05 12:11:10.573 +0000",1554466270.573216,2.025494,-0.491376,-2.057653,0.792100,0.471839,0.387228,0.000000,0.000000,0.000000,-1,0.834544,1.970809,0.231163,-0.256379,-0.549583,-0.155569
"2019-04-05 12:11:10.593 +0000",1554466270.593142,2.055030,-0.485559,-2.070672,0.782735,0.466703,0.411722,0.000000,0.000000,0.000000,-1,-0.042323,1.567468,0.810621,-0.272649,-0.531736,-0.285440
"2019-04-05 12:11:10.613 +0000",1554466270.613067,2.079671,-0.462785,-2.073878,0.781434,0.446442,0.435948,0.000000,0.000000,0.000000,-1,-0.764305,1.051853,1.326738,-0.279572,-0.485551,-0.353734
"2019-04-05 12:11:10.633 +0000",1554466270.632993,2.096742,-0.425339,-2.071387,0.787791,0.412629,0.457299,0.000000,0.000000,0.000000,-1,-1.295403,0.549033,1.853918,-0.285288,-0.416765,-0.410394
"2019-04-05 12:11:10.653 +0000",1554466270.652919,2.104089,-0.374354,-2.065315,0.801499,0.365672,0.473164,0.000000,0.000000,0.000000,-1,-1.773482,-0.080907,2.252954,-0.301789,-0.313609,-0.454167
"2019-04-05 12:11:10.673 +0000",1554466270.672843,2.098409,-0.317313,-2.055034,0.820878,0.312015,0.478338,0.000000,0.000000,0.000000,-1,-2.203965,-0.750784,2.513062,-0.218354,-0.217014,-0.479253
"2019-04-05 12:11:10.693 +0000",1554466270.692769,2.080210,-0.252463,-2.035525,0.845356,0.249790,0.472206,0.000000,0.000000,0.000000,-1,-2.690243,-1.728730,1.947711,-0.019932,-0.032657,-0.504860
"2019-04-05 12:11:10.713 +0000",1554466270.712695,2.039772,-0.210789,-1.994863,0.872288,0.209231,0.441969,0.000000,0.000000,0.000000,-1,-3.053419,-3.212923,0.103536,0.460705,0.263013,-0.538847
"2019-04-05 12:11:10.733 +0000",1554466270.732620,1.965558,-0.188927,-1.932724,0.906663,0.187805,0.377745,0.000000,0.000000,0.000000,-1,-3.311216,-5.205312,-0.206102,1.542800,0.542069,-0.635436
"2019-04-05 12:11:10.753 +0000",1554466270.752545,1.857952,-0.165816,-1.896523,0.945899,0.165057,0.279341,0.000000,0.000000,0.000000,-1,1.034252,-6.886718,1.298186,2.302133,0.830778,-0.565230
"2019-04-05 12:11:10.772 +0000",1554466270.772472,1.735105,-0.163808,-1.982422,0.973325,0.163077,0.161381,0.000000,0.000000,0.000000,-1,5.259037,-2.692188,0.133303,0.709017,0.706186,-0.341358
"2019-04-05 12:11:10.792 +0000",1554466270.792396,1.705879,-0.180188,-2.084231,0.974848,0.179214,0.132492,0.000000,0.000000,0.000000,-1,4.860090,0.869296,0.007716,0.051611,0.454697,0.191056
"2019-04-05 12:11:10.812 +0000",1554466270.812323,1.709034,-0.185277,-2.177677,0.973509,0.184219,0.135439,0.000000,0.000000,0.000000,-1,4.372437,0.603407,0.737535,0.044344,0.281617,-0.044878
"2019-04-05 12:11:10.832 +0000",1554466270.832248,1.677597,-0.176409,-2.267004,0.978871,0.175495,0.104943,0.000000,0.000000,0.000000,-1,4.257771,-2.362766,1.165129,-0.145436,0.240047,-0.123574
"2019-04-05 12:11:10.852 +0000",1554466270.852174,1.596115,-0.160944,-2.344242,0.986760,0.160250,0.024989,0.000000,0.000000,0.000000,-1,3.037617,-3.887814,0.900375,-0.215032,0.252088,0.329549
"2019-04-05 12:11:10.872 +0000",1554466270.872099,1.527991,-0.144520,-2.385832,0.988669,0.144017,-0.042346,0.000000,0.000000,0.000000,-1,1.102978,-2.026324,0.728294,-0.020453,0.177058,0.889132
"2019-04-05 12:11:10.892 +0000",1554466270.892025,1.513084,-0.131010,-2.387020,0.989780,0.130636,-0.057186,0.000000,0.000000,0.000000,-1,-0.991359,0.427752,0.628166,0.022870,0.084406,1.212933
"2019-04-05 12:11:10.912 +0000",1554466270.911951,1.535155,-0.119843,-2.345066,0.992197,0.119556,-0.035378,0.000000,0.000000,0.000000,-1,-3.012092,0.960207,0.716711,0.280432,0.229382,0.805749
"2019-04-05 12:11:10.932 +0000",1554466270.931875,1.561544,-0.105977,-2.271289,0.994347,0.105778,-0.009200,0.000000,0.000000,0.000000,-1,-4.185805,0.881566,0.825926,0.305885,0.331233,0.308868
"2019-04-05 12:11:10.952 +0000",1554466270.951802,1.587885,-0.088407,-2.181789,0.995949,0.088292,0.017021,0.000000,0.000000,0.000000,-1,-4.685188,0.912230,0.936158,0.113487,0.377528,0.072288
"2019-04-05 12:11:10.972 +0000",1554466270.971727,1.612495,-0.067667,-2.086253,0.996844,0.067615,0.041591,0.000000,0.000000,0.000000,-1,-4.923764,0.764307,0.817272,-0.108920,0.378704,-0.028255
"2019-04-05 12:11:10.992 +0000",1554466270.991652,1.631005,-0.048103,-1.987302,0.997033,0.048084,0.060102,0.000000,0.000000,0.000000,-1,-5.066894,0.532583,0.618793,-0.210931,0.399212,-0.080580
"2019-04-05 12:11:11.012 +0000",1554466271.011578,1.645505,-0.029119,-1.886234,0.996788,0.029115,0.074607,0.000000,0.000000,0.000000,-1,-5.174000,0.539984,0.627252,-0.156181,0.468230,-0.080863
"2019-04-05 12:11:11.032 +0000",1554466271.031504,1.657111,-0.010474,-1.783638,0.996222,0.010474,0.086203,0.000000,0.000000,0.000000,-1,-5.212300,0.384661,0.377211,-0.273078,0.541391,-0.090918
"2019-04-05 12:11:11.051 +0000",1554466271.051429,1.661682,0.002401,-1.682340,0.995870,-0.002401,0.090760,0.000000,0.000000,0.000000,-1,-4.993880,0.063217,0.033813,-0.427221,0.549199,-0.125092
"2019-04-05 12:11:11.071 +0000",1554466271.071356,1.663307,0.012108,-1.587121,0.995651,-0.012108,0.092372,0.000000,0.000000,0.000000,-1,-4.605856,0.212581,0.091506,-0.360839,0.382606,-0.102382
"2019-04-05 12:11:11.091 +0000",1554466271.091282,1.666767,0.021986,-1.499917,0.995158,-0.021984,0.095801,0.000000,0.000000,0.000000,-1,-4.199795,0.224776,0.022079,-0.273234,0.310131,-0.132544
"2019-04-05 12:11:11.111 +0000",1554466271.111206,1.666815,0.026245,-1.421115,0.995051,-0.026242,0.095839,0.000000,0.000000,0.000000,-1,-3.686671,-0.054966,-0.367208,-0.326212,0.286419,-0.172438
"2019-04-05 12:11:11.131 +0000",1554466271.131132,1.660721,0.022628,-1.352689,0.995704,-0.022626,0.089780,0.000000,0.000000,0.000000,-1,-3.120260,-0.369425,-0.577547,-0.338386,0.232709,-0.173963
"2019-04-05 12:11:11.151 +0000",1554466271.151057,1.650394,0.016061,-1.294574,0.996705,-0.016060,0.079504,0.000000,0.000000,0.000000,-1,-2.654514,-0.509177,-0.553141,-0.234773,0.189461,-0.146352
"2019-04-05 12:11:11.171 +0000",1554466271.170984,1.640023,0.008746,-1.245064,0.997567,-0.008746,0.069169,0.000000,0.000000,0.000000,-1,-2.247377,-0.448248,-0.562225,-0.129494,0.180575,-0.115601
"2019-04-05 12:11:11.191 +0000",1554466271.190908,1.632748,-0.000274,-1.203988,0.998082,0.000274,0.061913,0.000000,0.000000,0.000000,-1,-1.806421,-0.244661,-0.526002,0.035762,0.173142,-0.111259
"2019-04-05 12:11:11.211 +0000",1554466271.210835,1.630465,-0.007363,-1.171553,0.998193,0.007363,0.059632,0.000000,0.000000,0.000000,-1,-1.423701,-0.025591,-0.402588,0.138174,0.120949,-0.103928
"2019-04-05 12:11:11.231 +0000",1554466271.230761,1.629757,-0.028348,-1.145540,0.997861,0.028344,0.058903,0.000000,0.000000,0.000000,-1,-1.156332,-0.157274,-0.425891,0.152499,0.086127,-0.126881
"2019-04-05 12:11:11.251 +0000",1554466271.250685,1.623626,-0.037786,-1.124967,0.997892,0.037777,0.052767,0.000000,0.000000,0.000000,-1,-0.815736,-0.569740,-0.678594,0.177553,0.114292,-0.152437
"2019-04-05 12:11:11.271 +0000",1554466271.270612,1.605608,-0.065343,-1.113358,0.997261,0.065297,0.034730,0.000000,0.000000,0.000000,-1,-0.265705,-1.239473,-0.760735,0.501991,0.148586,-0.195863
"2019-04-05 12:11:11.291 +0000",1554466271.290536,1.576812,-0.077935,-1.113181,0.996947,0.077856,0.005998,0.000000,0.000000,0.000000,-1,0.249345,-1.568393,-0.499201,0.695635,0.091639,-0.140428
"2019-04-05 12:11:11.310 +0000",1554466271.310462,1.544389,-0.098207,-1.122129,0.994835,0.098049,-0.026277,0.000000,0.000000,0.000000,-1,0.610952,-1.444383,-0.389827,0.504814,0.039997,-0.025771
"2019-04-05 12:11:11.330 +0000",1554466271.330389,1.516782,-0.103340,-1.137308,0.993214,0.103156,-0.053701,0.000000,0.000000,0.000000,-1,0.872818,-1.138193,-0.151316,0.249873,-0.009543,0.046941
"2019-04-05 12:11:11.350 +0000",1554466271.350314,1.494790,-0.112446,-1.157135,0.990816,0.112209,-0.075453,0.000000,0.000000,0.000000,-1,1.099542,-0.692948,0.106552,-0.010606,-0.069683,0.112395
"2019-04-05 12:11:11.370 +0000",1554466271.370240,1.473962,-0.109799,-1.184138,0.989322,0.109578,-0.096100,0.000000,0.000000,0.000000,-1,1.874586,-1.709099,-0.157350,-0.169559,-0.079808,0.125611
"2019-04-05 12:11:11.390 +0000",1554466271.390165,1.435252,-0.116311,-1.251220,0.984133,0.116049,-0.134217,0.000000,0.000000,0.000000,-1,4.825720,-0.020554,-0.356550,0.196882,-0.145178,0.684952
"2019-04-05 12:11:11.410 +0000",1554466271.410090,1.478679,-0.116148,-1.372441,0.989051,0.115887,-0.091367,0.000000,0.000000,0.000000,-1,6.945356,5.540521,-1.136698,-0.070716,0.323200,1.213590
"2019-04-05 12:11:11.430 +0000",1554466271.430017,1.582764,-0.139274,-1.518718,0.990246,0.138824,0.011851,0.000000,0.000000,0.000000,-1,7.295583,5.754811,-1.565020,-0.149884,0.283966,0.539006
"2019-04-05 12:11:11.450 +0000",1554466271.449942,1.646587,-0.177190,-1.659913,0.981517,0.176264,0.074533,0.000000,0.000000,0.000000,-1,6.819564,2.978462,-1.591603,0.147267,0.077200,0.208365
"2019-04-05 12:11:11.470 +0000",1554466271.469868,1.670869,-0.224113,-1.784156,0.970114,0.222242,0.097407,0.000000,0.000000,0.000000,-1,5.612996,2.309822,-2.041667,0.328135,-0.036420,0.531926
"2019-04-05 12:11:11.490 +0000",1554466271.489793,1.705781,-0.277366,-1.875553,0.953031,0.273823,0.129432,0.000000,0.000000,0.000000,-1,3.844535,3.602230,-2.166089,0.510241,-0.167515,0.583443
"2019-04-05 12:11:11.510 +0000",1554466271.509720,1.767345,-0.327298,-1.930690,0.928683,0.321485,0.184919,0.000000,0.000000,0.000000,-1,2.261207,3.930120,-1.880778,0.457593,-0.298506,0.174792
"2019-04-05 12:11:11.530 +0000",1554466271.529645,1.829417,-0.367948,-1.956887,0.902038,0.359701,0.238629,0.000000,0.000000,0.000000,-1,1.125738,3.126683,-1.566779,0.321839,-0.330725,-0.086850
"2019-04-05 12:11:11.550 +0000",1554466271.549570,1.882217,-0.399702,-1.962194,0.876868,0.389144,0.282259,0.000000,0.000000,0.000000,-1,0.278446,2.443182,-1.354709,0.101755,-0.334197,-0.196810
"2019-04-05 12:11:11.569 +0000",1554466271.569496,1.929962,-0.421973,-1.951919,0.854070,0.409561,0.320661,0.000000,0.000000,0.000000,-1,-0.418350,1.927117,-1.054056,-0.016058,-0.342240,-0.252653
"2019-04-05 12:11:11.589 +0000",1554466271.589421,1.970862,-0.432834,-1.930601,0.836098,0.419445,0.353562,0.000000,0.000000,0.000000,-1,-0.929297,1.257240,-0.687396,-0.064461,-0.342846,-0.314636
"2019-04-05 12:11:11.609 +0000",1554466271.609347,1.999471,-0.433102,-1.905083,0.825540,0.419688,0.377287,0.000000,0.000000,0.000000,-1,-1.157020,0.578481,-0.267510,-0.123407,-0.348079,-0.361952
"2019-04-05 12:11:11.629 +0000",1554466271.629274,2.015496,-0.423888,-1.879822,0.822845,0.411307,0.392114,0.000000,0.000000,0.000000,-1,-1.363613,-0.032851,0.154563,-0.233565,-0.346595,-0.378991
"2019-04-05 12:11:11.649 +0000",1554466271.649199,2.020029,-0.406163,-1.853671,0.827496,0.395087,0.398944,0.000000,0.000000,0.000000,-1,-1.531346,-0.596111,0.318091,-0.273068,-0.269599,-0.381076
"2019-04-05 12:11:11.669 +0000",1554466271.669125,2.008660,-0.402765,-1.833381,0.833189,0.391963,0.390077,0.000000,0.000000,0.000000,-1,0.575153,-1.211465,-0.814435,-0.276808,0.129246,-0.447587
"2019-04-05 12:11:11.689 +0000",1554466271.689050,1.978318,-0.442913,-1.874266,0.829515,0.428573,0.358092,0.000000,0.000000,0.000000,-1,3.856894,-0.039336,-0.870906,-0.086778,0.372117,-0.399733
"2019-04-05 12:11:11.709 +0000",1554466271.708975,1.952884,-0.484343,-1.954910,0.821163,0.465627,0.329973,0.000000,0.000000,0.000000,-1,3.943802,0.995714,0.095756,-0.162426,-0.178793,-0.171373
"2019-04-05 12:11:11.729 +0000",1554466271.728901,1.939293,-0.502897,-2.032090,0.817371,0.481966,0.315615,0.000000,0.000000,0.000000,-1,3.062937,1.222718,0.629953,-0.334003,-0.347002,-0.148867
"2019-04-05 12:11:11.749 +0000",1554466271.748827,1.931677,-0.508889,-2.094596,0.817035,0.487207,0.308356,0.000000,0.000000,0.000000,-1,2.145317,1.028632,1.046645,-0.317050,-0.410516,-0.165793
"2019-04-05 12:11:11.769 +0000",1554466271.768753,1.927725,-0.497782,-2.138584,0.823267,0.477478,0.306996,0.000000,0.000000,0.000000,-1,1.045257,0.715442,1.315443,-0.131006,-0.380676,-0.145695
"2019-04-05 12:11:11.789 +0000",1554466271.788679,1.930408,-0.477759,-2.157153,0.831224,0.459790,0.312506,0.000000,0.000000,0.000000,-1,-0.348890,0.467027,1.375837,0.093352,-0.315701,-0.106711
"2019-04-05 12:11:11.809 +0000",1554466271.808604,1.940279,-0.443764,-2.145706,0.842193,0.429341,0.326154,0.000000,0.000000,0.000000,-1,-1.816906,-0.078632,1.441508,0.324006,-0.246541,-0.120420
"2019-04-05 12:11:11.829 +0000",1554466271.828530,1.941650,-0.399483,-2.107568,0.858634,0.388942,0.333876,0.000000,0.000000,0.000000,-1,-3.120465,-1.395130,1.679826,0.483148,-0.158137,-0.208998
"2019-04-05 12:11:11.848 +0000",1554466271.848455,1.920924,-0.341192,-2.048508,0.885183,0.334611,0.323245,0.000000,0.000000,0.000000,-1,-4.021098,-2.804496,1.785141,0.706477,-0.003846,-0.253284
"2019-04-05 12:11:11.868 +0000",1554466271.868381,1.864432,-0.286086,-1.984122,0.918293,0.282199,0.277670,0.000000,0.000000,0.000000,-1,-2.584091,-5.737427,1.551325,0.723720,0.277570,-0.349860
"2019-04-05 12:11:11.888 +0000",1554466271.888307,1.734684,-0.261372,-2.006862,0.953092,0.258406,0.157614,0.000000,0.000000,0.000000,-1,2.578401,-3.948043,0.813468,0.549640,0.341371,-0.589132
"2019-04-05 12:11:11.908 +0000",1554466271.908232,1.698027,-0.256641,-2.058287,0.959430,0.253833,0.122732,0.000000,0.000000,0.000000,-1,2.124698,0.968965,0.609144,-0.019138,0.128781,0.407572
"2019-04-05 12:11:11.928 +0000",1554466271.928159,1.716220,-0.247592,-2.097010,0.959272,0.245070,0.140492,0.000000,0.000000,0.000000,-1,1.558517,1.075805,0.803321,0.014742,0.082627,0.005931
"2019-04-05 12:11:11.948 +0000",1554466271.948084,1.705087,-0.234197,-2.127931,0.963943,0.232062,0.130233,0.000000,0.000000,0.000000,-1,1.171348,-1.387487,0.895399,0.037217,0.096475,-0.225570
"2019-04-05 12:11:11.968 +0000",1554466271.968009,1.667370,-0.220129,-2.145892,0.971322,0.218355,0.094096,0.000000,0.000000,0.000000,-1,0.391874,-1.555002,0.711047,0.044943,0.091581,0.085240
"2019-04-05 12:11:11.988 +0000",1554466271.987936,1.643335,-0.207337,-2.149111,0.976009,0.205854,0.070923,0.000000,0.000000,0.000000,-1,-0.086207,-0.908602,0.639212,0.123722,0.064013,0.215240
"2019-04-05 12:11:12.008 +0000",1554466272.007862,1.624963,-0.194171,-2.148026,0.979769,0.192953,0.053122,0.000000,0.000000,0.000000,-1,-0.097815,-0.919594,0.674752,0.132703,-0.002981,0.177987
"2019-04-05 12:11:12.028 +0000",1554466272.027786,1.608410,-0.183522,-2.144349,0.982512,0.182494,0.036974,0.000000,0.000000,0.000000,-1,-0.452482,-0.509957,0.694691,0.072603,0.017259,0.287001
"2019-04-05 12:11:12.048 +0000",1554466272.047713,1.602809,-0.168932,-2.129318,0.985260,0.168130,0.031551,0.000000,0.000000,0.000000,-1,-1.099499,-0.372869,0.724965,-0.005508,0.051230,0.268833
"2019-04-05 12:11:12.068 +0000",1554466272.067637,1.596559,-0.156228,-2.101244,0.987494,0.155593,0.025446,0.000000,0.000000,0.000000,-1,-1.761066,-0.457707,0.777843,-0.031591,0.088349,0.196921
"2019-04-05 12:11:12.088 +0000",1554466272.087563,1.592974,-0.139598,-2.060116,0.990029,0.139145,0.021960,0.000000,0.000000,0.000000,-1,-2.343198,-0.502640,0.788819,-0.063912,0.142517,0.123776
"2019-04-05 12:11:12.107 +0000",1554466272.107490,1.586667,-0.126006,-2.009465,0.991947,0.125673,0.015744,0.000000,0.000000,0.000000,-1,-2.721718,-0.564615,0.783938,-0.096988,0.186216,0.060306
"2019-04-05 12:11:12.127 +0000",1554466272.127415,1.581346,-0.110235,-1.953114,0.993875,0.110012,0.010486,0.000000,0.000000,0.000000,-1,-2.890362,-0.623885,0.702870,-0.163644,0.237995,0.022229
"2019-04-05 12:11:12.147 +0000",1554466272.147340,1.573887,-0.100528,-1.895368,0.994947,0.100359,0.003075,0.000000,0.000000,0.000000,-1,-2.871664,-0.460795,0.546660,-0.260175,0.285719,0.018958
"2019-04-05 12:11:12.167 +0000",1554466272.167266,1.572739,-0.091160,-1.839105,0.995846,0.091034,0.001934,0.000000,0.000000,0.000000,-1,-2.749127,-0.226706,0.388450,-0.314968,0.271606,0.012897
"2019-04-05 12:11:12.187 +0000",1554466272.187192,1.570539,-0.087378,-1.785297,0.996185,0.087267,-0.000256,0.000000,0.000000,0.000000,-1,-2.646270,-0.328212,0.283009,-0.316498,0.211225,-0.012241
"2019-04-05 12:11:12.207 +0000",1554466272.207118,1.566125,-0.082792,-1.733920,0.996564,0.082697,-0.004655,0.000000,0.000000,0.000000,-1,-2.473254,-0.549800,0.194913,-0.321759,0.144704,-0.017440
"2019-04-05 12:11:12.227 +0000",1554466272.227043,1.556444,-0.083138,-1.687716,0.996443,0.083043,-0.014302,0.000000,0.000000,0.000000,-1,-2.129728,-0.600832,0.090912,-0.330351,0.069576,0.004475
"2019-04-05 12:11:12.247 +0000",1554466272.246969,1.548428,-0.082835,-1.649448,0.996322,0.082741,-0.022290,0.000000,0.000000,0.000000,-1,-1.703594,-0.533380,0.015051,-0.311858,0.026665,0.031552
"2019-04-05 12:11:12.267 +0000",1554466272.266895,1.538885,-0.086490,-1.619384,0.995755,0.086383,-0.031786,0.000000,0.000000,0.000000,-1,-1.322924,-0.539965,-0.024244,-0.241040,0.008664,0.027117
"2019-04-05 12:11:12.287 +0000",1554466272.286820,1.530959,-0.088198,-1.596620,0.995323,0.088084,-0.039672,0.000000,0.000000,0.000000,-1,-0.974243,-0.409755,-0.070051,-0.124580,0.004659,0.023925
"2019-04-05 12:11:12.307 +0000",1554466272.306745,1.526074,-0.093320,-1.580119,0.994653,0.093184,-0.044513,0.000000,0.000000,0.000000,-1,-0.710617,-0.088781,-0.106289,-0.030542,0.023027,0.026965
"2019-04-05 12:11:12.327 +0000",1554466272.326672,1.527847,-0.095991,-1.567814,0.994478,0.095844,-0.042739,0.000000,0.000000,0.000000,-1,-0.534788,0.089570,-0.102798,0.117674,0.065762,0.001983
"2019-04-05 12:11:12.347 +0000",1554466272.346597,1.526812,-0.100907,-1.558884,0.993951,0.100735,-0.043746,0.000000,0.000000,0.000000,-1,-0.385942,-0.233481,-0.111194,0.280249,0.112506,-0.048768
"2019-04-05 12:11:12.367 +0000",1554466272.366524,1.517367,-0.103082,-1.552329,0.993272,0.102900,-0.053120,0.000000,0.000000,0.000000,-1,-0.291915,-0.766354,-0.060410,0.448592,0.129873,-0.062923
"2019-04-05 12:11:12.386 +0000",1554466272.386449,1.497997,-0.106822,-1.547428,0.991666,0.106619,-0.072321,0.000000,0.000000,0.000000,-1,-0.220467,-1.039817,-0.006428,0.502368,0.155833,-0.025595
"2019-04-05 12:11:12.406 +0000",1554466272.406374,1.476594,-0.107515,-1.543365,0.989818,0.107308,-0.093520,0.000000,0.000000,0.000000,-1,-0.192841,-1.129272,-0.050564,0.477590,0.205238,0.017104
"2019-04-05 12:11:12.426 +0000",1554466272.426300,1.453344,-0.112587,-1.540253,0.986823,0.112349,-0.116441,0.000000,0.000000,0.000000,-1,-0.151648,-1.011039,-0.068820,0.504358,0.236650,0.062242
"2019-04-05 12:11:12.446 +0000",1554466272.446225,1.436128,-0.113872,-1.538149,0.984528,0.113626,-0.133392,0.000000,0.000000,0.000000,-1,-0.078751,-0.745717,-0.033151,0.403778,0.190421,0.104766
"2019-04-05 12:11:12.466 +0000",1554466272.466151,1.421949,-0.118658,-1.537056,0.981989,0.118380,-0.147256,0.000000,0.000000,0.000000,-1,-0.090767,-0.483035,-0.060107,0.112417,0.072370,0.159646
"2019-04-05 12:11:12.486 +0000",1554466272.486077,1.407904,-0.121153,-1.535893,0.979529,0.120857,-0.160985,0.000000,0.000000,0.000000,-1,0.012906,-1.237036,-0.142920,-0.036750,-0.046608,0.185261
"2019-04-05 12:11:12.506 +0000",1554466272.506003,1.377423,-0.125952,-1.543567,0.973588,0.125619,-0.190648,0.000000,0.000000,0.000000,-1,0.795928,-0.775376,-0.232251,0.066055,-0.316980,0.552617
"2019-04-05 12:11:12.526 +0000",1554466272.525928,1.405021,-0.130188,-1.573135,0.977944,0.129820,-0.163621,0.000000,0.000000,0.000000,-1,2.016802,3.830738,-0.666796,-0.005654,-0.001890,1.258393
"2019-04-05 12:11:12.546 +0000",1554466272.545854,1.488934,-0.143579,-1.624135,0.986396,0.143086,-0.080929,0.000000,0.000000,0.000000,-1,2.758753,4.660393,-1.022333,-0.079291,0.107036,0.551754
"2019-04-05 12:11:12.566 +0000",1554466272.565780,1.560466,-0.164650,-1.681582,0.986423,0.163907,-0.010191,0.000000,0.000000,0.000000,-1,2.769647,3.311710,-1.245364,-0.002094,0.017627,0.009626
"2019-04-05 12:11:12.586 +0000",1554466272.585707,1.601685,-0.192258,-1.734070,0.981107,0.191075,0.030314,0.000000,0.000000,0.000000,-1,2.427979,1.804748,-1.158603,0.233203,-0.118428,-0.125468
"2019-04-05 12:11:12.606 +0000",1554466272.605631,1.623750,-0.215922,-1.778477,0.975410,0.214248,0.051700,0.000000,0.000000,0.000000,-1,2.018053,1.540941,-1.029920,0.307579,-0.152694,-0.063724
"2019-04-05 12:11:12.626 +0000",1554466272.625556,1.650824,-0.238919,-1.812617,0.968485,0.236653,0.077672,0.000000,0.000000,0.000000,-1,1.445093,1.897065,-0.929496,0.204687,-0.174900,-0.010792
"2019-04-05 12:11:12.645 +0000",1554466272.645482,1.683169,-0.258758,-1.834081,0.960611,0.255881,0.108403,0.000000,0.000000,0.000000,-1,0.841877,1.814682,-0.853902,0.079504,-0.204672,-0.091039
"2019-04-05 12:11:12.665 +0000",1554466272.665408,1.714107,-0.276282,-1.844401,0.952214,0.272780,0.137404,0.000000,0.000000,0.000000,-1,0.391604,1.551751,-0.764070,-0.027897,-0.229354,-0.153930
"2019-04-05 12:11:12.685 +0000",1554466272.685333,1.742119,-0.291047,-1.846113,0.943920,0.286956,0.163316,0.000000,0.000000,0.000000,-1,0.007030,1.329886,-0.675216,-0.098522,-0.230193,-0.185228
"2019-04-05 12:11:12.705 +0000",1554466272.705259,1.769351,-0.304939,-1.839527,0.935124,0.300235,0.188152,0.000000,0.000000,0.000000,-1,-0.390316,1.142198,-0.590692,-0.139668,-0.218998,-0.197613
"2019-04-05 12:11:12.725 +0000",1554466272.725185,1.791082,-0.315213,-1.827047,0.927756,0.310019,0.207743,0.000000,0.000000,0.000000,-1,-0.323411,0.838235,-0.809326,-0.182730,-0.174811,-0.269266
"2019-04-05 12:11:12.745 +0000",1554466272.745110,1.829368,-0.352930,-1.845789,0.907169,0.345649,0.239940,0.000000,0.000000,0.000000,-1,2.903725,3.150458,-1.888438,-0.130588,0.452767,0.083165
"2019-04-05 12:11:12.765 +0000",1554466272.765036,1.856269,-0.405407,-1.912784,0.881751,0.394393,0.258784,0.000000,0.000000,0.000000,-1,4.119109,1.725511,-1.497627,0.028375,0.027161,-0.276545
"2019-04-05 12:11:12.785 +0000",1554466272.784961,1.846948,-0.455510,-1.985854,0.864012,0.439920,0.244854,0.000000,0.000000,0.000000,-1,3.522561,0.640894,-1.294878,-0.238646,-0.230234,-0.190487
"2019-04-05 12:11:12.805 +0000",1554466272.804887,1.830963,-0.493308,-2.046136,0.851131,0.473542,0.226571,0.000000,0.000000,0.000000,-1,2.680094,0.528675,-0.912553,-0.248149,-0.375154,-0.077157
"2019-04-05 12:11:12.825 +0000",1554466272.824813,1.816095,-0.519732,-2.090574,0.841970,0.496647,0.210779,0.000000,0.000000,0.000000,-1,1.711749,0.094599,-0.586449,-0.127569,-0.409214,-0.068536
"2019-04-05 12:11:12.845 +0000",1554466272.844738,1.800614,-0.534697,-2.114635,0.837800,0.509581,0.196004,0.000000,0.000000,0.000000,-1,0.694565,-0.434937,-0.399418,-0.062501,-0.391569,-0.000951
"2019-04-05 12:11:12.865 +0000",1554466272.864664,1.785252,-0.543460,-2.118940,0.836318,0.517100,0.182154,0.000000,0.000000,0.000000,-1,-0.129807,-0.905570,-0.312304,-0.037611,-0.357936,0.039541
"2019-04-05 12:11:12.885 +0000",1554466272.884591,1.770196,-0.547407,-2.110841,0.836958,0.520475,0.169137,0.000000,0.000000,0.000000,-1,-0.374756,-0.801183,-0.194147,0.027743,-0.303251,0.072379
"2019-04-05 12:11:12.905 +0000",1554466272.904516,1.772736,-0.546503,-2.098540,0.836986,0.519703,0.171356,0.000000,0.000000,0.000000,-1,-0.797918,0.458120,0.148944,0.045628,-0.360859,0.155121
"2019-04-05 12:11:12.924 +0000",1554466272.924442,1.803119,-0.534349,-2.072507,0.837479,0.509281,0.198143,0.000000,0.000000,0.000000,-1,-1.681452,1.017170,0.563534,0.019088,-0.433491,0.059593
"2019-04-05 12:11:12.944 +0000",1554466272.944368,1.840981,-0.508957,-2.028600,0.841573,0.487267,0.233079,0.000000,0.000000,0.000000,-1,-2.659163,0.494875,0.947810,0.025965,-0.416023,-0.102449
"2019-04-05 12:11:12.964 +0000",1554466272.964292,1.869498,-0.470034,-1.969131,0.852074,0.452917,0.262366,0.000000,0.000000,0.000000,-1,-3.355144,-0.613916,1.329276,0.147010,-0.300725,-0.195853
"2019-04-05 12:11:12.984 +0000",1554466272.984218,1.860066,-0.423487,-1.915706,0.873784,0.410942,0.260054,0.000000,0.000000,0.000000,-1,-2.631964,-2.061790,1.581424,0.358150,0.030739,-0.307753
"2019-04-05 12:11:13.004 +0000",1554466273.004144,1.847564,-0.380797,-1.875530,0.893038,0.371661,0.253675,0.000000,0.000000,0.000000,-1,-1.989835,-0.785583,1.550068,0.517377,-0.140643,-0.040617
"2019-04-05 12:11:13.024 +0000",1554466273.024069,1.835454,-0.345620,-1.856989,0.908107,0.338780,0.246111,0.000000,0.000000,0.000000,-1,-0.759453,-1.288015,1.249140,0.651738,0.128017,-0.281557
"2019-04-05 12:11:13.044 +0000",1554466273.043995,1.806407,-0.323103,-1.858409,0.922056,0.317510,0.221358,0.000000,0.000000,0.000000,-1,0.349582,-1.366732,0.995440,0.516771,0.237162,-0.238585
"2019-04-05 12:11:13.064 +0000",1554466273.063921,1.782798,-0.308502,-1.873201,0.931458,0.303632,0.200483,0.000000,0.000000,0.000000,-1,0.526416,-0.487779,0.781283,0.119094,0.011706,-0.039442
"2019-04-05 12:11:13.084 +0000",1554466273.083847,1.770384,-0.295633,-1.884875,0.937628,0.291345,0.189664,0.000000,0.000000,0.000000,-1,0.298512,-0.625574,0.725986,-0.071020,-0.041681,-0.095364
"2019-04-05 12:11:13.104 +0000",1554466273.103773,1.748504,-0.281622,-1.891453,0.945478,0.277914,0.169810,0.000000,0.000000,0.000000,-1,0.016140,-1.218201,0.774048,-0.092008,-0.054922,-0.108897
"2019-04-05 12:11:13.124 +0000",1554466273.123698,1.725036,-0.265260,-1.891063,0.953568,0.262160,0.148256,0.000000,0.000000,0.000000,-1,-0.315874,-1.087747,0.831734,0.073959,-0.038741,-0.042177
"2019-04-05 12:11:13.144 +0000",1554466273.143623,1.705159,-0.247703,-1.884573,0.960740,0.245177,0.129870,0.000000,0.000000,0.000000,-1,-0.506953,-0.986933,0.773260,0.143615,-0.017699,-0.054201
"2019-04-05 12:11:13.164 +0000",1554466273.163551,1.686220,-0.232673,-1.877323,0.966579,0.230579,0.112064,0.000000,0.000000,0.000000,-1,-0.318153,-1.119062,0.673336,0.049061,-0.031742,-0.064106
"2019-04-05 12:11:13.183 +0000",1554466273.183474,1.661331,-0.218868,-1.876346,0.972146,0.217125,0.088254,0.000000,0.000000,0.000000,-1,0.060551,-1.237129,0.651278,-0.006570,-0.027305,-0.014233
"2019-04-05 12:11:13.203 +0000",1554466273.203401,1.639536,-0.207258,-1.881678,0.976288,0.205778,0.067216,0.000000,0.000000,0.000000,-1,0.334514,-0.766130,0.545018,-0.032898,-0.002042,0.099181
"2019-04-05 12:11:13.223 +0000",1554466273.223328,1.626729,-0.198127,-1.889888,0.978904,0.196834,0.054810,0.000000,0.000000,0.000000,-1,0.362450,-0.334667,0.402829,-0.000144,0.022084,0.121185
"2019-04-05 12:11:13.243 +0000",1554466273.243252,1.620777,-0.190840,-1.895345,0.980619,0.189684,0.049053,0.000000,0.000000,0.000000,-1,0.109903,-0.196342,0.413224,0.039248,0.050139,0.100789
"2019-04-05 12:11:13.263 +0000",1554466273.263178,1.614077,-0.180325,-1.893756,0.982864,0.179350,0.042566,0.000000,0.000000,0.000000,-1,-0.348636,-0.513099,0.625880,-0.015426,0.068590,0.055045
"2019-04-05 12:11:13.283 +0000",1554466273.283103,1.600891,-0.166278,-1.882430,0.985761,0.165513,0.029675,0.000000,0.000000,0.000000,-1,-0.812460,-0.967084,0.718924,-0.172590,0.127944,0.023426
"2019-04-05 12:11:13.303 +0000",1554466273.303030,1.581978,-0.152409,-1.863124,0.988346,0.151820,0.011052,0.000000,0.000000,0.000000,-1,-1.083849,-1.153731,0.611841,-0.184452,0.205617,0.056438
"2019-04-05 12:11:13.323 +0000",1554466273.322955,1.561909,-0.140886,-1.841690,0.990053,0.140420,-0.008799,0.000000,0.000000,0.000000,-1,-1.012908,-1.142652,0.533290,-0.203722,0.225654,0.104899
"2019-04-05 12:11:13.343 +0000",1554466273.342880,1.542828,-0.131641,-1.823291,0.990960,0.131261,-0.027723,0.000000,0.000000,0.000000,-1,-0.780951,-0.973124,0.466834,-0.278497,0.182627,0.177702
"2019-04-05 12:11:13.363 +0000",1554466273.362807,1.526734,-0.122957,-1.810039,0.991487,0.122647,-0.043716,0.000000,0.000000,0.000000,-1,-0.518213,-0.803440,0.423052,-0.294466,0.049609,0.224578
"2019-04-05 12:11:13.383 +0000",1554466273.382731,1.513907,-0.115986,-1.801860,0.991674,0.115726,-0.056477,0.000000,0.000000,0.000000,-1,-0.258800,-0.546616,0.348017,-0.232046,0.016186,0.277226
"2019-04-05 12:11:13.403 +0000",1554466273.402658,1.506761,-0.109691,-1.797873,0.991953,0.109471,-0.063607,0.000000,0.000000,0.000000,-1,-0.142594,-0.211764,0.313713,-0.160791,0.012889,0.286110
"2019-04-05 12:11:13.423 +0000",1554466273.422583,1.506138,-0.104155,-1.793397,0.992503,0.103967,-0.064263,0.000000,0.000000,0.000000,-1,-0.304168,0.072502,0.282222,-0.134577,0.077232,0.212166
"2019-04-05 12:11:13.443 +0000",1554466273.442509,1.509348,-0.099773,-1.783794,0.993149,0.099608,-0.061105,0.000000,0.000000,0.000000,-1,-0.633033,0.102180,0.214920,-0.125961,0.134859,0.118157
"2019-04-05 12:11:13.462 +0000",1554466273.462434,1.510659,-0.097461,-1.767715,0.993455,0.097307,-0.059816,0.000000,0.000000,0.000000,-1,-0.946682,-0.171726,0.150874,-0.052904,0.181273,0.051714
"2019-04-05 12:11:13.482 +0000",1554466273.482361,1.505735,-0.096157,-1.745647,0.993274,0.096009,-0.064715,0.000000,0.000000,0.000000,-1,-1.246417,-0.527236,0.110554,0.033535,0.207229,0.027057
"2019-04-05 12:11:13.502 +0000",1554466273.502285,1.495434,-0.096660,-1.717477,0.992507,0.096510,-0.074939,0.000000,0.000000,0.000000,-1,-1.559005,-0.763504,0.084222,0.203614,0.259859,0.035205
"2019-04-05 12:11:13.522 +0000",1554466273.522213,1.481943,-0.097970,-1.683464,0.991279,0.097813,-0.088311,0.000000,0.000000,0.000000,-1,-1.828206,-0.922341,0.057956,0.361748,0.291423,0.038751
"2019-04-05 12:11:13.542 +0000",1554466273.542138,1.465749,-0.101644,-1.644958,0.989355,0.101469,-0.104313,0.000000,0.000000,0.000000,-1,-2.017933,-1.071078,-0.008059,0.443247,0.282870,0.044849
"2019-04-05 12:11:13.562 +0000",1554466273.562063,1.448417,-0.107329,-1.603893,0.986810,0.107123,-0.121372,0.000000,0.000000,0.000000,-1,-2.106060,-1.063834,-0.087927,0.432242,0.232263,0.075244
"2019-04-05 12:11:13.582 +0000",1554466273.581990,1.433379,-0.116325,-1.562193,0.983879,0.116063,-0.136059,0.000000,0.000000,0.000000,-1,-2.125448,-0.899581,-0.169847,0.389015,0.166972,0.109799
"2019-04-05 12:11:13.602 +0000",1554466273.601914,1.422537,-0.125884,-1.520516,0.981204,0.125552,-0.146548,0.000000,0.000000,0.000000,-1,-2.126784,-0.675453,-0.174159,0.300046,0.087400,0.131579
"2019-04-05 12:11:13.622 +0000",1554466273.621840,1.417425,-0.135987,-1.478721,0.979138,0.135569,-0.151360,0.000000,0.000000,0.000000,-1,-2.116416,-0.432394,-0.128887,0.156406,0.006811,0.150521
"2019-04-05 12:11:13.642 +0000",1554466273.641766,1.399326,-0.143659,-1.440678,0.975185,0.143165,-0.168873,0.000000,0.000000,0.000000,-1,-1.569037,-2.193596,0.009856,0.048207,-0.204505,0.193059
"2019-04-05 12:11:13.662 +0000",1554466273.661692,1.379798,-0.146863,-1.425311,0.971246,0.146335,-0.187795,0.000000,0.000000,0.000000,-1,0.173951,1.506161,-0.158836,0.199454,-0.385822,1.237478
"2019-04-05 12:11:13.682 +0000",1554466273.681617,1.457276,-0.151230,-1.446449,0.982223,0.150654,-0.111984,0.000000,0.000000,0.000000,-1,1.620358,5.564350,-0.552096,0.012939,0.146511,1.200760
"2019-04-05 12:11:13.702 +0000",1554466273.701544,1.558806,-0.165979,-1.483175,0.986186,0.165218,-0.011826,0.000000,0.000000,0.000000,-1,1.799983,4.678085,-1.087351,-0.114482,0.078236,0.157807
"2019-04-05 12:11:13.721 +0000",1554466273.721468,1.627138,-0.189354,-1.516312,0.980568,0.188224,0.055306,0.000000,0.000000,0.000000,-1,1.572098,2.812406,-1.097395,0.158379,-0.037010,-0.196724
"2019-04-05 12:11:13.741 +0000",1554466273.741395,1.665332,-0.213728,-1.545614,0.972883,0.212105,0.092247,0.000000,0.000000,0.000000,-1,1.453394,1.778299,-1.192397,0.358812,-0.092689,-0.195305
"2019-04-05 12:11:13.761 +0000",1554466273.761319,1.695074,-0.241905,-1.566851,0.963396,0.239552,0.120349,0.000000,0.000000,0.000000,-1,0.909089,1.886637,-1.314976,0.468810,-0.109044,-0.047930
"2019-04-05 12:11:13.781 +0000",1554466273.781245,1.738888,-0.267953,-1.575875,0.950723,0.264758,0.161331,0.000000,0.000000,0.000000,-1,0.317645,2.675661,-1.160704,0.530966,-0.185123,0.059173
"2019-04-05 12:11:13.801 +0000",1554466273.801172,1.797415,-0.290145,-1.573078,0.933703,0.286091,0.215293,0.000000,0.000000,0.000000,-1,-0.030674,3.149484,-1.090112,0.327085,-0.204304,0.005899
"2019-04-05 12:11:13.821 +0000",1554466273.821097,1.867075,-0.311506,-1.568596,0.910400,0.306492,0.277911,0.000000,0.000000,0.000000,-1,0.209408,3.658114,-1.115610,0.138505,-0.170613,-0.039706
"2019-04-05 12:11:13.841 +0000",1554466273.841022,1.941414,-0.336811,-1.568885,0.879732,0.330479,0.341841,0.000000,0.000000,0.000000,-1,0.671526,3.703400,-1.272230,0.047605,-0.128178,-0.075636
"2019-04-05 12:11:13.861 +0000",1554466273.860949,2.007767,-0.368663,-1.576596,0.845161,0.360369,0.394762,0.000000,0.000000,0.000000,-1,1.258535,3.139765,-1.362935,0.000267,-0.142839,-0.142748
"2019-04-05 12:11:13.881 +0000",1554466273.880874,2.056633,-0.406650,-1.591006,0.812172,0.395535,0.428869,0.000000,0.000000,0.000000,-1,1.560599,2.324598,-1.437908,-0.111473,-0.236355,-0.227697
"2019-04-05 12:11:13.901 +0000",1554466273.900800,2.091274,-0.445727,-1.605317,0.782817,0.431114,0.448708,0.000000,0.000000,0.000000,-1,1.439418,1.783408,-1.341115,-0.147456,-0.312064,-0.244026
"2019-04-05 12:11:13.921 +0000",1554466273.920725,2.115649,-0.480458,-1.617451,0.758381,0.462185,0.459613,0.000000,0.000000,0.000000,-1,1.301477,1.268037,-1.050395,-0.110645,-0.350079,-0.283816
"2019-04-05 12:11:13.941 +0000",1554466273.940651,2.132559,-0.506684,-1.629836,0.739985,0.485281,0.465752,0.000000,0.000000,0.000000,-1,0.953389,1.012838,-0.646853,-0.113322,-0.431737,-0.302956
"2019-04-05 12:11:13.961 +0000",1554466273.960577,2.146311,-0.521704,-1.636470,0.727313,0.498358,0.471864,0.000000,0.000000,0.000000,-1,0.311550,0.702445,-0.297629,-0.133837,-0.470099,-0.359803
"2019-04-05 12:11:13.981 +0000",1554466273.980502,2.157001,-0.522010,-1.633074,0.722100,0.498623,0.479527,0.000000,0.000000,0.000000,-1,-0.572895,0.117254,-0.019887,-0.118157,-0.472576,-0.396657
"2019-04-05 12:11:14.000 +0000",1554466274.000428,2.161464,-0.510478,-1.616834,0.724681,0.488595,0.485915,0.000000,0.000000,0.000000,-1,-1.190231,-0.383204,0.235630,-0.072719,-0.424599,-0.449858
"2019-04-05 12:11:14.020 +0000",1554466274.020353,2.161806,-0.486566,-1.596056,0.734008,0.467593,0.492533,0.000000,0.000000,0.000000,-1,-1.650793,-0.571382,0.653011,-0.087844,-0.437121,-0.447276
"2019-04-05 12:11:14.040 +0000",1554466274.040279,2.158085,-0.453448,-1.570668,0.748321,0.438068,0.498109,0.000000,0.000000,0.000000,-1,-2.058438,-0.945544,0.803248,-0.140136,-0.402530,-0.494951
"2019-04-05 12:11:14.060 +0000",1554466274.060205,2.148342,-0.414539,-1.541179,0.766845,0.402768,0.499727,0.000000,0.000000,0.000000,-1,-2.309289,-1.222105,0.922473,-0.054489,-0.338376,-0.512422
"2019-04-05 12:11:14.080 +0000",1554466274.080130,2.132261,-0.371069,-1.508834,0.788865,0.362612,0.496190,0.000000,0.000000,0.000000,-1,-2.558789,-1.639754,1.138677,0.120818,-0.255068,-0.535954
"2019-04-05 12:11:14.100 +0000",1554466274.100056,2.107696,-0.325698,-1.471925,0.814124,0.319970,0.484585,0.000000,0.000000,0.000000,-1,-2.735013,-1.866491,0.767746,0.291544,-0.083413,-0.534527
"2019-04-05 12:11:14.120 +0000",1554466274.119982,2.121918,-0.309353,-1.460278,0.811497,0.304442,0.498786,0.000000,0.000000,0.000000,-1,1.512261,2.551017,-0.003810,0.229717,0.413163,0.051903
"2019-04-05 12:11:14.140 +0000",1554466274.139907,2.112997,-0.341521,-1.512885,0.807105,0.334920,0.486220,0.000000,0.000000,0.000000,-1,3.788356,-2.126509,-0.018707,0.620797,0.266673,-0.740813
"2019-04-05 12:11:14.160 +0000",1554466274.159833,2.016155,-0.372995,-1.583729,0.840403,0.364406,0.401161,0.000000,0.000000,0.000000,-1,3.504287,-4.499345,0.350448,0.918615,-0.003673,-0.401527
"2019-04-05 12:11:14.180 +0000",1554466274.179759,1.905987,-0.392895,-1.659314,0.872393,0.382864,0.303885,0.000000,0.000000,0.000000,-1,4.044711,-3.182319,0.439620,0.510283,-0.066366,0.122949
"2019-04-05 12:11:14.200 +0000",1554466274.199685,1.824844,-0.413834,-1.748747,0.886198,0.402123,0.230108,0.000000,0.000000,0.000000,-1,4.169525,-1.747935,-0.135581,0.072237,0.120964,0.737040
"2019-04-05 12:11:14.220 +0000",1554466274.219611,1.766624,-0.435072,-1.822541,0.889507,0.421476,0.176452,0.000000,0.000000,0.000000,-1,2.684729,-0.938347,-0.311296,0.174046,0.076235,0.638200
"2019-04-05 12:11:14.240 +0000",1554466274.239535,1.744357,-0.443674,-1.858229,0.889612,0.429260,0.155971,0.000000,0.000000,0.000000,-1,0.670184,0.080776,0.110210,0.278678,-0.043030,0.393849
"2019-04-05 12:11:14.259 +0000",1554466274.259461,1.741650,-0.435028,-1.855429,0.893654,0.421436,0.154187,0.000000,0.000000,0.000000,-1,-0.986698,-0.717048,0.703577,0.170387,-0.080127,0.138217
"2019-04-05 12:11:14.279 +0000",1554466274.279387,1.729116,-0.410870,-1.824358,0.905308,0.399407,0.144538,0.000000,0.000000,0.000000,-1,-2.159970,-1.696951,1.147898,0.051067,-0.020959,0.008462
"2019-04-05 12:11:14.299 +0000",1554466274.299312,1.710252,-0.379373,-1.772845,0.919879,0.370338,0.129121,0.000000,0.000000,0.000000,-1,-2.950409,-2.170797,1.230752,-0.024234,0.106545,0.046737
"2019-04-05 12:11:14.319 +0000",1554466274.319238,1.686111,-0.348496,-1.710636,0.933645,0.341484,0.108143,0.000000,0.000000,0.000000,-1,-3.145581,-2.299914,1.068830,-0.076101,0.210304,0.222286
"2019-04-05 12:11:14.339 +0000",1554466274.339163,1.671813,-0.322132,-1.646374,0.943727,0.316589,0.095657,0.000000,0.000000,0.000000,-1,-3.235099,-1.200818,0.928621,0.003249,0.151138,0.394440
"2019-04-05 12:11:14.359 +0000",1554466274.359090,1.673291,-0.298763,-1.577964,0.950686,0.294339,0.097783,0.000000,0.000000,0.000000,-1,-3.529400,-0.969340,0.710520,0.103880,0.159931,0.082423
"2019-04-05 12:11:14.379 +0000",1554466274.379014,1.670061,-0.278145,-1.502935,0.956833,0.274573,0.095293,0.000000,0.000000,0.000000,-1,-3.859819,-1.483085,0.572100,0.044891,0.220773,-0.070116
"2019-04-05 12:11:14.399 +0000",1554466274.398941,1.660020,-0.260626,-1.423012,0.962385,0.257686,0.086096,0.000000,0.000000,0.000000,-1,-3.903454,-1.478004,0.451353,-0.069899,0.330953,-0.053946
"2019-04-05 12:11:14.419 +0000",1554466274.418867,1.656502,-0.247825,-1.348579,0.965890,0.245296,0.082985,0.000000,0.000000,0.000000,-1,-3.326820,-0.701782,0.138667,-0.200372,0.381474,-0.025200
"2019-04-05 12:11:14.439 +0000",1554466274.438792,1.664817,-0.244240,-1.289255,0.966036,0.241819,0.091096,0.000000,0.000000,0.000000,-1,-2.458584,0.012249,-0.257626,-0.298815,0.346484,-0.075792
"2019-04-05 12:11:14.459 +0000",1554466274.458718,1.677484,-0.247084,-1.245926,0.964117,0.244578,0.103251,0.000000,0.000000,0.000000,-1,-1.755785,0.093649,-0.416039,-0.311666,0.185445,-0.115855
"2019-04-05 12:11:14.479 +0000",1554466274.478643,1.683440,-0.252331,-1.213816,0.962196,0.249661,0.108846,0.000000,0.000000,0.000000,-1,-1.326826,-0.358794,-0.430478,-0.341759,0.043719,-0.116079
"2019-04-05 12:11:14.499 +0000",1554466274.498569,1.675356,-0.258751,-1.188330,0.961431,0.255873,0.100895,0.000000,0.000000,0.000000,-1,-1.072592,-1.091325,-0.513065,-0.367131,-0.038344,-0.103886
"2019-04-05 12:11:14.518 +0000",1554466274.518495,1.652865,-0.267320,-1.167669,0.961236,0.264148,0.079064,0.000000,0.000000,0.000000,-1,-0.847082,-1.664752,-0.514882,-0.325906,-0.111301,-0.054330
"2019-04-05 12:11:14.538 +0000",1554466274.538420,1.621523,-0.276191,-1.152439,0.960864,0.272693,0.048783,0.000000,0.000000,0.000000,-1,-0.539402,-1.765287,-0.497178,-0.270388,-0.174334,0.010207
"2019-04-05 12:11:14.558 +0000",1554466274.558346,1.589010,-0.284869,-1.144591,0.959539,0.281032,0.017478,0.000000,0.000000,0.000000,-1,-0.220049,-1.779437,-0.388945,-0.217046,-0.238689,0.064080
"2019-04-05 12:11:14.578 +0000",1554466274.578271,1.550323,-0.291971,-1.142221,0.957478,0.287840,-0.019606,0.000000,0.000000,0.000000,-1,-0.040347,-2.177446,-0.387598,-0.146610,-0.264662,0.086333
"2019-04-05 12:11:14.598 +0000",1554466274.598197,1.506032,-0.299337,-1.141803,0.953529,0.294887,-0.061841,0.000000,0.000000,0.000000,-1,-0.055248,-2.110088,-0.366070,0.009453,-0.276790,0.196347
"2019-04-05 12:11:14.618 +0000",1554466274.618124,1.474971,-0.305135,-1.139933,0.949431,0.300422,-0.091259,0.000000,0.000000,0.000000,-1,-0.173141,-0.956335,-0.244487,0.212053,-0.264426,0.321773
"2019-04-05 12:11:14.638 +0000",1554466274.638048,1.469236,-0.309042,-1.136392,0.947717,0.304146,-0.096583,0.000000,0.000000,0.000000,-1,-0.172141,0.113928,-0.107639,0.393424,-0.173561,0.276896
"2019-04-05 12:11:14.658 +0000",1554466274.657975,1.471839,-0.309464,-1.134291,0.947837,0.304548,-0.094103,0.000000,0.000000,0.000000,-1,-0.008412,-0.100533,0.019754,0.498986,-0.087217,0.123308
"2019-04-05 12:11:14.678 +0000",1554466274.677899,1.461735,-0.306792,-1.136428,0.947643,0.302002,-0.103763,0.000000,0.000000,0.000000,-1,0.233468,-0.855605,0.215147,0.532993,-0.054138,0.043323
"2019-04-05 12:11:14.698 +0000",1554466274.697826,1.438736,-0.300244,-1.142074,0.946947,0.295754,-0.125786,0.000000,0.000000,0.000000,-1,0.349552,-1.185179,0.291825,0.472258,-0.016106,0.094810
"2019-04-05 12:11:14.718 +0000",1554466274.717751,1.415311,-0.292716,-1.148185,0.945913,0.288554,-0.148272,0.000000,0.000000,0.000000,-1,0.319674,-0.937721,0.383369,0.441111,-0.005473,0.189273
"2019-04-05 12:11:14.738 +0000",1554466274.737677,1.399888,-0.282373,-1.151940,0.946405,0.278635,-0.163342,0.000000,0.000000,0.000000,-1,0.189959,-0.525977,0.512475,0.399604,-0.022929,0.243222
"2019-04-05 12:11:14.758 +0000",1554466274.757603,1.393081,-0.270952,-1.151598,0.948341,0.267649,-0.170331,0.000000,0.000000,0.000000,-1,-0.039371,-0.196326,0.616649,0.303597,-0.028681,0.257886
"2019-04-05 12:11:14.778 +0000",1554466274.777528,1.391936,-0.258988,-1.145287,0.951229,0.256103,-0.171975,0.000000,0.000000,0.000000,-1,-0.358669,-0.144433,0.590308,0.126545,-0.013778,0.251458
"2019-04-05 12:11:14.797 +0000",1554466274.797454,1.391211,-0.250303,-1.132196,0.953256,0.247698,-0.173055,0.000000,0.000000,0.000000,-1,-0.775339,-0.316054,0.500246,-0.055033,-0.018602,0.291616
"2019-04-05 12:11:14.817 +0000",1554466274.817379,1.385986,-0.244112,-1.106068,0.953828,0.241695,-0.178312,0.000000,0.000000,0.000000,-1,-1.719811,-0.647046,0.508520,-0.054002,0.043583,0.677122
"2019-04-05 12:11:14.837 +0000",1554466274.837305,1.429649,-0.244305,-1.060532,0.960656,0.241882,-0.136502,0.000000,0.000000,0.000000,-1,-2.486976,3.941089,0.337125,0.002204,0.635178,2.075223
"2019-04-05 12:11:14.857 +0000",1554466274.857231,1.536282,-0.240552,-1.008563,0.970628,0.238239,-0.033514,0.000000,0.000000,0.000000,-1,-2.418826,4.681316,0.427741,0.212477,0.369137,1.035116
"2019-04-05 12:11:14.877 +0000",1554466274.877156,1.626779,-0.231528,-0.962496,0.971792,0.229465,0.054460,0.000000,0.000000,0.000000,-1,-2.107569,3.371742,0.443292,0.239374,0.051099,0.108061
"2019-04-05 12:11:14.897 +0000",1554466274.897082,1.695810,-0.216426,-0.922126,0.969049,0.214740,0.121779,0.000000,0.000000,0.000000,-1,-1.960070,2.644034,0.666559,0.351095,-0.123172,-0.192443
"2019-04-05 12:11:14.917 +0000",1554466274.917007,1.751008,-0.196166,-0.887081,0.964937,0.194910,0.175801,0.000000,0.000000,0.000000,-1,-1.738812,2.244344,0.826363,0.376371,-0.105921,-0.339955
"2019-04-05 12:11:14.937 +0000",1554466274.936933,1.799383,-0.171872,-0.858378,0.959637,0.171027,0.223262,0.000000,0.000000,0.000000,-1,-1.527426,2.081928,0.951673,0.339099,-0.067419,-0.390544
"2019-04-05 12:11:14.957 +0000",1554466274.956859,1.843459,-0.146490,-0.835787,0.952743,0.145966,0.266413,0.000000,0.000000,0.000000,-1,-1.262180,1.966837,0.943452,0.222993,-0.028687,-0.433695
"2019-04-05 12:11:14.977 +0000",1554466274.976784,1.895342,-0.125639,-0.822401,0.940325,0.125309,0.316364,0.000000,0.000000,0.000000,-1,-0.380505,3.872349,0.570887,0.124113,0.092510,-0.301045
"2019-04-05 12:11:14.997 +0000",1554466274.996711,2.029033,-0.125327,-0.840384,0.889800,0.125000,0.438898,0.000000,0.000000,0.000000,-1,2.101779,9.224153,0.416243,0.282884,0.450028,0.514456
"2019-04-05 12:11:15.017 +0000",1554466275.016635,2.182689,-0.146998,-0.905621,0.809734,0.146469,0.568223,0.000000,0.000000,0.000000,-1,4.410037,5.851344,1.096393,0.426365,0.243652,-0.309266
"2019-04-05 12:11:15.037 +0000",1554466275.036561,2.232760,-0.189614,-0.998115,0.774649,0.188480,0.603650,0.000000,0.000000,0.000000,-1,5.280548,1.303339,0.838015,-0.035117,0.098843,-0.738584
"2019-04-05 12:11:15.056 +0000",1554466275.056486,2.224545,-0.245630,-1.091483,0.769983,0.243168,0.589912,0.000000,0.000000,0.000000,-1,5.335268,0.298698,0.373688,-0.173441,-0.016132,-0.538108
"2019-04-05 12:11:15.076 +0000",1554466275.076413,2.214116,-0.310481,-1.181754,0.761853,0.305516,0.571174,0.000000,0.000000,0.000000,-1,5.585523,1.305765,-0.371572,-0.103406,0.001033,-0.288002
"2019-04-05 12:11:15.096 +0000",1554466275.096339,2.218597,-0.389375,-1.267196,0.737724,0.379610,0.558265,0.000000,0.000000,0.000000,-1,5.442068,1.712117,-1.066783,0.031365,0.037260,-0.212409
"2019-04-05 12:11:15.116 +0000",1554466275.116264,2.214189,-0.467329,-1.338234,0.714278,0.450503,0.535587,0.000000,0.000000,0.000000,-1,4.309347,0.721878,-1.285072,0.077760,-0.136203,-0.346134
"2019-04-05 12:11:15.136 +0000",1554466275.136189,2.200340,-0.532267,-1.384612,0.696476,0.507488,0.507324,0.000000,0.000000,0.000000,-1,2.886432,0.296012,-1.505952,-0.054248,-0.323589,-0.314270
"2019-04-05 12:11:15.156 +0000",1554466275.156115,2.197476,-0.584052,-1.407559,0.675714,0.551408,0.489245,0.000000,0.000000,0.000000,-1,1.787290,0.685461,-1.523770,-0.160592,-0.475984,-0.271425
"2019-04-05 12:11:15.176 +0000",1554466275.176040,2.210673,-0.622540,-1.413766,0.651683,0.583100,0.485081,0.000000,0.000000,0.000000,-1,0.908240,0.880870,-1.267569,-0.173304,-0.561692,-0.280507
"2019-04-05 12:11:15.196 +0000",1554466275.195967,2.228654,-0.645732,-1.408299,0.631982,0.601783,0.488319,0.000000,0.000000,0.000000,-1,0.180619,0.556042,-0.837660,-0.174814,-0.591301,-0.308311
"2019-04-05 12:11:15.216 +0000",1554466275.215891,2.242765,-0.653693,-1.396759,0.621260,0.608122,0.494190,0.000000,0.000000,0.000000,-1,-0.404764,0.171072,-0.357972,-0.201903,-0.607756,-0.337207
"2019-04-05 12:11:15.236 +0000",1554466275.235818,2.251135,-0.647139,-1.381421,0.620187,0.602906,0.501868,0.000000,0.000000,0.000000,-1,-0.958262,-0.303305,0.091593,-0.211480,-0.595445,-0.374198
"2019-04-05 12:11:15.256 +0000",1554466275.255743,2.248023,-0.626676,-1.363442,0.631230,0.586455,0.507562,0.000000,0.000000,0.000000,-1,-1.425572,-1.072338,0.488490,-0.228032,-0.535705,-0.394571
"2019-04-05 12:11:15.276 +0000",1554466275.275669,2.227289,-0.596294,-1.342857,0.655433,0.561580,0.505011,0.000000,0.000000,0.000000,-1,-1.752469,-2.244037,0.841420,-0.185447,-0.390895,-0.343313
"2019-04-05 12:11:15.296 +0000",1554466275.295593,2.180997,-0.560421,-1.323882,0.694170,0.531543,0.485376,0.000000,0.000000,0.000000,-1,-1.480994,-3.023560,0.933416,-0.162280,-0.120898,-0.153207
"2019-04-05 12:11:15.316 +0000",1554466275.315520,2.144399,-0.535923,-1.313072,0.722189,0.510634,0.466579,0.000000,0.000000,0.000000,-1,-0.786885,-1.183688,0.607979,-0.222768,0.259171,0.320912
"2019-04-05 12:11:15.335 +0000",1554466275.335445,2.125355,-0.516971,-1.306438,0.739038,0.494249,0.457757,0.000000,0.000000,0.000000,-1,-0.667715,-1.444813,0.678215,-0.025476,0.007750,-0.064751
"2019-04-05 12:11:15.355 +0000",1554466275.355371,2.079076,-0.502031,-1.308836,0.765789,0.481207,0.426623,0.000000,0.000000,0.000000,-1,0.226961,-2.940321,0.640770,0.196827,0.283915,-0.163195
"2019-04-05 12:11:15.375 +0000",1554466275.375297,2.008342,-0.506192,-1.338600,0.792205,0.484850,0.370583,0.000000,0.000000,0.000000,-1,2.344701,-2.653327,0.044865,0.476975,0.765898,0.124290
"2019-04-05 12:11:15.395 +0000",1554466275.395222,1.931380,-0.522937,-1.392623,0.810642,0.499427,0.305668,0.000000,0.000000,0.000000,-1,2.311779,-2.246224,0.402550,0.915158,0.375909,0.105022
"2019-04-05 12:11:15.415 +0000",1554466275.415148,1.863340,-0.521071,-1.438776,0.830439,0.497809,0.250116,0.000000,0.000000,0.000000,-1,1.418661,-2.500884,0.849449,0.591421,-0.262885,0.221304
"2019-04-05 12:11:15.435 +0000",1554466275.435074,1.798616,-0.509263,-1.463332,0.850544,0.487534,0.197194,0.000000,0.000000,0.000000,-1,0.257248,-2.327980,0.860630,0.271984,-0.340180,0.514018
"2019-04-05 12:11:15.455 +0000",1554466275.455000,1.772164,-0.487946,-1.455780,0.865450,0.468812,0.176668,0.000000,0.000000,0.000000,-1,-1.348779,-0.900756,1.013374,0.443785,-0.151124,0.498899
"2019-04-05 12:11:15.475 +0000",1554466275.474925,1.772756,-0.459357,-1.415689,0.878120,0.443372,0.179796,0.000000,0.000000,0.000000,-1,-2.664725,-0.935847,1.060957,0.382912,-0.088742,0.091780
"2019-04-05 12:11:15.495 +0000",1554466275.494850,1.780148,-0.424595,-1.352100,0.891310,0.411952,0.189372,0.000000,0.000000,0.000000,-1,-3.645463,-1.069258,1.091804,0.240129,-0.057749,-0.083659
"2019-04-05 12:11:15.515 +0000",1554466275.514776,1.786191,-0.385371,-1.272883,0.905246,0.375903,0.198058,0.000000,0.000000,0.000000,-1,-4.256695,-1.498270,1.208331,0.170804,-0.010516,-0.178618
"2019-04-05 12:11:15.535 +0000",1554466275.534701,1.783275,-0.343954,-1.189054,0.920257,0.337212,0.198532,0.000000,0.000000,0.000000,-1,-4.089163,-1.570818,1.119150,0.161042,0.118217,-0.182296
"2019-04-05 12:11:15.555 +0000",1554466275.554628,1.782132,-0.312157,-1.121662,0.930500,0.307112,0.199629,0.000000,0.000000,0.000000,-1,-2.862620,-0.851454,0.621034,0.066814,0.275041,-0.059264
"2019-04-05 12:11:15.575 +0000",1554466275.574552,1.778037,-0.291594,-1.071251,0.937293,0.287479,0.197074,0.000000,0.000000,0.000000,-1,-2.400091,-1.147348,0.464413,0.093332,0.176113,-0.196464
"2019-04-05 12:11:15.594 +0000",1554466275.594478,1.763930,-0.273112,-1.026790,0.945033,0.269729,0.184821,0.000000,0.000000,0.000000,-1,-2.151539,-1.447893,0.496035,-0.006068,0.126221,-0.193442
"2019-04-05 12:11:15.614 +0000",1554466275.614404,1.745794,-0.256248,-0.988718,0.952573,0.253453,0.168421,0.000000,0.000000,0.000000,-1,-1.791143,-1.331938,0.475028,-0.004987,0.137569,-0.114970
"2019-04-05 12:11:15.634 +0000",1554466275.634330,1.728253,-0.242091,-0.955960,0.958829,0.239733,0.152235,0.000000,0.000000,0.000000,-1,-1.620555,-1.287404,0.398782,0.083133,0.194227,-0.092878
"2019-04-05 12:11:15.654 +0000",1554466275.654255,1.708839,-0.229856,-0.925116,0.964437,0.227838,0.133985,0.000000,0.000000,0.000000,-1,-1.539855,-1.397611,0.376275,0.058726,0.239371,-0.102339
"2019-04-05 12:11:15.674 +0000",1554466275.674180,1.685335,-0.218401,-0.896070,0.969848,0.216669,0.111573,0.000000,0.000000,0.000000,-1,-1.419714,-1.626821,0.401239,-0.062454,0.229086,-0.080339
"2019-04-05 12:11:15.694 +0000",1554466275.694106,1.655280,-0.207638,-0.870010,0.975030,0.206149,0.082571,0.000000,0.000000,0.000000,-1,-1.220068,-1.900105,0.358438,-0.217660,0.185513,-0.023718
"2019-04-05 12:11:15.714 +0000",1554466275.714031,1.620222,-0.200027,-0.848366,0.978864,0.198696,0.048420,0.000000,0.000000,0.000000,-1,-0.947510,-2.005435,0.269415,-0.284940,0.143849,0.076580
"2019-04-05 12:11:15.734 +0000",1554466275.733958,1.585489,-0.194326,-0.831706,0.981072,0.193105,0.014416,0.000000,0.000000,0.000000,-1,-0.739033,-1.722280,0.193227,-0.277276,0.094416,0.208393
"2019-04-05 12:11:15.754 +0000",1554466275.753883,1.558664,-0.191520,-0.817439,0.981644,0.190351,-0.011910,0.000000,0.000000,0.000000,-1,-0.693088,-1.233244,0.090933,-0.283905,0.083468,0.304970
"2019-04-05 12:11:15.774 +0000",1554466275.773808,1.540545,-0.189942,-0.802035,0.981566,0.188802,-0.029703,0.000000,0.000000,0.000000,-1,-0.865320,-0.899312,0.064814,-0.289854,0.064448,0.352518
"2019-04-05 12:11:15.794 +0000",1554466275.793734,1.528369,-0.189368,-0.781466,0.981240,0.188238,-0.041656,0.000000,0.000000,0.000000,-1,-1.164606,-0.690461,0.080526,-0.303902,0.072443,0.317764
"2019-04-05 12:11:15.814 +0000",1554466275.813660,1.522501,-0.188417,-0.755294,0.981157,0.187304,-0.047422,0.000000,0.000000,0.000000,-1,-1.390848,-0.386443,0.084496,-0.317155,0.115583,0.240049
"2019-04-05 12:11:15.834 +0000",1554466275.833586,1.522770,-0.188905,-0.725710,0.981078,0.187784,-0.047154,0.000000,0.000000,0.000000,-1,-1.514237,-0.161804,0.001342,-0.331801,0.149268,0.150639
"2019-04-05 12:11:15.854 +0000",1554466275.853511,1.526674,-0.190966,-0.694318,0.980866,0.189808,-0.043306,0.000000,0.000000,0.000000,-1,-1.582322,-0.071696,-0.083884,-0.292267,0.175885,0.088853
"2019-04-05 12:11:15.873 +0000",1554466275.873437,1.531080,-0.194898,-0.661938,0.980294,0.193666,-0.038954,0.000000,0.000000,0.000000,-1,-1.609971,-0.108465,-0.181980,-0.233590,0.172606,0.054930
"2019-04-05 12:11:15.893 +0000",1554466275.893363,1.535082,-0.200590,-0.629888,0.979324,0.199248,-0.034991,0.000000,0.000000,0.000000,-1,-1.553869,-0.119555,-0.275639,-0.173065,0.159700,0.038684
"2019-04-05 12:11:15.913 +0000",1554466275.913288,1.538826,-0.207498,-0.599474,0.978049,0.206012,-0.031279,0.000000,0.000000,0.000000,-1,-1.447864,-0.120400,-0.311037,-0.094474,0.126324,0.031874
"2019-04-05 12:11:15.933 +0000",1554466275.933214,1.542514,-0.214779,-0.571484,0.976633,0.213132,-0.027629,0.000000,0.000000,0.000000,-1,-1.319611,-0.104614,-0.347479,-0.032495,0.084003,0.028835
"2019-04-05 12:11:15.953 +0000",1554466275.953139,1.545844,-0.222812,-0.546352,0.974976,0.220973,-0.024333,0.000000,0.000000,0.000000,-1,-1.153140,-0.118504,-0.379554,0.028625,0.042333,0.018062
"2019-04-05 12:11:15.973 +0000",1554466275.973065,1.546943,-0.230407,-0.525320,0.973296,0.228374,-0.023221,0.000000,0.000000,0.000000,-1,-0.897323,-0.264388,-0.325293,0.083268,-0.044414,-0.003879
"2019-04-05 12:11:15.993 +0000",1554466275.992990,1.542177,-0.234947,-0.510661,0.972128,0.232792,-0.027829,0.000000,0.000000,0.000000,-1,-0.528632,-0.580534,-0.062902,0.120355,-0.239322,-0.015689
"2019-04-05 12:11:16.013 +0000",1554466276.012917,1.530902,-0.233298,-0.504799,0.972135,0.231188,-0.038803,0.000000,0.000000,0.000000,-1,-0.007566,-0.601326,0.219114,0.199725,-0.618700,0.025650
"2019-04-05 12:11:16.033 +0000",1554466276.032841,1.521480,-0.225164,-0.510565,0.973572,0.223266,-0.048052,0.000000,0.000000,0.000000,-1,0.611660,-0.184429,0.551921,0.260879,-0.662018,0.087191
"2019-04-05 12:11:16.053 +0000",1554466276.052767,1.518449,-0.210805,-0.528106,0.976523,0.209247,-0.051165,0.000000,0.000000,0.000000,-1,1.153286,0.228525,0.731605,0.189233,-0.335193,0.084750
"2019-04-05 12:11:16.073 +0000",1554466276.072694,1.521211,-0.194693,-0.554240,0.979901,0.193465,-0.048629,0.000000,0.000000,0.000000,-1,1.443439,0.559576,0.716958,0.093799,0.005296,0.074523
"2019-04-05 12:11:16.093 +0000",1554466276.092618,1.529670,-0.179709,-0.583482,0.983064,0.178743,-0.040453,0.000000,0.000000,0.000000,-1,1.474862,0.786902,0.623262,0.055938,0.238631,0.067965
"2019-04-05 12:11:16.113 +0000",1554466276.112544,1.539886,-0.167163,-0.611281,0.985590,0.166386,-0.030474,0.000000,0.000000,0.000000,-1,1.272366,0.640249,0.523826,0.092138,0.325359,0.045764
"2019-04-05 12:11:16.132 +0000",1554466276.132469,1.544737,-0.157807,-0.632129,0.987239,0.157153,-0.025733,0.000000,0.000000,0.000000,-1,0.784889,0.163407,0.334525,0.134984,0.400907,0.034766
"2019-04-05 12:11:16.152 +0000",1554466276.152396,1.543611,-0.151983,-0.641657,0.988108,0.151398,-0.026868,0.000000,0.000000,0.000000,-1,0.166789,-0.049703,0.252780,0.185492,0.449798,0.067365
"2019-04-05 12:11:16.172 +0000",1554466276.172320,1.544426,-0.146519,-0.638786,0.988941,0.145995,-0.026085,0.000000,0.000000,0.000000,-1,-0.419778,0.097549,0.294997,0.124736,0.446199,0.104439
"2019-04-05 12:11:16.192 +0000",1554466276.192246,1.548454,-0.141907,-0.625239,0.989701,0.141431,-0.022116,0.000000,0.000000,0.000000,-1,-0.899217,0.065887,0.178981,-0.093278,0.381411,0.098669
"2019-04-05 12:11:16.212 +0000",1554466276.212171,1.551506,-0.140831,-0.602780,0.989915,0.140366,-0.019099,0.000000,0.000000,0.000000,-1,-1.331949,-0.103881,-0.033942,-0.223772,0.325668,0.113718
"2019-04-05 12:11:16.232 +0000",1554466276.232098,1.550414,-0.144093,-0.571257,0.989431,0.143595,-0.020170,0.000000,0.000000,0.000000,-1,-1.800460,-0.450301,-0.195198,-0.185873,0.296575,0.155973
"2019-04-05 12:11:16.252 +0000",1554466276.252022,1.543715,-0.149325,-0.530031,0.988509,0.148770,-0.026777,0.000000,0.000000,0.000000,-1,-2.341848,-0.908158,-0.226185,-0.047683,0.271045,0.211530
"2019-04-05 12:11:16.272 +0000",1554466276.271949,1.534737,-0.155043,-0.475942,0.987363,0.154423,-0.035619,0.000000,0.000000,0.000000,-1,-3.047459,-0.527193,-0.175526,0.057101,0.228024,0.416066
"2019-04-05 12:11:16.292 +0000",1554466276.291875,1.550729,-0.160769,-0.408236,0.986906,0.160078,-0.019808,0.000000,0.000000,0.000000,-1,-3.624137,1.043222,-0.181780,0.050844,0.292574,0.458712
"2019-04-05 12:11:16.312 +0000",1554466276.311800,1.594497,-0.164965,-0.332139,0.986147,0.164218,0.023377,0.000000,0.000000,0.000000,-1,-3.869239,1.966439,-0.245721,0.021589,0.308331,0.147644
"2019-04-05 12:11:16.332 +0000",1554466276.331726,1.650240,-0.166270,-0.253182,0.983099,0.165505,0.078266,0.000000,0.000000,0.000000,-1,-3.920392,2.192668,-0.227480,0.058131,0.308188,-0.096607
"2019-04-05 12:11:16.352 +0000",1554466276.351650,1.704427,-0.162178,-0.173978,0.978080,0.161468,0.131485,0.000000,0.000000,0.000000,-1,-3.901953,1.870359,-0.210215,0.090875,0.324158,-0.209686
"2019-04-05 12:11:16.372 +0000",1554466276.371577,1.748049,-0.154460,-0.096631,0.972613,0.153847,0.174227,0.000000,0.000000,0.000000,-1,-3.777181,1.283334,-0.219726,0.040510,0.320457,-0.282854
"2019-04-05 12:11:16.392 +0000",1554466276.391502,1.780223,-0.144641,-0.022945,0.967936,0.144137,0.205728,0.000000,0.000000,0.000000,-1,-3.583711,0.899724,-0.218357,-0.035029,0.297926,-0.302729
"2019-04-05 12:11:16.411 +0000",1554466276.411427,1.806849,-0.133465,0.046169,0.963622,0.133069,0.231787,0.000000,0.000000,0.000000,-1,-3.360945,0.858526,-0.205092,-0.075011,0.280734,-0.302770
"2019-04-05 12:11:16.431 +0000",1554466276.431353,1.833592,-0.121369,0.110164,0.958564,0.121072,0.257870,0.000000,0.000000,0.000000,-1,-3.105568,1.028310,-0.198242,-0.091468,0.265205,-0.313977
"2019-04-05 12:11:16.451 +0000",1554466276.451279,1.861928,-0.109540,0.169130,0.952178,0.109321,0.285316,0.000000,0.000000,0.000000,-1,-2.880928,1.096200,-0.277639,-0.073470,0.259743,-0.349342
"2019-04-05 12:11:16.471 +0000",1554466276.471205,1.889001,-0.099089,0.223751,0.945139,0.098927,0.311328,0.000000,0.000000,0.000000,-1,-2.622210,1.065980,-0.337590,-0.017451,0.260998,-0.400836
"2019-04-05 12:11:16.491 +0000",1554466276.491131,1.914347,-0.089555,0.273020,0.937792,0.089435,0.335482,0.000000,0.000000,0.000000,-1,-2.350663,0.972920,-0.374894,0.002409,0.246884,-0.428256
"2019-04-05 12:11:16.511 +0000",1554466276.511056,1.935115,-0.081706,0.317446,0.931250,0.081615,0.355124,0.000000,0.000000,0.000000,-1,-2.091649,0.703116,-0.428380,0.009363,0.242344,-0.458593
"2019-04-05 12:11:16.531 +0000",1554466276.530982,1.949179,-0.076091,0.357333,0.926575,0.076018,0.368349,0.000000,0.000000,0.000000,-1,-1.832623,0.420051,-0.486176,-0.008621,0.228533,-0.470446
"2019-04-05 12:11:16.551 +0000",1554466276.550908,1.958637,-0.073213,0.392475,0.923248,0.073147,0.377177,0.000000,0.000000,0.000000,-1,-1.528195,0.276199,-0.567608,-0.068725,0.205753,-0.466151
"2019-04-05 12:11:16.571 +0000",1554466276.570833,1.964527,-0.074965,0.422351,0.920891,0.074895,0.382559,0.000000,0.000000,0.000000,-1,-1.203607,0.113619,-0.658708,-0.132423,0.163844,-0.462714
"2019-04-05 12:11:16.591 +0000",1554466276.590759,1.966381,-0.079545,0.446921,0.919853,0.079461,0.384129,0.000000,0.000000,0.000000,-1,-0.891594,-0.129500,-0.706726,-0.150841,0.113684,-0.461064
"2019-04-05 12:11:16.611 +0000",1554466276.610684,1.961771,-0.088185,0.466047,0.920945,0.088071,0.379609,0.000000,0.000000,0.000000,-1,-0.572053,-0.462035,-0.756889,-0.141252,0.068011,-0.459458
"2019-04-05 12:11:16.631 +0000",1554466276.630609,1.949843,-0.099780,0.479426,0.924397,0.099615,0.368195,0.000000,0.000000,0.000000,-1,-0.225931,-0.865181,-0.819941,-0.124897,0.028513,-0.454819
"2019-04-05 12:11:16.651 +0000",1554466276.650535,1.928107,-0.115912,0.483613,0.930555,0.115652,0.347409,0.000000,0.000000,0.000000,-1,0.550801,-1.139521,-0.711020,-0.103772,-0.081808,-0.255734
"2019-04-05 12:11:16.670 +0000",1554466276.670461,1.913535,-0.135448,0.467907,0.933211,0.135035,0.332990,0.000000,0.000000,0.000000,-1,1.566586,-0.057261,-0.632984,-0.084594,-0.212168,0.659686
"2019-04-05 12:11:16.690 +0000",1554466276.690386,1.911523,-0.160314,0.435192,0.930426,0.159629,0.329887,0.000000,0.000000,0.000000,-1,2.195331,0.082914,-0.590013,-0.087867,0.293390,0.627068
"2019-04-05 12:11:16.710 +0000",1554466276.710312,1.897984,-0.186558,0.397149,0.930519,0.185478,0.315804,0.000000,0.000000,0.000000,-1,2.127342,-0.780953,-0.670931,-0.103935,0.369027,0.345435
"2019-04-05 12:11:16.730 +0000",1554466276.730238,1.871136,-0.212849,0.365197,0.933679,0.211246,0.289168,0.000000,0.000000,0.000000,-1,1.587867,-1.145139,-0.778418,0.005301,0.359967,0.248186
"2019-04-05 12:11:16.750 +0000",1554466276.750163,1.845130,-0.234034,0.346973,0.936364,0.231903,0.263520,0.000000,0.000000,0.000000,-1,0.659890,-1.042045,-0.729173,0.086310,0.343063,0.292449
"2019-04-05 12:11:16.770 +0000",1554466276.770089,1.826154,-0.248392,0.349953,0.937877,0.245845,0.244840,0.000000,0.000000,0.000000,-1,-0.611672,-0.910173,-0.644888,0.056080,0.265950,0.387256
"2019-04-05 12:11:16.790 +0000",1554466276.790014,1.817347,-0.253911,0.376944,0.938667,0.251191,0.236235,0.000000,0.000000,0.000000,-1,-1.719084,-0.572345,-0.540959,0.225014,0.308333,0.516847
"2019-04-05 12:11:16.810 +0000",1554466276.809940,1.822479,-0.255875,0.420591,0.936963,0.253092,0.240926,0.000000,0.000000,0.000000,-1,-2.272494,0.067099,-0.647388,0.340503,0.119909,0.284342
"2019-04-05 12:11:16.830 +0000",1554466276.829865,1.851027,-0.256967,0.470580,0.929438,0.254148,0.267496,0.000000,0.000000,0.000000,-1,-2.356868,1.399433,-0.688459,0.329290,-0.086316,-0.135935
"2019-04-05 12:11:16.850 +0000",1554466276.849791,1.890726,-0.256534,0.521259,0.918193,0.253730,0.304208,0.000000,0.000000,0.000000,-1,-2.373356,1.058332,-0.633531,0.227757,-0.160819,-0.393289
"2019-04-05 12:11:16.870 +0000",1554466276.869717,1.913388,-0.251309,0.570643,0.912301,0.248672,0.325377,0.000000,0.000000,0.000000,-1,-2.324048,-0.072818,-0.453514,0.088127,-0.161147,-0.475264
"2019-04-05 12:11:16.890 +0000",1554466276.889642,1.911285,-0.244168,0.617828,0.914633,0.241749,0.324042,0.000000,0.000000,0.000000,-1,-2.261089,-1.182058,-0.361833,0.092752,-0.100819,-0.458319
"2019-04-05 12:11:16.910 +0000",1554466276.909568,1.896544,-0.235266,0.662872,0.921313,0.233102,0.311202,0.000000,0.000000,0.000000,-1,-2.184590,-1.164916,-0.228106,0.220686,-0.059335,-0.353972
"2019-04-05 12:11:16.929 +0000",1554466276.929493,1.890136,-0.225898,0.706064,0.925321,0.223982,0.305964,0.000000,0.000000,0.000000,-1,-2.155701,-0.450322,-0.181728,0.195407,-0.025343,-0.284235
"2019-04-05 12:11:16.949 +0000",1554466276.949418,1.893477,-0.215814,0.749909,0.926389,0.214142,0.309754,0.000000,0.000000,0.000000,-1,-2.252428,-0.310520,-0.226051,0.137897,0.024520,-0.330796
"2019-04-05 12:11:16.969 +0000",1554466276.969345,1.892962,-0.206645,0.796275,0.928371,0.205178,0.309885,0.000000,0.000000,0.000000,-1,-2.370806,-0.709677,-0.296269,0.045765,0.063331,-0.379359
"2019-04-05 12:11:16.989 +0000",1554466276.989270,1.884797,-0.197809,0.844840,0.932559,0.196521,0.302843,0.000000,0.000000,0.000000,-1,-2.427654,-1.095305,-0.334068,-0.055300,0.073910,-0.361116
"2019-04-05 12:11:17.009 +0000",1554466277.009195,1.868727,-0.190379,0.893888,0.938675,0.189231,0.288239,0.000000,0.000000,0.000000,-1,-2.452794,-1.403565,-0.382595,-0.031296,0.083276,-0.324753
"2019-04-05 12:11:17.029 +0000",1554466277.029122,1.848668,-0.183699,0.944558,0.945462,0.182667,0.269694,0.000000,0.000000,0.000000,-1,-2.520544,-1.507586,-0.387007,-0.013363,0.085170,-0.275813
"2019-04-05 12:11:17.049 +0000",1554466277.049047,1.827492,-0.178613,0.996199,0.951847,0.177665,0.249847,0.000000,0.000000,0.000000,-1,-2.553430,-1.513252,-0.402142,-0.049350,0.077874,-0.246307
"2019-04-05 12:11:17.069 +0000",1554466277.068973,1.805557,-0.174137,1.048084,0.957861,0.173259,0.229092,0.000000,0.000000,0.000000,-1,-2.510896,-1.616922,-0.409620,-0.109732,0.053502,-0.237607
"2019-04-05 12:11:17.089 +0000",1554466277.088899,1.779934,-0.172195,1.098123,0.963744,0.171345,0.204546,0.000000,0.000000,0.000000,-1,-2.376069,-1.749006,-0.420193,-0.171873,0.019512,-0.222170
"2019-04-05 12:11:17.109 +0000",1554466277.108824,1.752198,-0.171567,1.145228,0.969151,0.170726,0.177760,0.000000,0.000000,0.000000,-1,-2.200994,-1.834572,-0.425317,-0.208379,-0.008831,-0.190455
"2019-04-05 12:11:17.129 +0000",1554466277.128749,1.722121,-0.173790,1.188430,0.973681,0.172916,0.148477,0.000000,0.000000,0.000000,-1,-1.987836,-1.843829,-0.431460,-0.172686,-0.022739,-0.156702
"2019-04-05 12:11:17.149 +0000",1554466277.148675,1.693060,-0.177136,1.226606,0.977004,0.176211,0.120051,0.000000,0.000000,0.000000,-1,-1.680431,-1.721340,-0.419144,-0.071868,-0.027773,-0.128795
"2019-04-05 12:11:17.169 +0000",1554466277.168600,1.665340,-0.182997,1.256607,0.978911,0.181977,0.092827,0.000000,0.000000,0.000000,-1,-1.198125,-1.545304,-0.416262,0.003251,-0.034425,-0.109428
"2019-04-05 12:11:17.189 +0000",1554466277.188526,1.638446,-0.189574,1.275898,0.979838,0.188440,0.066387,0.000000,0.000000,0.000000,-1,-0.651960,-1.552330,-0.405742,0.037313,-0.051920,-0.107372
"2019-04-05 12:11:17.208 +0000",1554466277.208452,1.606890,-0.197466,1.284661,0.979928,0.196185,0.035385,0.000000,0.000000,0.000000,-1,-0.206302,-1.726340,-0.366280,0.054297,-0.068973,-0.079193
"2019-04-05 12:11:17.228 +0000",1554466277.228376,1.571666,-0.204354,1.284876,0.979192,0.202935,0.000852,0.000000,0.000000,0.000000,-1,0.216903,-1.743620,-0.321464,0.066066,-0.085396,-0.024014
"2019-04-05 12:11:17.248 +0000",1554466277.248302,1.538386,-0.210521,1.273378,0.977408,0.208970,-0.031689,0.000000,0.000000,0.000000,-1,0.976701,-1.212094,-0.256745,0.076882,-0.114136,0.056088
"2019-04-05 12:11:17.268 +0000",1554466277.268228,1.514482,-0.212232,1.241190,0.976014,0.210642,-0.055022,0.000000,0.000000,0.000000,-1,2.199994,-0.572663,-0.031856,0.089737,-0.138560,0.104414
"2019-04-05 12:11:17.288 +0000",1554466277.288153,1.491113,-0.206343,1.182937,0.975681,0.204882,-0.077910,0.000000,0.000000,0.000000,-1,3.484118,-1.013716,0.307340,0.100857,-0.158831,0.132033
"2019-04-05 12:11:17.308 +0000",1554466277.308079,1.419938,-0.189995,1.109504,0.970852,0.188854,-0.147583,0.000000,0.000000,0.000000,-1,3.770216,-4.214519,0.429524,-0.008419,-0.082469,0.410019
"2019-04-05 12:11:17.328 +0000",1554466277.328004,1.329473,-0.169069,1.037349,0.957178,0.168265,-0.235580,0.000000,0.000000,0.000000,-1,3.508785,-2.985611,0.322459,0.225592,0.075967,0.733597
"2019-04-05 12:11:17.348 +0000",1554466277.347930,1.287357,-0.145874,0.979298,0.949902,0.145357,-0.276689,0.000000,0.000000,0.000000,-1,2.561950,-0.419177,0.388928,0.194171,0.167127,0.893694
"2019-04-05 12:11:17.368 +0000",1554466277.367857,1.287863,-0.127784,0.944486,0.952411,0.127437,-0.276898,0.000000,0.000000,0.000000,-1,1.267900,0.678528,0.381592,0.024884,0.260533,0.843075
"2019-04-05 12:11:17.388 +0000",1554466277.387781,1.299830,-0.117206,0.932932,0.956902,0.116937,-0.265826,0.000000,0.000000,0.000000,-1,0.176745,0.565529,0.329305,0.045539,0.292029,0.579485
"2019-04-05 12:11:17.408 +0000",1554466277.407707,1.307710,-0.113292,0.939611,0.959402,0.113050,-0.258395,0.000000,0.000000,0.000000,-1,-0.664874,0.170651,0.264463,0.126368,0.307436,0.441851
"2019-04-05 12:11:17.428 +0000",1554466277.427633,1.313716,-0.114316,0.959337,0.960824,0.114067,-0.252599,0.000000,0.000000,0.000000,-1,-1.224134,0.327424,0.101993,0.192695,0.346535,0.407567
"2019-04-05 12:11:17.448 +0000",1554466277.447558,1.327660,-0.121512,0.986934,0.963431,0.121213,-0.238973,0.000000,0.000000,0.000000,-1,-1.598011,0.667028,-0.044034,0.251275,0.364840,0.366872
"2019-04-05 12:11:17.467 +0000",1554466277.467483,1.346766,-0.131107,1.021248,0.966642,0.130731,-0.220255,0.000000,0.000000,0.000000,-1,-1.943146,0.983700,-0.124289,0.207232,0.391745,0.450525
"2019-04-05 12:11:17.487 +0000",1554466277.487410,1.388899,-0.144447,1.060473,0.973260,0.143945,-0.179012,0.000000,0.000000,0.000000,-1,-2.071863,2.855396,-0.336750,0.155250,0.449958,0.554073
"2019-04-05 12:11:17.507 +0000",1554466277.507334,1.468882,-0.157944,1.099613,0.982429,0.157288,-0.100471,0.000000,0.000000,0.000000,-1,-1.956065,4.350570,-0.427084,0.329415,0.310561,0.184517
"2019-04-05 12:11:17.527 +0000",1554466277.527260,1.563066,-0.169451,1.137172,0.985648,0.168641,-0.007620,0.000000,0.000000,0.000000,-1,-1.804365,4.272588,-0.460258,0.440606,0.170485,-0.105982
"2019-04-05 12:11:17.547 +0000",1554466277.547185,1.645884,-0.176383,1.171531,0.981711,0.175470,0.073853,0.000000,0.000000,0.000000,-1,-1.552882,3.391488,-0.340277,0.514932,0.086401,-0.257935
"2019-04-05 12:11:17.567 +0000",1554466277.567111,1.709190,-0.178752,1.200396,0.974657,0.177801,0.135754,0.000000,0.000000,0.000000,-1,-1.263143,2.494067,-0.172827,0.505918,0.006708,-0.327481
"2019-04-05 12:11:17.587 +0000",1554466277.587036,1.758960,-0.177061,1.223121,0.966991,0.176138,0.184130,0.000000,0.000000,0.000000,-1,-0.985828,2.194984,-0.034488,0.388752,-0.052618,-0.329058
"2019-04-05 12:11:17.607 +0000",1554466277.606962,1.805751,-0.173630,1.240056,0.957902,0.172759,0.229298,0.000000,0.000000,0.000000,-1,-0.734462,2.218010,0.015456,0.233077,-0.061553,-0.337270
"2019-04-05 12:11:17.627 +0000",1554466277.626888,1.851599,-0.169984,1.252289,0.946985,0.169166,0.273132,0.000000,0.000000,0.000000,-1,-0.536032,2.128141,0.025453,0.093542,-0.043480,-0.370697
"2019-04-05 12:11:17.647 +0000",1554466277.646813,1.892120,-0.167151,1.260890,0.935594,0.166374,0.311421,0.000000,0.000000,0.000000,-1,-0.356411,1.763177,-0.005525,0.020201,0.011879,-0.427526
"2019-04-05 12:11:17.667 +0000",1554466277.666738,1.923037,-0.166698,1.265292,0.925591,0.165927,0.340219,0.000000,0.000000,0.000000,-1,0.001418,1.270500,-0.122436,-0.034646,0.080121,-0.449548
"2019-04-05 12:11:17.687 +0000",1554466277.686664,1.950468,-0.178126,1.255049,0.914091,0.177186,0.364751,0.000000,0.000000,0.000000,-1,1.604395,1.988813,-0.649078,-0.080015,0.302551,-0.338781
"2019-04-05 12:11:17.707 +0000",1554466277.706589,1.987172,-0.212759,1.216658,0.893939,0.211157,0.395329,0.000000,0.000000,0.000000,-1,3.076707,2.151639,-1.043384,-0.090060,0.402444,-0.379048
"2019-04-05 12:11:17.727 +0000",1554466277.726516,2.008780,-0.262742,1.163183,0.874529,0.259730,0.409560,0.000000,0.000000,0.000000,-1,3.548328,1.261525,-1.287271,-0.052355,0.182562,-0.509718
"2019-04-05 12:11:17.746 +0000",1554466277.746440,2.014214,-0.316181,1.111082,0.858515,0.310939,0.407762,0.000000,0.000000,0.000000,-1,3.176401,0.920009,-1.378343,0.012991,0.039311,-0.431688
"2019-04-05 12:11:17.766 +0000",1554466277.766367,2.019533,-0.363946,1.071029,0.841980,0.355964,0.405412,0.000000,0.000000,0.000000,-1,2.268755,0.948271,-1.254719,0.058533,-0.040641,-0.334459
"2019-04-05 12:11:17.786 +0000",1554466277.786292,2.025625,-0.400988,1.046800,0.827076,0.390328,0.404460,0.000000,0.000000,0.000000,-1,1.421141,0.447853,-1.125618,0.044200,-0.089944,-0.368343
"2019-04-05 12:11:17.806 +0000",1554466277.806217,2.016747,-0.432286,1.033263,0.819208,0.418948,0.391639,0.000000,0.000000,0.000000,-1,1.229734,-0.902100,-1.148536,0.035681,-0.065234,-0.451545
"2019-04-05 12:11:17.826 +0000",1554466277.826143,1.976907,-0.466495,1.013704,0.820505,0.449758,0.352830,0.000000,0.000000,0.000000,-1,1.795102,-1.983644,-1.236043,0.037466,-0.003820,-0.470719
"2019-04-05 12:11:17.846 +0000",1554466277.846069,1.925033,-0.503973,0.982614,0.821302,0.482909,0.303748,0.000000,0.000000,0.000000,-1,2.097997,-1.594963,-1.180632,-0.010709,-0.079894,-0.245185
"2019-04-05 12:11:17.866 +0000",1554466277.865994,1.879760,-0.537958,0.944290,0.818094,0.512383,0.261124,0.000000,0.000000,0.000000,-1,2.124255,-1.152658,-0.954314,-0.064844,-0.220712,-0.125015
"2019-04-05 12:11:17.886 +0000",1554466277.885920,1.831345,-0.565613,0.904081,0.815765,0.535934,0.217490,0.000000,0.000000,0.000000,-1,1.878113,-1.699442,-0.721943,-0.105560,-0.331527,-0.063102
"2019-04-05 12:11:17.906 +0000",1554466277.905844,1.772467,-0.584537,0.870970,0.817066,0.551813,0.167049,0.000000,0.000000,0.000000,-1,1.204656,-2.247510,-0.444961,-0.124317,-0.421824,0.090535
"2019-04-05 12:11:17.926 +0000",1554466277.925771,1.722312,-0.591982,0.854005,0.820329,0.558006,0.125253,0.000000,0.000000,0.000000,-1,0.285083,-1.680795,-0.008875,-0.165544,-0.403664,0.288657
"2019-04-05 12:11:17.946 +0000",1554466277.945696,1.700121,-0.588938,0.857024,0.824587,0.555478,0.107238,0.000000,0.000000,0.000000,-1,-0.542947,-0.715656,0.235552,-0.242525,-0.281140,0.361878
"2019-04-05 12:11:17.966 +0000",1554466277.965622,1.704779,-0.582176,0.876741,0.827783,0.549842,0.111577,0.000000,0.000000,0.000000,-1,-1.179140,0.082766,0.230285,-0.261514,-0.098991,0.271556
"2019-04-05 12:11:17.986 +0000",1554466277.985548,1.728054,-0.574289,0.908909,0.829219,0.543238,0.131487,0.000000,0.000000,0.000000,-1,-1.576226,0.394865,0.155339,-0.277186,0.030919,0.094740
"2019-04-05 12:11:18.005 +0000",1554466278.005472,1.753732,-0.567057,0.946945,0.829411,0.537152,0.153444,0.000000,0.000000,0.000000,-1,-1.689430,0.068519,0.052804,-0.270253,0.140140,-0.075014
