timestamp,timeIntervalSince1970,attitude.roll,attitude.pitch,attitude.yaw,gravity.x,gravity.y,gravity.z,magneticField.x,magneticField.y,magneticField.z,magneticField.accuracy,rotationRate.x,rotationRate.y,rotationRate.z,userAcceleration.x,userAcceleration.y,userAcceleration.z
"2019-10-08 15:51:43.248 +0000",1570549903.248218,0.163936,-0.062080,0.009600,0.162888,0.062041,-0.984692,0.000000,0.000000,0.000000,-1,-0.193590,0.141580,-0.126503,-0.002198,-0.013304,0.002118
"2019-10-08 15:51:43.268 +0000",1570549903.268237,0.165807,-0.065962,0.008120,0.164690,0.065915,-0.984141,0.000000,0.000000,0.000000,-1,-0.097605,-0.001399,-0.056544,0.004469,-0.026318,-0.000936
"2019-10-08 15:51:43.288 +0000",1570549903.288254,0.166039,-0.065155,0.008200,0.164926,0.065109,-0.984155,0.000000,0.000000,0.000000,-1,0.140312,0.171171,0.070153,-0.026834,-0.020355,0.125039
"2019-10-08 15:51:43.308 +0000",1570549903.308243,0.180037,-0.064211,0.010031,0.178697,0.064167,-0.981809,0.000000,0.000000,0.000000,-1,-0.228824,1.376926,0.099317,-0.093996,-0.000935,0.155180
"2019-10-08 15:51:43.328 +0000",1570549903.328260,0.224024,-0.079085,0.013460,0.221460,0.079003,-0.971964,0.000000,0.000000,0.000000,-1,-1.312174,2.832524,-0.118662,-0.032541,0.085640,0.012308
"2019-10-08 15:51:43.348 +0000",1570549903.348279,0.286839,-0.110725,0.015931,0.281190,0.110499,-0.953269,0.000000,0.000000,0.000000,-1,-1.556315,3.319376,-0.397672,0.020202,0.111577,0.031196
"2019-10-08 15:51:43.368 +0000",1570549903.368268,0.357711,-0.136515,0.017438,0.346873,0.136092,-0.927986,0.000000,0.000000,0.000000,-1,-0.926140,3.565801,-0.227495,0.013951,0.035692,0.130989
"2019-10-08 15:51:43.388 +0000",1570549903.388286,0.413087,-0.146854,0.019281,0.397118,0.146327,-0.906027,0.000000,0.000000,0.000000,-1,-0.075772,1.747584,0.028549,-0.085121,-0.190959,-0.173028
"2019-10-08 15:51:43.408 +0000",1570549903.408303,0.430301,-0.142125,0.022784,0.412938,0.141647,-0.899677,0.000000,0.000000,0.000000,-1,0.246765,0.132960,0.484860,-0.009038,-0.253051,-0.154126
"2019-10-08 15:51:43.428 +0000",1570549903.428292,0.430258,-0.134554,0.033988,0.413335,0.134149,-0.900643,0.000000,0.000000,0.000000,-1,-0.060202,-0.232263,0.837185,0.028712,-0.058862,-0.035285
"2019-10-08 15:51:43.448 +0000",1570549903.448309,0.424250,-0.127573,0.052451,0.408292,0.127228,-0.903942,0.000000,0.000000,0.000000,-1,0.054594,-0.647414,1.091509,0.082064,-0.003433,0.015361
"2019-10-08 15:51:43.468 +0000",1570549903.468328,0.407186,-0.110637,0.072558,0.393606,0.110411,-0.912625,0.000000,0.000000,0.000000,-1,0.723961,-1.291759,1.509873,0.148905,-0.052092,-0.021045
"2019-10-08 15:51:43.488 +0000",1570549903.488317,0.380433,-0.078796,0.097709,0.370170,0.078714,-0.925623,0.000000,0.000000,0.000000,-1,1.181891,-1.542231,1.954869,0.282067,0.144171,0.044306
"2019-10-08 15:51:43.508 +0000",1570549903.508336,0.350081,-0.042531,0.124473,0.342664,0.042518,-0.938495,0.000000,0.000000,0.000000,-1,1.145902,-1.737600,1.572423,0.154193,0.188088,0.043293
"2019-10-08 15:51:43.528 +0000",1570549903.528353,0.313467,-0.024055,0.126340,0.308269,0.024053,-0.950995,0.000000,0.000000,0.000000,-1,0.393128,-1.596955,-0.581435,-0.124111,0.344950,0.010352
"2019-10-08 15:51:43.548 +0000",1570549903.548371,0.297494,-0.028136,0.115950,0.293009,0.028132,-0.955696,0.000000,0.000000,0.000000,-1,-0.292803,-0.067618,-0.441326,0.107122,0.000096,0.148719
"2019-10-08 15:51:43.568 +0000",1570549903.568358,0.312771,-0.053586,0.111413,0.307255,0.053560,-0.950119,0.000000,0.000000,0.000000,-1,-0.202768,0.921409,-0.176222,-0.070194,-0.058596,0.196014
"2019-10-08 15:51:43.588 +0000",1570549903.588379,0.346684,-0.056533,0.113733,0.339238,0.056503,-0.939002,0.000000,0.000000,0.000000,-1,-0.179708,2.721599,0.281000,-0.047108,-0.124221,0.381492
"2019-10-08 15:51:43.608 +0000",1570549903.608396,0.422744,-0.070894,0.124328,0.409234,0.070835,-0.909676,0.000000,0.000000,0.000000,-1,-0.476936,4.016275,0.600333,-0.055764,-0.054676,0.052040
"2019-10-08 15:51:43.628 +0000",1570549903.628384,0.503812,-0.083766,0.143956,0.481075,0.083668,-0.872678,0.000000,0.000000,0.000000,-1,-0.917115,3.400685,0.743474,0.045079,-0.056721,-0.241839
"2019-10-08 15:51:43.648 +0000",1570549903.648403,0.562300,-0.092152,0.164592,0.530871,0.092022,-0.842442,0.000000,0.000000,0.000000,-1,-0.771991,2.024369,0.566478,0.032697,0.054127,-0.273479
"2019-10-08 15:51:43.668 +0000",1570549903.668422,0.590991,-0.099945,0.178469,0.554404,0.099778,-0.826245,0.000000,0.000000,0.000000,-1,-0.367313,0.592903,0.360463,-0.003302,-0.006425,-0.155048
"2019-10-08 15:51:43.688 +0000",1570549903.688409,0.602492,-0.100838,0.187798,0.563819,0.100668,-0.819741,0.000000,0.000000,0.000000,-1,-0.263645,0.756352,0.388772,-0.151313,0.023203,0.101341
"2019-10-08 15:51:43.708 +0000",1570549903.708428,0.633971,-0.102621,0.198002,0.589232,0.102441,-0.801443,0.000000,0.000000,0.000000,-1,-0.308855,2.049651,0.384859,-0.092727,0.114661,0.158483
"2019-10-08 15:51:43.728 +0000",1570549903.728445,0.684644,-0.105479,0.207690,0.628883,0.105283,-0.770339,0.000000,0.000000,0.000000,-1,-0.502280,2.757519,0.200408,-0.044685,0.072131,-0.009706
"2019-10-08 15:51:43.748 +0000",1570549903.748435,0.741110,-0.110397,0.220187,0.670998,0.110173,-0.733228,0.000000,0.000000,0.000000,-1,-0.639426,2.407397,0.548923,-0.167061,-0.101796,-0.189913
"2019-10-08 15:51:43.768 +0000",1570549903.768453,0.785611,-0.107414,0.242747,0.703181,0.107207,-0.702882,0.000000,0.000000,0.000000,-1,-0.752397,1.957576,1.213184,-0.209971,-0.258116,-0.230254
"2019-10-08 15:51:43.788 +0000",1570549903.788472,0.832362,-0.102007,0.273267,0.735679,0.101831,-0.669632,0.000000,0.000000,0.000000,-1,-1.133482,2.317053,1.074693,-0.012717,0.035086,-0.034210
"2019-10-08 15:51:43.808 +0000",1570549903.808490,0.881076,-0.103864,0.302275,0.767267,0.103677,-0.632892,0.000000,0.000000,0.000000,-1,-1.052342,2.129528,0.693814,0.003256,0.043967,-0.074047
"2019-10-08 15:51:43.828 +0000",1570549903.828478,0.922246,-0.102501,0.323722,0.792777,0.102322,-0.600862,0.000000,0.000000,0.000000,-1,-0.695724,1.776583,0.658804,-0.090476,-0.083767,-0.007888
"2019-10-08 15:51:43.848 +0000",1570549903.848497,0.965196,-0.097242,0.344307,0.818276,0.097088,-0.566567,0.000000,0.000000,0.000000,-1,-0.716544,2.522924,1.007058,-0.196816,-0.180310,0.218834
"2019-10-08 15:51:43.869 +0000",1570549903.868515,1.035546,-0.083471,0.372578,0.857147,0.083374,-0.508280,0.000000,0.000000,0.000000,-1,-1.033498,4.325605,1.461012,-0.147186,-0.113449,0.319025
"2019-10-08 15:51:43.889 +0000",1570549903.888502,1.138547,-0.067771,0.409317,0.905941,0.067719,-0.417953,0.000000,0.000000,0.000000,-1,-1.487273,5.391841,1.580235,-0.010815,-0.020234,0.011230
"2019-10-08 15:51:43.909 +0000",1570549903.908523,1.238017,-0.051538,0.448990,0.943883,0.051515,-0.326237,0.000000,0.000000,0.000000,-1,-1.478504,4.063354,1.299380,0.134883,0.026671,-0.368724
"2019-10-08 15:51:43.929 +0000",1570549903.928540,1.307049,-0.037386,0.480318,0.964745,0.037377,-0.260518,0.000000,0.000000,0.000000,-1,-1.120814,3.035455,0.983717,0.120887,0.040549,-0.197886
"2019-10-08 15:51:43.949 +0000",1570549903.948527,1.374072,-0.026169,0.502945,0.980376,0.026166,-0.195391,0.000000,0.000000,0.000000,-1,-0.759833,3.722825,0.568996,0.147767,0.143298,0.198992
"2019-10-08 15:51:43.969 +0000",1570549903.968519,1.451218,-0.021685,0.511155,0.992626,0.021683,-0.119265,0.000000,0.000000,0.000000,-1,0.084813,3.699248,0.089334,0.332951,0.176040,0.198275
"2019-10-08 15:51:43.989 +0000",1570549903.988537,1.521745,-0.019113,0.501636,0.998615,0.019112,-0.049022,0.000000,0.000000,0.000000,-1,0.764295,3.611835,0.150649,0.185055,0.080009,0.297466
"2019-10-08 15:51:44.009 +0000",1570549904.008558,1.605037,-0.012698,0.484653,0.999333,0.012698,0.034231,0.000000,0.000000,0.000000,-1,0.924184,4.741101,0.516488,0.207164,0.030301,0.318842
"2019-10-08 15:51:44.029 +0000",1570549904.028545,1.703555,-0.000546,0.463077,0.991201,0.000546,0.132369,0.000000,0.000000,0.000000,-1,1.108348,4.938448,0.789573,0.314601,0.111224,0.076997
"2019-10-08 15:51:44.049 +0000",1570549904.048562,1.793506,0.008712,0.437735,0.975266,-0.008712,0.220865,0.000000,0.000000,0.000000,-1,1.292589,3.868626,0.556070,0.201019,-0.003221,-0.143289
"2019-10-08 15:51:44.069 +0000",1570549904.068581,1.857288,0.010905,0.407017,0.959184,-0.010905,0.282572,0.000000,0.000000,0.000000,-1,1.534476,2.688346,0.471276,-0.014360,-0.023625,-0.236002
"2019-10-08 15:51:44.089 +0000",1570549904.088571,1.915964,0.008587,0.384204,0.940984,-0.008587,0.338342,0.000000,0.000000,0.000000,-1,0.590027,2.986861,0.072840,-0.079671,-0.791630,-0.208551
"2019-10-08 15:51:44.109 +0000",1570549904.108587,1.967044,0.015471,0.358448,0.922405,-0.015471,0.385914,0.000000,0.000000,0.000000,-1,1.183329,2.187893,0.771395,-0.269085,0.161253,-0.011555
"2019-10-08 15:51:44.129 +0000",1570549904.128606,1.997674,0.014804,0.335812,0.910163,-0.014803,0.413985,0.000000,0.000000,0.000000,-1,0.806486,0.794425,0.129612,0.162423,-0.008558,-0.313918
"2019-10-08 15:51:44.149 +0000",1570549904.148595,2.005069,0.012148,0.324071,0.907109,-0.012148,0.420720,0.000000,0.000000,0.000000,-1,0.286174,0.267742,0.340939,-0.222997,-0.173765,-0.147115
"2019-10-08 15:51:44.169 +0000",1570549904.168613,2.031898,0.044096,0.328972,0.894692,-0.044082,0.444503,0.000000,0.000000,0.000000,-1,-1.799106,2.380543,2.351287,-0.465111,0.428206,-0.062225
"2019-10-08 15:51:44.189 +0000",1570549904.188631,2.077371,0.095926,0.328418,0.870391,-0.095779,0.482955,0.000000,0.000000,0.000000,-1,-0.549697,1.986742,1.625952,0.234421,-0.406998,0.301164
"2019-10-08 15:51:44.209 +0000",1570549904.208650,2.109722,0.113093,0.319743,0.852778,-0.112852,0.509936,0.000000,0.000000,0.000000,-1,0.307970,1.210012,0.517822,0.324575,0.289075,0.087538
"2019-10-08 15:51:44.229 +0000",1570549904.228639,2.121465,0.114393,0.307327,0.846605,-0.114143,0.519838,0.000000,0.000000,0.000000,-1,0.674598,-0.464644,0.232143,0.341856,0.143455,-0.187532
"2019-10-08 15:51:44.249 +0000",1570549904.248656,2.093289,0.103335,0.291528,0.861955,-0.103151,0.496380,0.000000,0.000000,0.000000,-1,1.223032,-2.336110,-0.385201,0.269881,0.099001,0.038990
"2019-10-08 15:51:44.269 +0000",1570549904.268675,2.046431,0.083959,0.272708,0.885871,-0.083861,0.456289,0.000000,0.000000,0.000000,-1,1.105255,-1.667977,-0.420509,0.065774,0.007414,0.351129
"2019-10-08 15:51:44.289 +0000",1570549904.288663,2.051222,0.083749,0.277475,0.883690,-0.083651,0.460537,0.000000,0.000000,0.000000,-1,-0.391711,0.885905,0.206740,-0.302483,-0.275129,0.085361
"2019-10-08 15:51:44.309 +0000",1570549904.308681,2.078767,0.092439,0.284508,0.870003,-0.092307,0.484329,0.000000,0.000000,0.000000,-1,-0.569544,1.563994,0.089433,0.174294,0.120551,0.121903
"2019-10-08 15:51:44.329 +0000",1570549904.328700,2.097155,0.091955,0.294536,0.860989,-0.091826,0.500266,0.000000,0.000000,0.000000,-1,-0.337498,0.227805,-0.473045,-0.021618,0.003599,-0.302466
"2019-10-08 15:51:44.349 +0000",1570549904.348688,2.093464,0.087374,0.304488,0.863185,-0.087263,0.497289,0.000000,0.000000,0.000000,-1,-0.223570,-0.346700,-0.390952,-0.169765,-0.119494,-0.170537
"2019-10-08 15:51:44.369 +0000",1570549904.368706,2.096459,0.081458,0.305862,0.862123,-0.081368,0.500122,0.000000,0.000000,0.000000,-1,0.418026,1.085756,-0.240920,-0.045214,-0.185844,-0.010407
"2019-10-08 15:51:44.389 +0000",1570549904.388725,2.126512,0.071062,0.303384,0.847379,-0.071002,0.526220,0.000000,0.000000,0.000000,-1,0.271208,1.513429,-0.510057,0.062624,-0.214704,-0.215108
"2019-10-08 15:51:44.409 +0000",1570549904.408713,2.156967,0.060374,0.304847,0.831547,-0.060337,0.552167,0.000000,0.000000,0.000000,-1,0.246973,1.780255,-0.421794,0.109829,-0.090542,-0.033506
"2019-10-08 15:51:44.429 +0000",1570549904.428731,2.203227,0.054820,0.300794,0.805381,-0.054792,0.590220,0.000000,0.000000,0.000000,-1,0.336285,2.786473,0.336266,0.152474,-0.090593,0.047247
"2019-10-08 15:51:44.449 +0000",1570549904.448750,2.258441,0.068701,0.288144,0.770920,-0.068647,0.633221,0.000000,0.000000,0.000000,-1,-0.400318,2.171011,1.425660,0.191024,-0.146532,0.115054
"2019-10-08 15:51:44.469 +0000",1570549904.468769,2.273590,0.103728,0.279999,0.758938,-0.103542,0.642878,0.000000,0.000000,0.000000,-1,-0.901162,-0.631231,1.740127,-0.158444,-0.284367,0.203909
"2019-10-08 15:51:44.489 +0000",1570549904.488755,2.250246,0.139743,0.261221,0.770335,-0.139289,0.622239,0.000000,0.000000,0.000000,-1,0.019987,-1.610266,2.237539,0.068181,-0.379967,-0.129182
"2019-10-08 15:51:44.509 +0000",1570549904.508776,2.232477,0.179653,0.229109,0.776263,-0.178688,0.604555,0.000000,0.000000,0.000000,-1,-0.277363,-0.181013,2.777820,-0.211352,-0.090416,0.106321
"2019-10-08 15:51:44.529 +0000",1570549904.528794,2.235702,0.223231,0.205188,0.767448,-0.221381,0.601675,0.000000,0.000000,0.000000,-1,-0.437954,0.167481,2.331036,-0.067039,-0.252953,0.125192
"2019-10-08 15:51:44.549 +0000",1570549904.548782,2.255151,0.269266,0.178370,0.746907,-0.266024,0.609393,0.000000,0.000000,0.000000,-1,-0.443470,1.085937,2.754041,-0.082311,-0.182874,0.031048
"2019-10-08 15:51:44.569 +0000",1570549904.568799,2.288058,0.318756,0.149716,0.715646,-0.313386,0.624212,0.000000,0.000000,0.000000,-1,-0.697893,1.340555,2.929412,-0.085320,-0.335723,-0.057241
"2019-10-08 15:51:44.589 +0000",1570549904.588820,2.331126,0.378774,0.120991,0.673248,-0.369782,0.640312,0.000000,0.000000,0.000000,-1,-1.387099,1.988929,3.106121,-0.029830,0.080353,0.130806
"2019-10-08 15:51:44.609 +0000",1570549904.608808,2.383591,0.438969,0.105889,0.622293,-0.425006,0.657359,0.000000,0.000000,0.000000,-1,-1.713420,2.541953,1.901804,-0.212610,0.312152,0.125798
"2019-10-08 15:51:44.629 +0000",1570549904.628825,2.419244,0.469935,0.109706,0.589478,-0.452829,0.668926,0.000000,0.000000,0.000000,-1,-0.544719,0.459041,-0.007637,-0.309892,0.440759,-0.459133
"2019-10-08 15:51:44.649 +0000",1570549904.648844,2.398674,0.458324,0.113421,0.606629,-0.442445,0.660488,0.000000,0.000000,0.000000,-1,0.954261,-1.475860,-0.806629,-0.038148,-0.011015,-0.390575
"2019-10-08 15:51:44.669 +0000",1570549904.668862,2.379011,0.436927,0.091346,0.625895,-0.423157,0.655129,0.000000,0.000000,0.000000,-1,1.766852,-1.924810,1.002105,0.277731,0.497117,-0.274086
"2019-10-08 15:51:44.689 +0000",1570549904.688850,2.331294,0.425789,0.053367,0.659805,-0.413040,0.627738,0.000000,0.000000,0.000000,-1,1.662317,-4.166256,0.472772,0.089798,0.320266,-0.097556
"2019-10-08 15:51:44.709 +0000",1570549904.708869,2.270836,0.406659,0.016756,0.702444,-0.395543,0.591708,0.000000,0.000000,0.000000,-1,1.937091,-2.987762,0.512266,0.051234,-0.011531,0.236264
"2019-10-08 15:51:44.729 +0000",1570549904.728888,2.243389,0.399940,-0.021734,0.720481,-0.389363,0.573850,0.000000,0.000000,0.000000,-1,1.074789,-1.109902,1.175268,0.254403,0.175984,0.392397
"2019-10-08 15:51:44.749 +0000",1570549904.748877,2.259896,0.412853,-0.046445,0.706970,-0.401224,0.582419,0.000000,0.000000,0.000000,-1,0.060470,1.234213,1.053221,0.043060,0.133691,0.173730
"2019-10-08 15:51:44.769 +0000",1570549904.768894,2.289589,0.418079,-0.058590,0.687780,-0.406006,0.601762,0.000000,0.000000,0.000000,-1,0.592384,1.094697,0.025686,-0.013128,-0.064758,-0.010728
"2019-10-08 15:51:44.789 +0000",1570549904.788913,2.307363,0.402066,-0.066040,0.681706,-0.391320,0.618179,0.000000,0.000000,0.000000,-1,0.881134,0.514750,-0.647776,0.081676,-0.027259,0.044220
"2019-10-08 15:51:44.809 +0000",1570549904.808901,2.319436,0.380797,-0.067101,0.680137,-0.371661,0.631887,0.000000,0.000000,0.000000,-1,0.599052,0.707309,-0.837328,0.092125,-0.108671,0.103602
"2019-10-08 15:51:44.829 +0000",1570549904.828920,2.334098,0.358801,-0.061017,0.676544,-0.351152,0.647287,0.000000,0.000000,0.000000,-1,0.536383,0.964410,-1.167121,0.068100,-0.009276,0.028464
"2019-10-08 15:51:44.849 +0000",1570549904.848938,2.353361,0.333596,-0.049004,0.670015,-0.327443,0.666229,0.000000,0.000000,0.000000,-1,0.421396,1.457871,-1.393587,0.034056,0.138967,0.072419
"2019-10-08 15:51:44.869 +0000",1570549904.868957,2.383188,0.305389,-0.034664,0.655941,-0.300664,0.692345,0.000000,0.000000,0.000000,-1,0.701962,1.738524,-1.500026,0.019474,0.039113,-0.131539
"2019-10-08 15:51:44.889 +0000",1570549904.888944,2.413954,0.271562,-0.028210,0.640734,-0.268236,0.719381,0.000000,0.000000,0.000000,-1,1.358899,1.196479,-1.113447,-0.021670,-0.292539,-0.445394
"2019-10-08 15:51:44.909 +0000",1570549904.908963,2.432791,0.242445,-0.039706,0.631888,-0.240077,0.736940,0.000000,0.000000,0.000000,-1,1.501240,0.340658,0.027180,0.079920,-0.244099,-0.079927
"2019-10-08 15:51:44.929 +0000",1570549904.928982,2.443659,0.225091,-0.062633,0.626425,-0.223195,0.746844,0.000000,0.000000,0.000000,-1,1.259750,0.851225,0.384744,0.051721,0.147648,0.418348
"2019-10-08 15:51:44.949 +0000",1570549904.948969,2.497878,0.208750,-0.082466,0.587141,-0.207237,0.782507,0.000000,0.000000,0.000000,-1,1.226203,3.500178,0.147798,-0.046141,0.414360,0.130533
"2019-10-08 15:51:44.969 +0000",1570549904.968966,2.570549,0.197834,-0.097248,0.529968,-0.196546,0.824927,0.000000,0.000000,0.000000,-1,0.374154,3.100391,0.697471,0.109085,-0.599795,-0.406912
"2019-10-08 15:51:44.989 +0000",1570549904.988984,2.609153,0.208760,-0.115976,0.496615,-0.207247,0.842865,0.000000,0.000000,0.000000,-1,-0.116671,0.401075,1.182636,0.127027,-0.476057,-0.189225
"2019-10-08 15:51:45.009 +0000",1570549905.008973,2.619423,0.220721,-0.135132,0.486662,-0.218933,0.845712,0.000000,0.000000,0.000000,-1,-0.102616,0.739799,1.185845,-0.027220,-0.118393,0.223471
"2019-10-08 15:51:45.029 +0000",1570549905.028991,2.645872,0.237302,-0.157101,0.462335,-0.235081,0.854975,0.000000,0.000000,0.000000,-1,-0.239070,1.155409,1.320208,-0.056406,-0.123546,-0.082591
"2019-10-08 15:51:45.049 +0000",1570549905.049010,2.671370,0.252687,-0.175869,0.438697,-0.250006,0.863158,0.000000,0.000000,0.000000,-1,-0.315761,1.060998,1.033605,-0.081153,-0.083719,0.037461
"2019-10-08 15:51:45.069 +0000",1570549905.069029,2.701594,0.267757,-0.187720,0.410761,-0.264569,0.872513,0.000000,0.000000,0.000000,-1,-0.465360,1.631767,0.512344,-0.083551,0.091305,0.020935
"2019-10-08 15:51:45.089 +0000",1570549905.089017,2.728673,0.276819,-0.191169,0.386008,-0.273297,0.881082,0.000000,0.000000,0.000000,-1,-0.184044,0.831930,0.349303,-0.119574,-0.056857,-0.187922
"2019-10-08 15:51:45.109 +0000",1570549905.109035,2.738594,0.279335,-0.199364,0.376977,-0.275717,0.884233,0.000000,0.000000,0.000000,-1,0.228009,0.088719,0.445573,-0.008905,-0.038172,-0.100359
"2019-10-08 15:51:45.129 +0000",1570549905.129054,2.743431,0.276934,-0.210428,0.372951,-0.273408,0.886654,0.000000,0.000000,0.000000,-1,0.373131,0.143609,0.405216,-0.006496,-0.038207,0.013142
"2019-10-08 15:51:45.149 +0000",1570549905.149042,2.750241,0.273981,-0.220958,0.367212,-0.270566,0.889916,0.000000,0.000000,0.000000,-1,0.271775,0.242916,0.434348,-0.043084,-0.099429,0.023277
"2019-10-08 15:51:45.169 +0000",1570549905.169061,2.761074,0.274491,-0.232584,0.357498,-0.271057,0.893713,0.000000,0.000000,0.000000,-1,0.129478,0.588188,0.670121,0.017593,-0.104889,0.027964
"2019-10-08 15:51:45.189 +0000",1570549905.189080,2.779686,0.278742,-0.248551,0.340393,-0.275146,0.899126,0.000000,0.000000,0.000000,-1,-0.009792,0.741522,0.871519,0.058396,-0.061020,0.034056
"2019-10-08 15:51:45.209 +0000",1570549905.209067,2.795756,0.285540,-0.266247,0.325259,-0.281676,0.902699,0.000000,0.000000,0.000000,-1,0.008985,0.369654,0.924116,-0.021044,0.012388,-0.041005
"2019-10-08 15:51:45.229 +0000",1570549905.229085,2.809661,0.291950,-0.286239,0.312080,-0.287821,0.905409,0.000000,0.000000,0.000000,-1,0.001713,0.517152,1.098099,-0.014931,-0.100332,0.024538
"2019-10-08 15:51:45.249 +0000",1570549905.249104,2.819129,0.313889,-0.305393,0.301420,-0.308760,0.902116,0.000000,0.000000,0.000000,-1,-0.045168,0.960108,1.183729,0.024645,-0.049059,0.055587
"2019-10-08 15:51:45.269 +0000",1570549905.269093,2.847854,0.321695,-0.328732,0.274680,-0.316175,0.908066,0.000000,0.000000,0.000000,-1,-0.032752,0.939741,1.115981,-0.058066,0.049390,-0.043412
"2019-10-08 15:51:45.289 +0000",1570549905.289110,2.871029,0.326936,-0.348558,0.253117,-0.321143,0.912578,0.000000,0.000000,0.000000,-1,0.027051,0.969870,0.825939,0.039302,0.132911,0.135579
"2019-10-08 15:51:45.309 +0000",1570549905.309129,2.885739,0.329794,-0.365465,0.239433,-0.323848,0.915311,0.000000,0.000000,0.000000,-1,0.104627,-0.203359,0.732190,-0.126732,-0.029347,-0.160947
"2019-10-08 15:51:45.329 +0000",1570549905.329148,2.882005,0.331003,-0.378342,0.242749,-0.324991,0.914032,0.000000,0.000000,0.000000,-1,0.101925,-0.374697,0.471551,-0.124417,-0.051046,0.036530
"2019-10-08 15:51:45.349 +0000",1570549905.349137,2.880017,0.329910,-0.386745,0.244657,-0.323958,0.913889,0.000000,0.000000,0.000000,-1,0.211694,-0.218765,0.277825,-0.131193,-0.070985,0.001470
"2019-10-08 15:51:45.369 +0000",1570549905.369155,2.878697,0.326880,-0.389801,0.246117,-0.321090,0.914509,0.000000,0.000000,0.000000,-1,0.166181,-0.079395,-0.017351,-0.106301,-0.084046,-0.055073
"2019-10-08 15:51:45.389 +0000",1570549905.389174,2.875732,0.323206,-0.389197,0.249135,-0.317608,0.914908,0.000000,0.000000,0.000000,-1,0.172250,-0.206001,-0.126266,-0.027853,0.050335,0.012308
"2019-10-08 15:51:45.409 +0000",1570549905.409161,2.870684,0.319013,-0.386542,0.254105,-0.313629,0.914914,0.000000,0.000000,0.000000,-1,0.157956,-0.156454,-0.205431,-0.091858,0.032364,0.021823
"2019-10-08 15:51:45.429 +0000",1570549905.429179,2.868470,0.315425,-0.382400,0.256432,-0.310220,0.915427,0.000000,0.000000,0.000000,-1,0.087947,0.062859,-0.291911,-0.119866,-0.159125,0.041254
"2019-10-08 15:51:45.449 +0000",1570549905.449199,2.885813,0.329442,-0.381558,0.239394,-0.323515,0.915439,0.000000,0.000000,0.000000,-1,0.120330,-0.046190,-0.430920,-0.032744,-0.202608,-0.054355
"2019-10-08 15:51:45.469 +0000",1570549905.469187,2.875995,0.326124,-0.368487,0.248651,-0.320374,0.914075,0.000000,0.000000,0.000000,-1,0.006256,-0.668867,-1.055886,-0.105768,0.141953,0.049823
"2019-10-08 15:51:45.489 +0000",1570549905.489204,2.868074,0.317687,-0.347246,0.256604,-0.312371,0.914647,0.000000,0.000000,0.000000,-1,0.137294,0.060690,-1.157368,-0.165662,0.006859,0.033442
"2019-10-08 15:51:45.509 +0000",1570549905.509223,2.863938,0.306238,-0.325409,0.261348,-0.301474,0.916958,0.000000,0.000000,0.000000,-1,0.342999,0.123746,-1.014477,-0.011836,-0.020609,-0.050029
"2019-10-08 15:51:45.529 +0000",1570549905.529241,2.858305,0.296341,-0.317903,0.267331,-0.292022,0.918291,0.000000,0.000000,0.000000,-1,0.482302,-0.621401,0.261963,0.310474,-0.063721,-0.132158
"2019-10-08 15:51:45.549 +0000",1570549905.549230,2.847088,0.294694,-0.332258,0.277753,-0.290447,0.915693,0.000000,0.000000,0.000000,-1,0.019947,-0.708258,0.597208,0.246402,0.172558,0.126894
"2019-10-08 15:51:45.569 +0000",1570549905.569249,2.838104,0.296154,-0.338254,0.285841,-0.291844,0.912755,0.000000,0.000000,0.000000,-1,0.048914,-0.365689,0.124156,-0.149748,0.192402,-0.000524
"2019-10-08 15:51:45.589 +0000",1570549905.589267,2.834109,0.295926,-0.340914,0.289506,-0.291625,0.911670,0.000000,0.000000,0.000000,-1,0.051153,-0.125949,0.125792,0.006515,0.018218,0.035169
"2019-10-08 15:51:45.609 +0000",1570549905.609255,2.832774,0.295668,-0.343693,0.290745,-0.291379,0.911354,0.000000,0.000000,0.000000,-1,0.048524,-0.119129,0.114069,0.008389,-0.029651,0.011315
"2019-10-08 15:51:45.629 +0000",1570549905.629273,2.831358,0.295910,-0.345789,0.292013,-0.291611,0.910874,0.000000,0.000000,0.000000,-1,-0.009041,-0.087296,0.080909,0.026361,-0.034470,0.031952
"2019-10-08 15:51:45.649 +0000",1570549905.649291,2.829704,0.296649,-0.346940,0.293454,-0.292317,0.910184,0.000000,0.000000,0.000000,-1,-0.024416,-0.103485,0.043432,0.035938,-0.008067,0.011477
"2019-10-08 15:51:45.669 +0000",1570549905.669279,2.827580,0.297251,-0.347347,0.295332,-0.292893,0.909392,0.000000,0.000000,0.000000,-1,-0.028859,-0.089640,0.016084,0.035143,0.009614,0.014665
"2019-10-08 15:51:45.689 +0000",1570549905.689298,2.825857,0.297671,-0.348392,0.296860,-0.293294,0.908764,0.000000,0.000000,0.000000,-1,0.095023,-0.262393,0.166481,0.074630,0.010503,-0.042492
"2019-10-08 15:51:45.709 +0000",1570549905.709318,2.816617,0.298464,-0.357031,0.305169,-0.294053,0.905762,0.000000,0.000000,0.000000,-1,0.142106,-0.571381,0.416165,0.149207,0.104111,-0.024201
"2019-10-08 15:51:45.729 +0000",1570549905.729336,2.811592,0.301427,-0.362354,0.309433,-0.296883,0.903389,0.000000,0.000000,0.000000,-1,-0.004390,0.029147,0.126615,-0.105851,-0.051582,0.075401
"2019-10-08 15:51:45.749 +0000",1570549905.749325,2.811484,0.297895,-0.360896,0.309869,-0.293509,0.904341,0.000000,0.000000,0.000000,-1,-0.119069,0.283998,-0.104518,-0.038034,-0.073114,0.029848
"2019-10-08 15:51:45.769 +0000",1570549905.769344,2.798796,0.297386,-0.351762,0.321369,-0.293022,0.900478,0.000000,0.000000,0.000000,-1,-0.205132,0.245626,-0.181928,-0.021976,0.003136,0.032445
"2019-10-08 15:51:45.789 +0000",1570549905.789361,2.796378,0.288908,-0.346019,0.324374,-0.284906,0.902004,0.000000,0.000000,0.000000,-1,-0.118998,0.132830,-0.054525,0.026258,0.053857,-0.068080
"2019-10-08 15:51:45.809 +0000",1570549905.809349,2.812911,0.299619,-0.350313,0.308415,-0.295157,0.904303,0.000000,0.000000,0.000000,-1,-0.020626,-0.023272,0.044527,0.002209,0.052862,-0.014227
"2019-10-08 15:51:45.829 +0000",1570549905.829368,2.818706,0.308053,-0.352870,0.302369,-0.303204,0.903682,0.000000,0.000000,0.000000,-1,-0.010078,-0.011914,0.006364,-0.047410,-0.017033,0.030476
"2019-10-08 15:51:45.849 +0000",1570549905.849386,2.820468,0.307955,-0.353343,0.300785,-0.303111,0.904241,0.000000,0.000000,0.000000,-1,0.020074,-0.002132,-0.012787,-0.019810,0.000682,0.011378
"2019-10-08 15:51:45.869 +0000",1570549905.869375,2.815926,0.302463,-0.352057,0.305417,-0.297873,0.904429,0.000000,0.000000,0.000000,-1,0.059596,-0.004857,-0.006748,-0.016294,-0.000299,0.012578
"2019-10-08 15:51:45.889 +0000",1570549905.889394,2.812683,0.296387,-0.351422,0.308928,-0.292067,0.905130,0.000000,0.000000,0.000000,-1,0.025783,-0.028924,-0.004833,-0.028242,0.014647,0.016623
"2019-10-08 15:51:45.910 +0000",1570549905.909550,2.815288,0.297020,-0.352315,0.306509,-0.292672,0.905757,0.000000,0.000000,0.000000,-1,0.005315,-0.025547,-0.007491,-0.028479,0.011910,0.009755
"2019-10-08 15:51:45.929 +0000",1570549905.929431,2.817905,0.298268,-0.353122,0.304021,-0.293865,0.906209,0.000000,0.000000,0.000000,-1,0.021807,-0.022341,-0.007098,0.004039,-0.011189,0.006282
"2019-10-08 15:51:45.949 +0000",1570549905.949418,2.818524,0.297626,-0.353622,0.303520,-0.293251,0.906576,0.000000,0.000000,0.000000,-1,0.037992,-0.036042,-0.013461,-0.003944,-0.018425,0.002711
"2019-10-08 15:51:45.969 +0000",1570549905.969454,2.819807,0.295867,-0.354164,0.302520,-0.291570,0.907452,0.000000,0.000000,0.000000,-1,0.033824,-0.015060,0.002174,0.014207,-0.013835,-0.008267
"2019-10-08 15:51:45.989 +0000",1570549905.989472,2.820877,0.295004,-0.355134,0.301627,-0.290743,0.908014,0.000000,0.000000,0.000000,-1,0.033331,-0.019661,0.027972,0.008966,-0.010618,-0.015268
"2019-10-08 15:51:46.009 +0000",1570549906.009459,2.820782,0.295061,-0.356033,0.301708,-0.290798,0.907970,0.000000,0.000000,0.000000,-1,0.035805,-0.022245,0.038099,0.001728,0.003353,0.003056
"2019-10-08 15:51:46.029 +0000",1570549906.029478,2.820593,0.295325,-0.357238,0.301856,-0.291051,0.907840,0.000000,0.000000,0.000000,-1,0.062009,-0.014203,0.057557,0.004983,0.000142,0.004407
"2019-10-08 15:51:46.049 +0000",1570549906.049498,2.820329,0.295494,-0.358576,0.302080,-0.291212,0.907713,0.000000,0.000000,0.000000,-1,0.047373,0.004680,0.060833,-0.004793,-0.004885,0.016954
"2019-10-08 15:51:46.069 +0000",1570549906.069485,2.820107,0.295640,-0.360101,0.302269,-0.291352,0.907606,0.000000,0.000000,0.000000,-1,0.041793,-0.004979,0.075666,0.007515,0.017625,-0.006940
"2019-10-08 15:51:46.090 +0000",1570549906.089505,2.820140,0.295762,-0.361716,0.302227,-0.291469,0.907582,0.000000,0.000000,0.000000,-1,0.003854,-0.020177,0.074132,0.002705,0.029232,0.000713
"2019-10-08 15:51:46.110 +0000",1570549906.109523,2.820161,0.296085,-0.363123,0.302178,-0.291777,0.907499,0.000000,0.000000,0.000000,-1,0.001309,-0.013573,0.070632,0.005820,0.024947,0.000124
"2019-10-08 15:51:46.130 +0000",1570549906.129542,2.820341,0.296310,-0.364560,0.301994,-0.291993,0.907491,0.000000,0.000000,0.000000,-1,0.004070,-0.004475,0.071798,0.008049,0.007004,-0.002370
"2019-10-08 15:51:46.150 +0000",1570549906.149531,2.820551,0.295858,-0.365907,0.301845,-0.291560,0.907680,0.000000,0.000000,0.000000,-1,0.003018,0.005091,0.067382,0.014027,-0.006566,-0.004405
"2019-10-08 15:51:46.170 +0000",1570549906.169548,2.820652,0.294933,-0.366969,0.301838,-0.290675,0.907966,0.000000,0.000000,0.000000,-1,0.004001,-0.014213,0.040659,0.010876,-0.002553,-0.006889
"2019-10-08 15:51:46.190 +0000",1570549906.189568,2.820327,0.294405,-0.367637,0.302182,-0.290170,0.908013,0.000000,0.000000,0.000000,-1,-0.022288,-0.019639,0.040977,-0.002026,0.000207,-0.007775
"2019-10-08 15:51:46.210 +0000",1570549906.209556,2.819724,0.294771,-0.367916,0.302695,-0.290521,0.907730,0.000000,0.000000,0.000000,-1,-0.034998,-0.030776,0.011514,-0.008369,0.009668,-0.004166
"2019-10-08 15:51:46.230 +0000",1570549906.229572,2.818240,0.295548,-0.367505,0.303971,-0.291264,0.907065,0.000000,0.000000,0.000000,-1,-0.036055,-0.052951,-0.007475,-0.022995,0.036900,0.007379
"2019-10-08 15:51:46.250 +0000",1570549906.249592,2.816791,0.296478,-0.366905,0.305198,-0.292154,0.906367,0.000000,0.000000,0.000000,-1,-0.055588,-0.040242,-0.009977,-0.026054,0.052209,0.032919
"2019-10-08 15:51:46.270 +0000",1570549906.269581,2.815929,0.297667,-0.366283,0.305868,-0.293290,0.905773,0.000000,0.000000,0.000000,-1,-0.076432,-0.017188,-0.004267,0.006632,0.021776,0.051182
"2019-10-08 15:51:46.290 +0000",1570549906.289598,2.816303,0.298558,-0.366001,0.305446,-0.294143,0.905640,0.000000,0.000000,0.000000,-1,-0.067370,0.012691,0.007625,0.055226,-0.040742,-0.002380
"2019-10-08 15:51:46.310 +0000",1570549906.309618,2.817513,0.298583,-0.366000,0.304347,-0.294166,0.906002,0.000000,0.000000,0.000000,-1,-0.072444,0.012998,0.006144,0.062352,-0.032281,-0.026440
"2019-10-08 15:51:46.330 +0000",1570549906.329605,2.818332,0.298450,-0.365524,0.303617,-0.294039,0.906288,0.000000,0.000000,0.000000,-1,-0.080693,0.009457,-0.023256,0.034182,-0.017607,-0.032189
"2019-10-08 15:51:46.350 +0000",1570549906.349624,2.817991,0.298823,-0.364228,0.303892,-0.294396,0.906080,0.000000,0.000000,0.000000,-1,-0.051994,0.000356,-0.053524,0.011340,-0.007728,-0.025816
"2019-10-08 15:51:46.370 +0000",1570549906.369642,2.816097,0.299733,-0.362352,0.305521,-0.295266,0.905248,0.000000,0.000000,0.000000,-1,-0.025922,-0.018104,-0.071259,-0.007502,-0.020790,0.001414
"2019-10-08 15:51:46.390 +0000",1570549906.389661,2.813728,0.300282,-0.360502,0.307613,-0.295790,0.904369,0.000000,0.000000,0.000000,-1,0.018827,0.001879,-0.052502,-0.013714,-0.038042,0.010014
"2019-10-08 15:51:46.410 +0000",1570549906.409648,2.812703,0.299809,-0.359623,0.308584,-0.295338,0.904185,0.000000,0.000000,0.000000,-1,0.052002,0.017062,-0.037713,-0.020162,-0.039424,0.007695
"2019-10-08 15:51:46.430 +0000",1570549906.429668,2.812322,0.298859,-0.358966,0.309020,-0.294430,0.904333,0.000000,0.000000,0.000000,-1,0.050882,-0.002088,-0.054080,-0.017272,-0.020176,-0.005865
"2019-10-08 15:51:46.450 +0000",1570549906.449687,2.811772,0.298253,-0.358022,0.309575,-0.293851,0.904331,0.000000,0.000000,0.000000,-1,0.014452,-0.041088,-0.066469,-0.017277,0.008527,-0.020939
"2019-10-08 15:51:46.470 +0000",1570549906.469676,2.811314,0.299264,-0.357144,0.309892,-0.294817,0.903908,0.000000,0.000000,0.000000,-1,-0.018301,-0.035024,-0.027886,-0.012559,0.026491,0.004906
"2019-10-08 15:51:46.490 +0000",1570549906.489693,2.811181,0.300316,-0.357050,0.309912,-0.295822,0.903573,0.000000,0.000000,0.000000,-1,-0.007557,-0.019214,0.011848,-0.010519,0.009690,0.026069
"2019-10-08 15:51:46.510 +0000",1570549906.509712,2.811462,0.300753,-0.357520,0.309616,-0.296239,0.903537,0.000000,0.000000,0.000000,-1,0.010498,0.007361,0.022246,-0.005844,-0.002284,0.021298
"2019-10-08 15:51:46.530 +0000",1570549906.529701,2.812088,0.300473,-0.358131,0.309077,-0.295972,0.903810,0.000000,0.000000,0.000000,-1,0.004148,0.004608,0.021203,0.001714,0.001371,0.001326
"2019-10-08 15:51:46.550 +0000",1570549906.549718,2.812303,0.300138,-0.358664,0.308915,-0.295652,0.903970,0.000000,0.000000,0.000000,-1,-0.007584,-0.032187,0.023762,0.006958,0.003263,-0.019235
"2019-10-08 15:51:46.570 +0000",1570549906.569737,2.812111,0.300140,-0.359240,0.309088,-0.295654,0.903910,0.000000,0.000000,0.000000,-1,-0.011434,-0.029583,0.028887,0.012735,0.002716,-0.010661
"2019-10-08 15:51:46.590 +0000",1570549906.589756,2.812371,0.300479,-0.359949,0.308821,-0.295978,0.903895,0.000000,0.000000,0.000000,-1,-0.007933,0.002567,0.043171,0.023836,0.001224,0.000829
"2019-10-08 15:51:46.610 +0000",1570549906.609745,2.812951,0.300802,-0.360671,0.308266,-0.296287,0.903984,0.000000,0.000000,0.000000,-1,-0.002173,0.029112,0.036557,0.021934,-0.003915,0.005928
"2019-10-08 15:51:46.630 +0000",1570549906.629762,2.813398,0.301091,-0.361349,0.307834,-0.296562,0.904040,0.000000,0.000000,0.000000,-1,-0.006258,0.009848,0.040288,0.031842,0.000755,0.000363
"2019-10-08 15:51:46.650 +0000",1570549906.649780,2.813104,0.301527,-0.361933,0.308058,-0.296979,0.903827,0.000000,0.000000,0.000000,-1,-0.018596,-0.006375,0.037867,0.019624,0.006299,0.000744
"2019-10-08 15:51:46.670 +0000",1570549906.669769,2.812967,0.302194,-0.362306,0.308118,-0.297615,0.903598,0.000000,0.000000,0.000000,-1,-0.036549,0.013915,0.029004,0.013950,0.014824,-0.001773
"2019-10-08 15:51:46.690 +0000",1570549906.689788,2.812891,0.303121,-0.362394,0.308097,-0.298500,0.903312,0.000000,0.000000,0.000000,-1,-0.040103,0.017149,0.024083,0.002816,0.013771,0.005242
"2019-10-08 15:51:46.710 +0000",1570549906.709805,2.812707,0.303784,-0.362451,0.308199,-0.299133,0.903069,0.000000,0.000000,0.000000,-1,-0.027124,0.016365,0.024377,-0.010226,-0.001160,0.011543
"2019-10-08 15:51:46.730 +0000",1570549906.729794,2.812738,0.304193,-0.362784,0.308132,-0.299524,0.902962,0.000000,0.000000,0.000000,-1,-0.014054,0.005774,0.041302,-0.012035,-0.018225,0.011131
"2019-10-08 15:51:46.750 +0000",1570549906.749814,2.812877,0.304300,-0.363200,0.307996,-0.299625,0.902974,0.000000,0.000000,0.000000,-1,-0.009833,0.011596,0.018196,0.001055,0.004673,0.005305
"2019-10-08 15:51:46.770 +0000",1570549906.769830,2.812785,0.304442,-0.363483,0.308066,-0.299761,0.902906,0.000000,0.000000,0.000000,-1,-0.024733,-0.019828,0.018370,-0.021261,-0.014509,-0.007001
"2019-10-08 15:51:46.790 +0000",1570549906.789850,2.812535,0.304960,-0.363700,0.308241,-0.300255,0.902682,0.000000,0.000000,0.000000,-1,-0.029670,-0.018255,0.015844,-0.021726,-0.001610,0.001707
"2019-10-08 15:51:46.810 +0000",1570549906.809838,2.812293,0.305729,-0.363873,0.308384,-0.300989,0.902389,0.000000,0.000000,0.000000,-1,-0.019572,-0.034810,0.012850,-0.013630,-0.004156,0.003587
"2019-10-08 15:51:46.830 +0000",1570549906.829856,2.812067,0.306216,-0.364093,0.308541,-0.301453,0.902180,0.000000,0.000000,0.000000,-1,-0.018040,-0.018987,0.009422,-0.005730,-0.004501,-0.001942
"2019-10-08 15:51:46.850 +0000",1570549906.849876,2.811852,0.306713,-0.364198,0.308686,-0.301927,0.901972,0.000000,0.000000,0.000000,-1,-0.006892,-0.041435,0.001725,-0.004853,-0.009444,-0.001886
"2019-10-08 15:51:46.870 +0000",1570549906.869864,2.811214,0.306849,-0.364252,0.309249,-0.302057,0.901736,0.000000,0.000000,0.000000,-1,-0.006816,-0.047284,0.001277,-0.009826,-0.002906,-0.000567
"2019-10-08 15:51:46.890 +0000",1570549906.889882,2.810738,0.307079,-0.364391,0.309655,-0.302275,0.901523,0.000000,0.000000,0.000000,-1,-0.005113,-0.027124,0.008444,-0.003747,-0.000245,0.000012
"2019-10-08 15:51:46.910 +0000",1570549906.909901,2.810547,0.307279,-0.364700,0.309808,-0.302466,0.901406,0.000000,0.000000,0.000000,-1,0.000535,-0.019586,0.019617,-0.000542,-0.004312,0.001212
"2019-10-08 15:51:46.930 +0000",1570549906.929889,2.810259,0.307492,-0.365091,0.310046,-0.302669,0.901256,0.000000,0.000000,0.000000,-1,0.003567,-0.020385,0.017800,-0.000064,-0.008946,0.000416
"2019-10-08 15:51:46.950 +0000",1570549906.949908,2.809937,0.307576,-0.365466,0.310328,-0.302749,0.901132,0.000000,0.000000,0.000000,-1,0.004775,-0.037339,0.009306,0.007040,0.001480,-0.004953
"2019-10-08 15:51:46.970 +0000",1570549906.969894,2.809319,0.307593,-0.365732,0.310883,-0.302765,0.900936,0.000000,0.000000,0.000000,-1,0.003693,-0.038007,0.015174,0.011520,0.004014,0.003483
"2019-10-08 15:51:46.990 +0000",1570549906.989913,2.808782,0.307635,-0.366099,0.311363,-0.302806,0.900756,0.000000,0.000000,0.000000,-1,0.005251,-0.025643,0.016499,0.010674,0.000148,0.001374
"2019-10-08 15:51:47.010 +0000",1570549907.009902,2.808528,0.307744,-0.366532,0.311581,-0.302909,0.900646,0.000000,0.000000,0.000000,-1,0.008309,-0.014573,0.023263,0.014286,-0.000741,0.002690
"2019-10-08 15:51:47.030 +0000",1570549907.029920,2.808321,0.307756,-0.367085,0.311766,-0.302921,0.900578,0.000000,0.000000,0.000000,-1,0.004669,-0.012982,0.028533,0.013246,-0.002468,0.000621
"2019-10-08 15:51:47.050 +0000",1570549907.049938,2.808127,0.307858,-0.367555,0.311931,-0.303019,0.900488,0.000000,0.000000,0.000000,-1,-0.005468,-0.012162,0.023733,0.019169,-0.003988,-0.004798
"2019-10-08 15:51:47.070 +0000",1570549907.069926,2.807644,0.308189,-0.367923,0.312332,-0.303334,0.900243,0.000000,0.000000,0.000000,-1,-0.015637,-0.038997,0.026240,0.020401,0.002858,-0.004521
"2019-10-08 15:51:47.090 +0000",1570549907.089944,2.806815,0.308952,-0.368744,0.313003,-0.304061,0.899765,0.000000,0.000000,0.000000,-1,-0.031724,-0.049310,0.076278,0.015687,0.003371,0.004807
"2019-10-08 15:51:47.110 +0000",1570549907.109964,2.806510,0.310174,-0.369507,0.313155,-0.305224,0.899318,0.000000,0.000000,0.000000,-1,-0.060205,0.015308,0.016507,-0.003432,0.014895,0.028142
"2019-10-08 15:51:47.130 +0000",1570549907.129952,2.806843,0.311544,-0.369071,0.312718,-0.306528,0.899026,0.000000,0.000000,0.000000,-1,-0.074044,0.036821,0.011087,0.001247,0.007731,0.011710
"2019-10-08 15:51:47.150 +0000",1570549907.149970,2.806857,0.313033,-0.369073,0.312555,-0.307946,0.898599,0.000000,0.000000,0.000000,-1,-0.070260,-0.012113,0.042835,0.010077,0.018258,-0.013329
"2019-10-08 15:51:47.170 +0000",1570549907.169989,2.806435,0.314539,-0.369492,0.312781,-0.309378,0.898027,0.000000,0.000000,0.000000,-1,-0.074496,-0.027570,0.044777,-0.004782,0.014624,-0.008776
"2019-10-08 15:51:47.190 +0000",1570549907.190006,2.806014,0.315888,-0.369702,0.313021,-0.310661,0.897501,0.000000,0.000000,0.000000,-1,-0.081326,-0.031652,0.029252,-0.015093,-0.013085,-0.002069
"2019-10-08 15:51:47.210 +0000",1570549907.209995,2.805204,0.317227,-0.369367,0.313610,-0.311933,0.896854,0.000000,0.000000,0.000000,-1,-0.073279,-0.037238,-0.003726,-0.009777,-0.018053,0.004376
"2019-10-08 15:51:47.230 +0000",1570549907.230015,2.802868,0.318086,-0.368484,0.315616,-0.312749,0.895866,0.000000,0.000000,0.000000,-1,-0.062629,-0.108422,-0.031820,-0.011721,-0.028133,0.026025
"2019-10-08 15:51:47.250 +0000",1570549907.250033,2.802553,0.318986,-0.367923,0.315804,-0.313604,0.895500,0.000000,0.000000,0.000000,-1,-0.047046,-0.004108,0.008637,0.012092,0.000188,-0.024620
"2019-10-08 15:51:47.270 +0000",1570549907.270021,2.802208,0.319936,-0.367952,0.316014,-0.314505,0.895110,0.000000,0.000000,0.000000,-1,-0.041837,-0.045908,0.010764,-0.000996,-0.019311,-0.008025
"2019-10-08 15:51:47.290 +0000",1570549907.290039,2.801359,0.320906,-0.367784,0.316672,-0.315426,0.894553,0.000000,0.000000,0.000000,-1,-0.036415,-0.057429,0.001294,-0.005804,-0.013446,-0.006232
"2019-10-08 15:51:47.310 +0000",1570549907.310059,2.800348,0.321633,-0.367867,0.317499,-0.316116,0.894017,0.000000,0.000000,0.000000,-1,-0.010472,-0.066074,0.015846,-0.000604,0.005996,-0.004292
"2019-10-08 15:51:47.330 +0000",1570549907.330047,2.799162,0.321911,-0.368221,0.318529,-0.316380,0.893556,0.000000,0.000000,0.000000,-1,-0.003038,-0.052670,0.025918,-0.000658,0.011952,0.007567
"2019-10-08 15:51:47.350 +0000",1570549907.350065,2.798585,0.322328,-0.368715,0.319001,-0.316775,0.893248,0.000000,0.000000,0.000000,-1,-0.004150,-0.023735,0.029840,0.004836,-0.001386,0.004961
"2019-10-08 15:51:47.370 +0000",1570549907.370084,2.797901,0.322785,-0.368755,0.319563,-0.317209,0.892893,0.000000,0.000000,0.000000,-1,-0.026365,-0.017830,-0.010021,-0.001341,-0.012442,0.010991
"2019-10-08 15:51:47.390 +0000",1570549907.390072,2.797950,0.322785,-0.367382,0.319519,-0.317209,0.892909,0.000000,0.000000,0.000000,-1,-0.030422,0.041417,-0.071652,-0.000076,-0.004126,0.006917
"2019-10-08 15:51:47.410 +0000",1570549907.410090,2.797869,0.322891,-0.366208,0.319580,-0.317310,0.892851,0.000000,0.000000,0.000000,-1,-0.017465,-0.015566,-0.029668,0.017319,0.011081,-0.012648
"2019-10-08 15:51:47.430 +0000",1570549907.430109,2.797062,0.323009,-0.365833,0.320288,-0.317421,0.892558,0.000000,0.000000,0.000000,-1,-0.005309,-0.030904,-0.002622,0.010538,-0.003761,0.001454
"2019-10-08 15:51:47.450 +0000",1570549907.450127,2.796680,0.323223,-0.366021,0.320606,-0.317624,0.892372,0.000000,0.000000,0.000000,-1,-0.000841,-0.027725,0.014849,0.007885,-0.005283,-0.002983
"2019-10-08 15:51:47.470 +0000",1570549907.470115,2.796515,0.323427,-0.366272,0.320731,-0.317818,0.892257,0.000000,0.000000,0.000000,-1,-0.006461,-0.023584,-0.000631,0.000009,-0.009438,0.000351
"2019-10-08 15:51:47.490 +0000",1570549907.490134,2.795922,0.323397,-0.365883,0.321263,-0.317790,0.892076,0.000000,0.000000,0.000000,-1,-0.008012,-0.008252,-0.020045,0.001231,-0.003011,0.002089
"2019-10-08 15:51:47.510 +0000",1570549907.510153,2.795483,0.323489,-0.365432,0.321645,-0.317877,0.891907,0.000000,0.000000,0.000000,-1,-0.010721,-0.012825,-0.014253,0.015864,0.006582,-0.002610
"2019-10-08 15:51:47.530 +0000",1570549907.530141,2.794974,0.323700,-0.365046,0.322076,-0.318077,0.891680,0.000000,0.000000,0.000000,-1,-0.011598,-0.013644,-0.015556,0.013205,0.002082,0.001005
"2019-10-08 15:51:47.550 +0000",1570549907.550160,2.794717,0.324023,-0.364665,0.322270,-0.318383,0.891501,0.000000,0.000000,0.000000,-1,-0.016037,-0.007061,-0.013667,0.004772,-0.009926,0.000283
"2019-10-08 15:51:47.570 +0000",1570549907.570178,2.794386,0.324234,-0.364293,0.322542,-0.318583,0.891331,0.000000,0.000000,0.000000,-1,-0.015987,-0.010628,-0.009329,0.002470,-0.007467,-0.002522
"2019-10-08 15:51:47.590 +0000",1570549907.590166,2.793976,0.324289,-0.364000,0.322903,-0.318635,0.891182,0.000000,0.000000,0.000000,-1,-0.005341,-0.008160,-0.006053,-0.000973,-0.003554,0.000617
"2019-10-08 15:51:47.610 +0000",1570549907.610185,2.793727,0.324351,-0.363852,0.323117,-0.318693,0.891083,0.000000,0.000000,0.000000,-1,-0.005077,-0.007090,-0.003850,-0.000135,0.001478,-0.002671
"2019-10-08 15:51:47.630 +0000",1570549907.630204,2.793481,0.324500,-0.363723,0.323320,-0.318835,0.890960,0.000000,0.000000,0.000000,-1,-0.009070,-0.012143,-0.005595,0.006025,0.002657,-0.001845
"2019-10-08 15:51:47.650 +0000",1570549907.650222,2.793278,0.324719,-0.363571,0.323477,-0.319043,0.890828,0.000000,0.000000,0.000000,-1,-0.006426,-0.003290,0.001556,0.011286,0.002866,0.000759
"2019-10-08 15:51:47.670 +0000",1570549907.670211,2.793146,0.324797,-0.363584,0.323586,-0.319117,0.890762,0.000000,0.000000,0.000000,-1,0.000232,-0.013149,0.001852,0.008964,-0.000433,0.000443
"2019-10-08 15:51:47.690 +0000",1570549907.690232,2.792884,0.324828,-0.363576,0.323816,-0.319146,0.890668,0.000000,0.000000,0.000000,-1,-0.004726,-0.013768,0.001418,0.004095,-0.001762,0.001284
"2019-10-08 15:51:47.710 +0000",1570549907.710248,2.792542,0.324956,-0.363526,0.324107,-0.319267,0.890519,0.000000,0.000000,0.000000,-1,-0.009324,-0.013422,0.002756,0.004720,0.000206,-0.000992
"2019-10-08 15:51:47.730 +0000",1570549907.730235,2.792198,0.325072,-0.363462,0.324401,-0.319377,0.890372,0.000000,0.000000,0.000000,-1,-0.003903,-0.011920,0.006340,0.003160,0.000041,0.000772
"2019-10-08 15:51:47.750 +0000",1570549907.750255,2.792036,0.325140,-0.363577,0.324537,-0.319442,0.890299,0.000000,0.000000,0.000000,-1,0.002664,-0.004646,0.011072,0.000277,0.001739,0.001715
"2019-10-08 15:51:47.770 +0000",1570549907.770273,2.791946,0.325103,-0.363819,0.324621,-0.319406,0.890281,0.000000,0.000000,0.000000,-1,0.005662,-0.006731,0.008323,-0.000586,-0.000006,0.001259
"2019-10-08 15:51:47.790 +0000",1570549907.790262,2.792035,0.325107,-0.363996,0.324542,-0.319410,0.890309,0.000000,0.000000,0.000000,-1,-0.001241,0.005703,0.009431,0.004941,-0.000124,-0.001424
"2019-10-08 15:51:47.810 +0000",1570549907.810281,2.792217,0.325304,-0.364094,0.324358,-0.319597,0.890309,0.000000,0.000000,0.000000,-1,-0.013863,0.007843,0.008737,0.007963,-0.000456,-0.001423
"2019-10-08 15:51:47.830 +0000",1570549907.830299,2.792329,0.325600,-0.364135,0.324226,-0.319877,0.890256,0.000000,0.000000,0.000000,-1,-0.015015,0.002447,0.000962,0.005135,-0.004403,-0.001920
"2019-10-08 15:51:47.850 +0000",1570549907.850318,2.792329,0.325688,-0.364013,0.324217,-0.319961,0.890230,0.000000,0.000000,0.000000,-1,0.000779,-0.000418,-0.008700,0.002657,-0.005937,-0.000368
"2019-10-08 15:51:47.870 +0000",1570549907.870306,2.792136,0.325525,-0.363917,0.324406,-0.319806,0.890216,0.000000,0.000000,0.000000,-1,0.013589,-0.009827,-0.007248,0.005367,-0.006915,0.000317
"2019-10-08 15:51:47.890 +0000",1570549907.890324,2.792006,0.325285,-0.363858,0.324548,-0.319579,0.890246,0.000000,0.000000,0.000000,-1,0.009830,0.002697,-0.004513,0.000052,-0.004457,-0.002780
"2019-10-08 15:51:47.910 +0000",1570549907.910343,2.791998,0.325148,-0.363803,0.324570,-0.319449,0.890284,0.000000,0.000000,0.000000,-1,0.008145,0.001418,-0.003219,-0.000138,-0.000452,-0.002269
"2019-10-08 15:51:47.930 +0000",1570549907.930331,2.791922,0.325027,-0.363775,0.324651,-0.319335,0.890296,0.000000,0.000000,0.000000,-1,0.007651,-0.007327,-0.003448,-0.000203,0.000182,0.003213
"2019-10-08 15:51:47.950 +0000",1570549907.950349,2.791801,0.324854,-0.363723,0.324778,-0.319171,0.890309,0.000000,0.000000,0.000000,-1,0.008919,-0.002799,-0.005578,0.002157,0.002948,0.004024
"2019-10-08 15:51:47.970 +0000",1570549907.970356,2.791739,0.324745,-0.363679,0.324845,-0.319067,0.890321,0.000000,0.000000,0.000000,-1,0.000915,-0.000742,-0.001150,0.008468,0.005590,0.006010
"2019-10-08 15:51:47.990 +0000",1570549907.990344,2.791724,0.324771,-0.363687,0.324855,-0.319092,0.890309,0.000000,0.000000,0.000000,-1,0.000431,0.002356,0.001202,0.006657,0.001892,0.001384
"2019-10-08 15:51:48.010 +0000",1570549908.010363,2.791776,0.324767,-0.363717,0.324810,-0.319088,0.890327,0.000000,0.000000,0.000000,-1,-0.003205,-0.003868,0.000564,0.007634,-0.001499,-0.000495
"2019-10-08 15:51:48.030 +0000",1570549908.030381,2.791508,0.324963,-0.363624,0.325027,-0.319273,0.890181,0.000000,0.000000,0.000000,-1,-0.020786,-0.014423,-0.006583,0.007264,0.000258,0.004610
"2019-10-08 15:51:48.050 +0000",1570549908.050401,2.791132,0.325235,-0.363223,0.325332,-0.319531,0.889977,0.000000,0.000000,0.000000,-1,-0.020280,-0.006775,-0.014561,0.002976,-0.006213,0.001533
"2019-10-08 15:51:48.070 +0000",1570549908.070389,2.790756,0.325243,-0.362704,0.325665,-0.319539,0.889852,0.000000,0.000000,0.000000,-1,-0.000222,-0.010521,-0.031054,-0.003384,-0.016566,-0.006673
"2019-10-08 15:51:48.090 +0000",1570549908.090407,2.790314,0.324812,-0.361876,0.326106,-0.319130,0.889838,0.000000,0.000000,0.000000,-1,0.012248,-0.000803,-0.058505,-0.015925,-0.007667,-0.006735
"2019-10-08 15:51:48.110 +0000",1570549908.110426,2.789863,0.324150,-0.360689,0.326580,-0.318503,0.889889,0.000000,0.000000,0.000000,-1,0.012887,-0.008622,-0.062123,-0.000637,0.011282,-0.006115
"2019-10-08 15:51:48.130 +0000",1570549908.130414,2.789401,0.323631,-0.359789,0.327048,-0.318012,0.889892,0.000000,0.000000,0.000000,-1,0.013242,-0.008761,-0.033753,0.012643,0.008945,0.004624
"2019-10-08 15:51:48.150 +0000",1570549908.150432,2.788902,0.323345,-0.359616,0.327523,-0.317740,0.889815,0.000000,0.000000,0.000000,-1,0.041745,-0.115428,-0.007261,0.011313,0.003577,-0.044356
"2019-10-08 15:51:48.170 +0000",1570549908.170451,2.787729,0.322781,-0.359896,0.328629,-0.317205,0.889597,0.000000,0.000000,0.000000,-1,0.011046,0.002630,0.004755,-0.001710,-0.013712,0.050542
"2019-10-08 15:51:48.190 +0000",1570549908.190440,2.788040,0.322451,-0.360182,0.328389,-0.316892,0.889798,0.000000,0.000000,0.000000,-1,0.015244,0.032667,0.008163,0.009929,0.001096,-0.004575
"2019-10-08 15:51:48.210 +0000",1570549908.210458,2.788741,0.322177,-0.360426,0.327794,-0.316632,0.890109,0.000000,0.000000,0.000000,-1,0.011404,0.041142,0.011274,0.002848,-0.000766,0.005276
"2019-10-08 15:51:48.230 +0000",1570549908.230477,2.789000,0.322092,-0.360660,0.327573,-0.316551,0.890220,0.000000,0.000000,0.000000,-1,0.009721,0.001945,0.012708,0.009051,0.006233,-0.009406
"2019-10-08 15:51:48.250 +0000",1570549908.250494,2.788933,0.321944,-0.360912,0.327650,-0.316411,0.890241,0.000000,0.000000,0.000000,-1,0.019973,-0.001961,0.004227,0.001315,0.000142,-0.001478
"2019-10-08 15:51:48.270 +0000",1570549908.270484,2.789125,0.321513,-0.360956,0.327525,-0.316003,0.890432,0.000000,0.000000,0.000000,-1,0.020290,0.027212,-0.011465,-0.002376,-0.000159,0.002543
"2019-10-08 15:51:48.291 +0000",1570549908.290502,2.789374,0.321131,-0.360670,0.327346,-0.315640,0.890627,0.000000,0.000000,0.000000,-1,0.000725,-0.018177,-0.032653,0.007554,0.018307,-0.019625
"2019-10-08 15:51:48.311 +0000",1570549908.310520,2.788897,0.320851,-0.360321,0.327800,-0.315374,0.890554,0.000000,0.000000,0.000000,-1,0.017852,0.014922,0.007659,0.001698,-0.029489,0.019419
"2019-10-08 15:51:48.331 +0000",1570549908.330508,2.789381,0.320560,-0.360540,0.327401,-0.315099,0.890798,0.000000,0.000000,0.000000,-1,0.009805,0.011965,0.000976,0.022010,0.010136,-0.007299
"2019-10-08 15:51:48.351 +0000",1570549908.350528,2.789726,0.320367,-0.360586,0.327115,-0.314915,0.890968,0.000000,0.000000,0.000000,-1,0.008826,0.022205,-0.008389,0.009662,0.001331,-0.005242
"2019-10-08 15:51:48.371 +0000",1570549908.370546,2.790106,0.320071,-0.360417,0.326808,-0.314634,0.891180,0.000000,0.000000,0.000000,-1,0.013161,0.022247,-0.011539,0.008565,-0.004275,-0.009207
"2019-10-08 15:51:48.391 +0000",1570549908.390535,2.790451,0.319713,-0.360451,0.326540,-0.314294,0.891399,0.000000,0.000000,0.000000,-1,0.027592,0.016724,0.000591,0.004881,-0.004233,-0.007838
"2019-10-08 15:51:48.411 +0000",1570549908.410553,2.790770,0.319108,-0.360703,0.326321,-0.313720,0.891681,0.000000,0.000000,0.000000,-1,0.037349,0.024021,0.005489,0.003620,-0.002488,0.005108
"2019-10-08 15:51:48.431 +0000",1570549908.430573,2.791275,0.318359,-0.360985,0.325950,-0.313009,0.892066,0.000000,0.000000,0.000000,-1,0.041412,0.028667,-0.003249,-0.001991,-0.009394,0.005044
"2019-10-08 15:51:48.451 +0000",1570549908.450590,2.791636,0.317679,-0.360980,0.325702,-0.312362,0.892384,0.000000,0.000000,0.000000,-1,0.028856,0.015702,-0.021713,-0.009860,-0.011490,0.000378
"2019-10-08 15:51:48.471 +0000",1570549908.470579,2.791591,0.317103,-0.360607,0.325803,-0.311815,0.892537,0.000000,0.000000,0.000000,-1,0.016801,-0.004811,-0.031333,-0.013151,-0.005049,-0.004705
"2019-10-08 15:51:48.491 +0000",1570549908.490597,2.791083,0.316694,-0.360033,0.326300,-0.311427,0.892492,0.000000,0.000000,0.000000,-1,0.007890,-0.020003,-0.034264,-0.016608,0.002909,-0.002553
"2019-10-08 15:51:48.511 +0000",1570549908.510616,2.790704,0.316392,-0.359436,0.326671,-0.311139,0.892456,0.000000,0.000000,0.000000,-1,0.005829,0.001056,-0.033580,-0.017787,0.005796,0.011108
"2019-10-08 15:51:48.531 +0000",1570549908.530603,2.790614,0.316038,-0.358879,0.326789,-0.310803,0.892530,0.000000,0.000000,0.000000,-1,0.014868,0.006973,-0.036718,-0.001503,0.011319,0.014208
"2019-10-08 15:51:48.551 +0000",1570549908.550623,2.790261,0.315713,-0.358169,0.327139,-0.310494,0.892509,0.000000,0.000000,0.000000,-1,0.000501,-0.027452,-0.038168,0.003824,0.009438,-0.005028
"2019-10-08 15:51:48.571 +0000",1570549908.570642,2.789007,0.315490,-0.357260,0.328282,-0.310282,0.892164,0.000000,0.000000,0.000000,-1,-0.005171,-0.088789,-0.058016,0.015315,0.010249,-0.007825
"2019-10-08 15:51:48.591 +0000",1570549908.590630,2.786207,0.315203,-0.355895,0.330809,-0.310010,0.891324,0.000000,0.000000,0.000000,-1,-0.014279,-0.138714,-0.065550,0.023393,0.004910,-0.012647
"2019-10-08 15:51:48.611 +0000",1570549908.610648,2.783743,0.315174,-0.354711,0.333008,-0.309981,0.890515,0.000000,0.000000,0.000000,-1,-0.027023,-0.086053,-0.037644,0.013244,-0.007142,0.008014
"2019-10-08 15:51:48.631 +0000",1570549908.630666,2.782108,0.315281,-0.353773,0.334452,-0.310084,0.889938,0.000000,0.000000,0.000000,-1,-0.023786,-0.059122,-0.047458,0.020620,0.003886,0.001862
"2019-10-08 15:51:48.651 +0000",1570549908.650654,2.780709,0.315322,-0.352791,0.335692,-0.310123,0.889458,0.000000,0.000000,0.000000,-1,-0.017743,-0.037109,-0.031181,0.014940,-0.006131,0.001183
"2019-10-08 15:51:48.671 +0000",1570549908.670673,2.779839,0.315427,-0.352188,0.336455,-0.310222,0.889135,0.000000,0.000000,0.000000,-1,-0.014742,-0.019742,-0.014629,0.007860,-0.003178,-0.005071
"2019-10-08 15:51:48.691 +0000",1570549908.690692,2.779975,0.315659,-0.352034,0.336307,-0.310443,0.889113,0.000000,0.000000,0.000000,-1,-0.012249,0.043326,0.010321,0.006298,-0.005750,0.008134
"2019-10-08 15:51:48.711 +0000",1570549908.710711,2.781226,0.315833,-0.352205,0.335177,-0.310609,0.889483,0.000000,0.000000,0.000000,-1,-0.000478,0.078272,0.014641,0.009062,-0.005676,0.004362
"2019-10-08 15:51:48.731 +0000",1570549908.730699,2.782721,0.315810,-0.352415,0.333849,-0.310587,0.889989,0.000000,0.000000,0.000000,-1,0.011397,0.065687,-0.000017,0.010557,-0.012579,-0.004842
"2019-10-08 15:51:48.751 +0000",1570549908.750717,2.783453,0.315504,-0.352236,0.333230,-0.310295,0.890323,0.000000,0.000000,0.000000,-1,0.014350,0.018072,-0.025179,0.008887,-0.003319,-0.010058
"2019-10-08 15:51:48.771 +0000",1570549908.770737,2.782855,0.315141,-0.351632,0.333802,-0.309950,0.890229,0.000000,0.000000,0.000000,-1,-0.001945,-0.067169,-0.041453,0.004058,0.000014,-0.015793
"2019-10-08 15:51:48.791 +0000",1570549908.790725,2.780194,0.315156,-0.350640,0.336168,-0.309964,0.889333,0.000000,0.000000,0.000000,-1,-0.023369,-0.152020,-0.039959,-0.002351,-0.018481,-0.001745
"2019-10-08 15:51:48.811 +0000",1570549908.810744,2.777475,0.315432,-0.350005,0.338554,-0.310227,0.888335,0.000000,0.000000,0.000000,-1,-0.005899,-0.080902,-0.008694,-0.017509,-0.024917,0.028245
"2019-10-08 15:51:48.831 +0000",1570549908.830762,2.776937,0.315108,-0.350119,0.339068,-0.309919,0.888247,0.000000,0.000000,0.000000,-1,0.033163,-0.002598,0.004363,-0.016329,-0.005114,0.013487
"2019-10-08 15:51:48.851 +0000",1570549908.850750,2.776923,0.314788,-0.350270,0.339116,-0.309615,0.888335,0.000000,0.000000,0.000000,-1,0.003825,0.005292,-0.005884,-0.000417,0.022475,0.018587
"2019-10-08 15:51:48.871 +0000",1570549908.870769,2.776941,0.314687,-0.350434,0.339112,-0.309518,0.888370,0.000000,0.000000,0.000000,-1,0.032569,0.001183,0.012697,0.002166,-0.003638,-0.022205
"2019-10-08 15:51:48.891 +0000",1570549908.890787,2.777526,0.313944,-0.351279,0.338673,-0.308812,0.888783,0.000000,0.000000,0.000000,-1,0.062978,0.028528,0.031035,-0.013295,-0.017070,-0.012853
"2019-10-08 15:51:48.911 +0000",1570549908.910807,2.778746,0.313116,-0.352215,0.337680,-0.308024,0.889434,0.000000,0.000000,0.000000,-1,0.049724,0.047602,0.017283,0.003797,0.016658,-0.005294
"2019-10-08 15:51:48.931 +0000",1570549908.930795,2.779987,0.312450,-0.352819,0.336648,-0.307391,0.890045,0.000000,0.000000,0.000000,-1,0.020910,0.043297,0.021264,0.002585,0.012316,0.004990
"2019-10-08 15:51:48.951 +0000",1570549908.950813,2.781078,0.312201,-0.353189,0.335703,-0.307154,0.890483,0.000000,0.000000,0.000000,-1,0.016432,0.074654,0.000533,0.002371,0.025538,0.014531
"2019-10-08 15:51:48.971 +0000",1570549908.970841,2.782925,0.312003,-0.353036,0.334080,-0.306965,0.891159,0.000000,0.000000,0.000000,-1,0.014774,0.102404,-0.017700,0.007732,-0.014690,0.014420
"2019-10-08 15:51:48.991 +0000",1570549908.990830,2.784046,0.311728,-0.352689,0.333110,-0.306704,0.891611,0.000000,0.000000,0.000000,-1,-0.006695,0.013930,-0.017287,-0.004786,-0.006559,-0.029108
"2019-10-08 15:51:49.011 +0000",1570549909.010847,2.783265,0.311742,-0.352261,0.333804,-0.306717,0.891347,0.000000,0.000000,0.000000,-1,-0.015864,-0.063287,-0.017239,-0.004306,0.014695,-0.020665
"2019-10-08 15:51:49.031 +0000",1570549909.030867,2.781981,0.311676,-0.351773,0.334956,-0.306655,0.890936,0.000000,0.000000,0.000000,-1,-0.006853,-0.033286,-0.022744,0.013417,0.000304,0.008874
"2019-10-08 15:51:49.051 +0000",1570549909.050855,2.781623,0.311415,-0.351288,0.335303,-0.306405,0.890892,0.000000,0.000000,0.000000,-1,0.008364,0.009528,-0.027192,0.024316,-0.013999,0.011391
"2019-10-08 15:51:49.071 +0000",1570549909.070873,2.781870,0.311246,-0.350804,0.335102,-0.306245,0.891023,0.000000,0.000000,0.000000,-1,-0.001132,0.022773,-0.026012,0.021649,-0.003340,0.000274
"2019-10-08 15:51:49.091 +0000",1570549909.090892,2.782069,0.311214,-0.350281,0.334928,-0.306215,0.891098,0.000000,0.000000,0.000000,-1,-0.009903,0.011887,-0.021456,0.017962,0.000490,-0.010269
"2019-10-08 15:51:49.111 +0000",1570549909.110910,2.782004,0.311227,-0.349875,0.334984,-0.306227,0.891073,0.000000,0.000000,0.000000,-1,-0.003011,-0.006370,-0.011400,0.013634,-0.001482,-0.012182
"2019-10-08 15:51:49.131 +0000",1570549909.130899,2.781538,0.311159,-0.349736,0.335407,-0.306162,0.890936,0.000000,0.000000,0.000000,-1,0.005839,-0.021580,0.000068,0.006848,-0.006277,-0.007223
"2019-10-08 15:51:49.151 +0000",1570549909.150919,2.781140,0.311043,-0.349853,0.335773,-0.306052,0.890836,0.000000,0.000000,0.000000,-1,0.011163,-0.006229,0.010891,0.002605,0.003867,0.002398
"2019-10-08 15:51:49.171 +0000",1570549909.170937,2.781146,0.310965,-0.350154,0.335777,-0.305978,0.890860,0.000000,0.000000,0.000000,-1,0.008151,0.008249,0.016123,0.005288,0.002419,0.005090
"2019-10-08 15:51:49.191 +0000",1570549909.190925,2.781351,0.310987,-0.350479,0.335592,-0.305998,0.890923,0.000000,0.000000,0.000000,-1,0.007162,0.006024,0.014843,0.006067,-0.003664,-0.000267
"2019-10-08 15:51:49.211 +0000",1570549909.210944,2.781472,0.311017,-0.350786,0.335481,-0.306027,0.890955,0.000000,0.000000,0.000000,-1,0.005169,0.000364,0.010898,0.006697,-0.001484,0.000448
"2019-10-08 15:51:49.231 +0000",1570549909.230962,2.781517,0.310930,-0.350993,0.335450,-0.305945,0.890995,0.000000,0.000000,0.000000,-1,0.009546,0.001158,0.006401,0.008392,-0.001459,0.001492
"2019-10-08 15:51:49.251 +0000",1570549909.250951,2.781676,0.310719,-0.351171,0.335331,-0.305743,0.891108,0.000000,0.000000,0.000000,-1,0.016038,0.010578,0.003592,0.009868,-0.005094,0.002645
"2019-10-08 15:51:49.271 +0000",1570549909.270968,2.781997,0.310430,-0.351389,0.335076,-0.305468,0.891298,0.000000,0.000000,0.000000,-1,0.020466,0.012671,0.007019,0.011405,-0.009122,-0.001986
"2019-10-08 15:51:49.291 +0000",1570549909.290987,2.782293,0.310077,-0.351713,0.334850,-0.305132,0.891499,0.000000,0.000000,0.000000,-1,0.028671,0.013905,0.005737,0.006733,-0.010359,-0.006840
"2019-10-08 15:51:49.311 +0000",1570549909.311030,2.782725,0.309565,-0.352062,0.334519,-0.304644,0.891789,0.000000,0.000000,0.000000,-1,0.032193,0.013567,0.012932,0.003295,-0.007017,-0.012074
"2019-10-08 15:51:49.331 +0000",1570549909.330994,2.782896,0.309139,-0.352588,0.334413,-0.304238,0.891969,0.000000,0.000000,0.000000,-1,0.027535,-0.007083,0.015835,-0.004960,0.005608,-0.004868
"2019-10-08 15:51:49.351 +0000",1570549909.351014,2.782805,0.308849,-0.353048,0.334525,-0.303963,0.892020,0.000000,0.000000,0.000000,-1,0.022957,-0.011737,0.013279,-0.005301,0.006203,0.002374
"2019-10-08 15:51:49.371 +0000",1570549909.371032,2.782754,0.308608,-0.353465,0.334596,-0.303733,0.892072,0.000000,0.000000,0.000000,-1,0.017621,-0.001521,0.010980,-0.004777,0.008307,0.004230
"2019-10-08 15:51:49.391 +0000",1570549909.391019,2.782837,0.308438,-0.353765,0.334540,-0.303571,0.892148,0.000000,0.000000,0.000000,-1,0.014142,0.002814,0.008265,-0.003730,0.008359,0.006091
"2019-10-08 15:51:49.411 +0000",1570549909.411040,2.782958,0.308244,-0.353989,0.334453,-0.303386,0.892244,0.000000,0.000000,0.000000,-1,0.008452,0.001055,0.004540,-0.002621,0.006114,0.003692
"2019-10-08 15:51:49.431 +0000",1570549909.431057,2.782993,0.308124,-0.354058,0.334434,-0.303271,0.892289,0.000000,0.000000,0.000000,-1,0.002459,-0.001829,-0.001335,0.000176,0.005847,-0.002137
"2019-10-08 15:51:49.451 +0000",1570549909.451046,2.782994,0.308133,-0.353950,0.334432,-0.303280,0.892287,0.000000,0.000000,0.000000,-1,-0.006428,-0.000971,-0.006673,0.002970,0.004468,-0.000075
"2019-10-08 15:51:49.471 +0000",1570549909.471064,2.783022,0.308211,-0.353769,0.334399,-0.303355,0.892274,0.000000,0.000000,0.000000,-1,-0.012107,0.005329,-0.005602,0.007078,0.002848,0.001006
"2019-10-08 15:51:49.491 +0000",1570549909.491082,2.783045,0.308353,-0.353572,0.334364,-0.303490,0.892241,0.000000,0.000000,0.000000,-1,-0.010581,0.000911,-0.006679,0.014010,0.002037,-0.002761
"2019-10-08 15:51:49.511 +0000",1570549909.511103,2.783020,0.308515,-0.353395,0.334369,-0.303644,0.892187,0.000000,0.000000,0.000000,-1,-0.010870,0.000259,-0.001625,0.014081,-0.001470,-0.001241
"2019-10-08 15:51:49.531 +0000",1570549909.531090,2.783042,0.308700,-0.353321,0.334329,-0.303821,0.892142,0.000000,0.000000,0.000000,-1,-0.011772,0.006014,0.002108,0.012076,-0.003674,-0.004553
"2019-10-08 15:51:49.551 +0000",1570549909.551110,2.783120,0.308922,-0.353280,0.334236,-0.304032,0.892105,0.000000,0.000000,0.000000,-1,-0.010146,0.005498,0.003074,0.009148,-0.002685,-0.002899
"2019-10-08 15:51:49.571 +0000",1570549909.571127,2.783133,0.309088,-0.353299,0.334207,-0.304190,0.892062,0.000000,0.000000,0.000000,-1,-0.003394,0.000029,0.005443,0.006979,-0.007898,-0.003527
"2019-10-08 15:51:49.591 +0000",1570549909.591115,2.783039,0.309049,-0.353469,0.334294,-0.304153,0.892042,0.000000,0.000000,0.000000,-1,0.012244,-0.007853,0.009804,0.007563,-0.011032,0.001208
"2019-10-08 15:51:49.611 +0000",1570549909.611134,2.782816,0.308719,-0.353811,0.334529,-0.303838,0.892061,0.000000,0.000000,0.000000,-1,0.030995,-0.017867,0.010081,0.006459,-0.010051,-0.004823
"2019-10-08 15:51:49.631 +0000",1570549909.631153,2.782515,0.308065,-0.354230,0.334867,-0.303215,0.892146,0.000000,0.000000,0.000000,-1,0.040980,-0.017415,0.004067,0.007494,-0.004417,-0.005168
"2019-10-08 15:51:49.651 +0000",1570549909.651141,2.782300,0.307330,-0.354573,0.335137,-0.302515,0.892283,0.000000,0.000000,0.000000,-1,0.041214,-0.008851,0.001143,-0.004082,0.001886,-0.000132
"2019-10-08 15:51:49.671 +0000",1570549909.671161,2.782185,0.306830,-0.355000,0.335293,-0.302038,0.892386,0.000000,0.000000,0.000000,-1,0.024444,-0.013099,0.018484,-0.002133,0.006536,-0.001227
"2019-10-08 15:51:49.691 +0000",1570549909.691179,2.782096,0.306679,-0.355520,0.335388,-0.301894,0.892398,0.000000,0.000000,0.000000,-1,0.020526,0.000560,0.015795,0.000900,-0.001359,0.006131
"2019-10-08 15:51:49.711 +0000",1570549909.711197,2.782321,0.306344,-0.355808,0.335223,-0.301575,0.892568,0.000000,0.000000,0.000000,-1,0.021448,0.014773,-0.001830,0.002545,-0.002975,0.003138
"2019-10-08 15:51:49.731 +0000",1570549909.731185,2.782526,0.305927,-0.355771,0.335084,-0.301177,0.892755,0.000000,0.000000,0.000000,-1,0.011982,0.004510,-0.013991,0.001510,-0.001374,-0.000207
"2019-10-08 15:51:49.751 +0000",1570549909.751204,2.782367,0.305628,-0.355574,0.335258,-0.300893,0.892786,0.000000,0.000000,0.000000,-1,0.009087,-0.014940,-0.012929,0.003152,-0.001277,-0.007593
"2019-10-08 15:51:49.771 +0000",1570549909.771223,2.781963,0.305491,-0.355408,0.335633,-0.300761,0.892689,0.000000,0.000000,0.000000,-1,-0.000529,-0.018311,-0.007803,-0.000703,0.005443,-0.003452
"2019-10-08 15:51:49.791 +0000",1570549909.791211,2.781681,0.305565,-0.355285,0.335877,-0.300832,0.892573,0.000000,0.000000,0.000000,-1,-0.008206,-0.004682,-0.003333,0.000106,0.007741,0.003087
"2019-10-08 15:51:49.811 +0000",1570549909.811229,2.781636,0.305707,-0.355179,0.335902,-0.300968,0.892518,0.000000,0.000000,0.000000,-1,-0.008306,0.002748,-0.000619,0.004949,0.009540,0.003677
"2019-10-08 15:51:49.831 +0000",1570549909.831248,2.781637,0.305820,-0.355130,0.335889,-0.301075,0.892486,0.000000,0.000000,0.000000,-1,-0.001556,0.001337,0.000649,0.009646,0.005665,0.005661
"2019-10-08 15:51:49.851 +0000",1570549909.851237,2.781658,0.305852,-0.355182,0.335867,-0.301105,0.892485,0.000000,0.000000,0.000000,-1,-0.002343,0.000264,0.005660,0.012735,0.002048,-0.001066
"2019-10-08 15:51:49.871 +0000",1570549909.871255,2.781593,0.305944,-0.355250,0.335915,-0.301193,0.892437,0.000000,0.000000,0.000000,-1,-0.009250,-0.006441,0.005884,0.006019,-0.001526,-0.004177
"2019-10-08 15:51:49.891 +0000",1570549909.891274,2.781400,0.306056,-0.355314,0.336075,-0.301300,0.892340,0.000000,0.000000,0.000000,-1,-0.001462,-0.011857,0.005991,0.004058,-0.003250,-0.003760
"2019-10-08 15:51:49.911 +0000",1570549909.911262,2.781144,0.306095,-0.355421,0.336300,-0.301338,0.892243,0.000000,0.000000,0.000000,-1,-0.000280,-0.013909,0.005908,0.006962,-0.003701,-0.000733
"2019-10-08 15:51:49.931 +0000",1570549909.931281,2.780907,0.306149,-0.355604,0.336506,-0.301389,0.892148,0.000000,0.000000,0.000000,-1,0.002513,-0.010980,0.012369,0.004940,-0.002231,0.000872
"2019-10-08 15:51:49.951 +0000",1570549909.951299,2.780847,0.306169,-0.355949,0.336557,-0.301408,0.892123,0.000000,0.000000,0.000000,-1,0.007661,-0.006055,0.017958,0.003821,-0.004882,-0.003207
"2019-10-08 15:51:49.971 +0000",1570549909.971300,2.780875,0.306188,-0.356299,0.336530,-0.301426,0.892126,0.000000,0.000000,0.000000,-1,0.005029,-0.002760,0.014463,0.005053,-0.004726,-0.004965
"2019-10-08 15:51:49.991 +0000",1570549909.991288,2.780879,0.306297,-0.356550,0.336515,-0.301530,0.892097,0.000000,0.000000,0.000000,-1,-0.001681,-0.005151,0.012383,0.007143,-0.003768,-0.002800
"2019-10-08 15:51:50.011 +0000",1570549910.011307,2.780765,0.306398,-0.356776,0.336606,-0.301626,0.892030,0.000000,0.000000,0.000000,-1,0.001269,-0.010703,0.010384,0.007525,-0.005274,-0.001283
"2019-10-08 15:51:50.031 +0000",1570549910.031326,2.780559,0.306429,-0.356987,0.336787,-0.301656,0.891952,0.000000,0.000000,0.000000,-1,0.003135,-0.009367,0.008641,0.006155,-0.001124,-0.001312
"2019-10-08 15:51:50.051 +0000",1570549910.051316,2.780538,0.306427,-0.357203,0.336805,-0.301654,0.891946,0.000000,0.000000,0.000000,-1,0.005321,0.003648,0.010083,0.007998,0.004123,0.003455
"2019-10-08 15:51:50.071 +0000",1570549910.071332,2.780737,0.306436,-0.357430,0.336626,-0.301662,0.892010,0.000000,0.000000,0.000000,-1,0.002043,0.010050,0.009896,0.007215,0.001873,-0.001782
"2019-10-08 15:51:50.091 +0000",1570549910.091352,2.780883,0.306481,-0.357611,0.336492,-0.301705,0.892047,0.000000,0.000000,0.000000,-1,-0.003128,0.001249,0.007306,0.005320,0.000619,-0.000628
"2019-10-08 15:51:50.111 +0000",1570549910.111341,2.780856,0.306616,-0.357690,0.336501,-0.301834,0.891999,0.000000,0.000000,0.000000,-1,-0.008348,0.000531,0.006213,0.002701,-0.003326,-0.000901
"2019-10-08 15:51:50.131 +0000",1570549910.131358,2.780861,0.306813,-0.357722,0.336476,-0.302022,0.891945,0.000000,0.000000,0.000000,-1,-0.009295,0.004239,0.004597,0.003460,0.000737,-0.001031
"2019-10-08 15:51:50.151 +0000",1570549910.151378,2.781009,0.306966,-0.357724,0.336328,-0.302167,0.891952,0.000000,0.000000,0.000000,-1,-0.005281,0.011604,0.002944,0.002478,0.002759,0.000535
"2019-10-08 15:51:50.171 +0000",1570549910.171396,2.781295,0.307031,-0.357708,0.336066,-0.302230,0.892030,0.000000,0.000000,0.000000,-1,-0.004269,0.015815,-0.001847,0.001886,0.002837,0.001525
"2019-10-08 15:51:50.191 +0000",1570549910.191383,2.781456,0.307119,-0.357540,0.335912,-0.302314,0.892059,0.000000,0.000000,0.000000,-1,-0.008777,0.005090,-0.009588,0.002985,-0.001672,0.001953
"2019-10-08 15:51:50.211 +0000",1570549910.211402,2.781330,0.307219,-0.357272,0.336015,-0.302409,0.891988,0.000000,0.000000,0.000000,-1,-0.008327,-0.002371,-0.008595,0.005340,-0.002919,-0.001867
"2019-10-08 15:51:50.231 +0000",1570549910.231421,2.781210,0.307267,-0.357116,0.336116,-0.302455,0.891935,0.000000,0.000000,0.000000,-1,-0.005697,-0.001785,-0.003172,0.005284,-0.000600,-0.003781
"2019-10-08 15:51:50.251 +0000",1570549910.251410,2.781140,0.307346,-0.356987,0.336171,-0.302530,0.891888,0.000000,0.000000,0.000000,-1,-0.004796,0.000225,-0.004910,0.007381,0.001260,-0.003201
"2019-10-08 15:51:50.271 +0000",1570549910.271428,2.781161,0.307380,-0.356889,0.336148,-0.302562,0.891886,0.000000,0.000000,0.000000,-1,-0.001561,0.006830,-0.001058,0.007907,0.001522,-0.000529
"2019-10-08 15:51:50.291 +0000",1570549910.291446,2.781316,0.307376,-0.356907,0.336010,-0.302558,0.891939,0.000000,0.000000,0.000000,-1,0.003659,0.009412,0.001568,0.008457,0.001609,-0.002641
"2019-10-08 15:51:50.311 +0000",1570549910.311437,2.781449,0.307353,-0.356997,0.335894,-0.302536,0.891991,0.000000,0.000000,0.000000,-1,0.002577,0.002522,0.004522,0.009458,-0.000640,-0.002266
"2019-10-08 15:51:50.331 +0000",1570549910.331454,2.781393,0.307386,-0.357056,0.335940,-0.302568,0.891962,0.000000,0.000000,0.000000,-1,-0.001337,-0.007412,0.003429,0.005063,-0.001097,-0.000910
"2019-10-08 15:51:50.351 +0000",1570549910.351474,2.781220,0.307405,-0.357106,0.336093,-0.302586,0.891899,0.000000,0.000000,0.000000,-1,0.002149,-0.006965,0.002590,0.002362,0.000691,0.000618
"2019-10-08 15:51:50.371 +0000",1570549910.371493,2.781160,0.307341,-0.357191,0.336153,-0.302526,0.891896,0.000000,0.000000,0.000000,-1,0.005967,0.002929,0.004372,0.009031,0.000829,0.001460
"2019-10-08 15:51:50.391 +0000",1570549910.391480,2.781233,0.307285,-0.357272,0.336094,-0.302472,0.891937,0.000000,0.000000,0.000000,-1,0.002742,0.004282,0.003323,0.008861,0.000607,-0.001434
"2019-10-08 15:51:50.411 +0000",1570549910.411500,2.781210,0.307300,-0.357330,0.336113,-0.302486,0.891925,0.000000,0.000000,0.000000,-1,-0.001249,-0.002294,0.002560,0.008141,0.001858,-0.003802
"2019-10-08 15:51:50.432 +0000",1570549910.431516,2.781135,0.307387,-0.357343,0.336170,-0.302569,0.891875,0.000000,0.000000,0.000000,-1,-0.003618,-0.002524,0.002150,0.005688,-0.000455,-0.001418
"2019-10-08 15:51:50.452 +0000",1570549910.451504,2.781125,0.307490,-0.357314,0.336168,-0.302667,0.891843,0.000000,0.000000,0.000000,-1,-0.005611,0.002756,-0.000427,0.006086,-0.000632,-0.000348
"2019-10-08 15:51:50.472 +0000",1570549910.471524,2.781155,0.307543,-0.357267,0.336136,-0.302718,0.891838,0.000000,0.000000,0.000000,-1,-0.001673,0.006087,-0.000323,0.007507,0.000182,0.000160
"2019-10-08 15:51:50.492 +0000",1570549910.491542,2.781290,0.307595,-0.357256,0.336010,-0.302767,0.891868,0.000000,0.000000,0.000000,-1,-0.003773,0.008143,0.001942,0.005359,0.001116,-0.001228
"2019-10-08 15:51:50.512 +0000",1570549910.511530,2.781357,0.307731,-0.357266,0.335936,-0.302897,0.891852,0.000000,0.000000,0.000000,-1,-0.008368,0.002092,0.005155,0.005159,0.000666,-0.001166
"2019-10-08 15:51:50.532 +0000",1570549910.531549,2.781269,0.307941,-0.357368,0.335992,-0.303097,0.891764,0.000000,0.000000,0.000000,-1,-0.008128,-0.008248,0.009041,0.006004,-0.002598,-0.003275
"2019-10-08 15:51:50.552 +0000",1570549910.551568,2.781155,0.308053,-0.357500,0.336081,-0.303204,0.891693,0.000000,0.000000,0.000000,-1,-0.003385,-0.004746,0.006403,0.003579,-0.003284,-0.000778
"2019-10-08 15:51:50.572 +0000",1570549910.571587,2.781079,0.308161,-0.357615,0.336137,-0.303307,0.891637,0.000000,0.000000,0.000000,-1,-0.005936,-0.005809,0.008617,0.003035,0.003105,-0.000829
"2019-10-08 15:51:50.592 +0000",1570549910.591574,2.780928,0.308426,-0.357818,0.336244,-0.303560,0.891511,0.000000,0.000000,0.000000,-1,-0.011526,-0.016314,0.019078,0.008544,0.000184,0.003585
"2019-10-08 15:51:50.612 +0000",1570549910.611593,2.780571,0.308908,-0.358099,0.336511,-0.304019,0.891254,0.000000,0.000000,0.000000,-1,-0.025096,-0.021903,0.021968,0.008033,-0.001905,0.003323
"2019-10-08 15:51:50.632 +0000",1570549910.631613,2.780197,0.309604,-0.358391,0.336769,-0.304681,0.890930,0.000000,0.000000,0.000000,-1,-0.025844,-0.023735,0.028568,0.008614,0.000070,-0.004700
"2019-10-08 15:51:50.652 +0000",1570549910.651600,2.779837,0.310333,-0.358679,0.337011,-0.305375,0.890600,0.000000,0.000000,0.000000,-1,-0.034733,-0.014855,0.025731,0.003687,0.005815,0.004205
"2019-10-08 15:51:50.672 +0000",1570549910.671620,2.779671,0.311096,-0.358960,0.337076,-0.306102,0.890326,0.000000,0.000000,0.000000,-1,-0.026885,-0.010800,0.026191,0.004904,-0.000752,-0.000510
"2019-10-08 15:51:50.692 +0000",1570549910.691638,2.779416,0.311750,-0.359204,0.337233,-0.306725,0.890053,0.000000,0.000000,0.000000,-1,-0.027778,-0.021185,0.018366,0.004244,-0.003120,-0.005181
"2019-10-08 15:51:50.712 +0000",1570549910.711625,2.778920,0.312331,-0.359258,0.337610,-0.307278,0.889719,0.000000,0.000000,0.000000,-1,-0.026288,-0.020332,0.011610,0.004751,-0.000660,-0.004771
"2019-10-08 15:51:50.732 +0000",1570549910.731646,2.778546,0.312789,-0.359306,0.337893,-0.307713,0.889461,0.000000,0.000000,0.000000,-1,-0.017605,-0.012886,0.010989,0.002134,0.000005,-0.004467
"2019-10-08 15:51:50.752 +0000",1570549910.751665,2.778388,0.313220,-0.359385,0.337987,-0.308124,0.889283,0.000000,0.000000,0.000000,-1,-0.019928,-0.007291,0.013493,0.002666,-0.001736,-0.001481
"2019-10-08 15:51:50.772 +0000",1570549910.771683,2.778194,0.313651,-0.359452,0.338111,-0.308534,0.889093,0.000000,0.000000,0.000000,-1,-0.016116,-0.011196,0.009112,0.006554,-0.004561,-0.003046
"2019-10-08 15:51:50.792 +0000",1570549910.791671,2.778016,0.313978,-0.359495,0.338234,-0.308845,0.888939,0.000000,0.000000,0.000000,-1,-0.012328,-0.006439,0.008421,0.007500,-0.004250,0.000206
"2019-10-08 15:51:50.812 +0000",1570549910.811689,2.777976,0.314211,-0.359558,0.338244,-0.309067,0.888858,0.000000,0.000000,0.000000,-1,-0.006367,0.001729,0.005294,0.007902,-0.002182,-0.000461
"2019-10-08 15:51:50.832 +0000",1570549910.831709,2.778085,0.314346,-0.359605,0.338132,-0.309194,0.888856,0.000000,0.000000,0.000000,-1,-0.003832,0.008666,0.001703,0.007007,0.001150,-0.001008
"2019-10-08 15:51:50.852 +0000",1570549910.851696,2.778217,0.314482,-0.359693,0.338000,-0.309324,0.888861,0.000000,0.000000,0.000000,-1,-0.002933,0.000798,0.009702,0.009183,0.000257,-0.003196
"2019-10-08 15:51:50.872 +0000",1570549910.871714,2.778239,0.314585,-0.359901,0.337969,-0.309422,0.888839,0.000000,0.000000,0.000000,-1,-0.000578,-0.000590,0.011879,0.005765,-0.000957,-0.002273
"2019-10-08 15:51:50.892 +0000",1570549910.891734,2.778241,0.314736,-0.360101,0.337951,-0.309566,0.888796,0.000000,0.000000,0.000000,-1,-0.004438,-0.004034,0.010997,0.007157,0.000529,-0.002276
"2019-10-08 15:51:50.912 +0000",1570549910.911722,2.778234,0.314910,-0.360238,0.337938,-0.309731,0.888743,0.000000,0.000000,0.000000,-1,-0.007359,0.000389,0.009092,0.003447,-0.000206,-0.001307
"2019-10-08 15:51:50.932 +0000",1570549910.931740,2.778222,0.315088,-0.360343,0.337928,-0.309900,0.888688,0.000000,0.000000,0.000000,-1,-0.007832,-0.000091,0.007233,0.008080,0.002832,-0.000993
"2019-10-08 15:51:50.952 +0000",1570549910.951760,2.778197,0.315264,-0.360431,0.337931,-0.310067,0.888628,0.000000,0.000000,0.000000,-1,-0.006955,0.002214,0.007617,0.006307,0.000894,0.000043
"2019-10-08 15:51:50.972 +0000",1570549910.971759,2.778236,0.315433,-0.360520,0.337879,-0.310228,0.888593,0.000000,0.000000,0.000000,-1,-0.007051,0.001203,0.004895,0.003491,-0.001586,-0.001248
"2019-10-08 15:51:50.992 +0000",1570549910.991748,2.778233,0.315645,-0.360537,0.337857,-0.310430,0.888530,0.000000,0.000000,0.000000,-1,-0.012361,-0.001121,0.005829,0.003238,-0.001109,-0.000850
"2019-10-08 15:51:51.012 +0000",1570549911.011767,2.778167,0.315860,-0.360541,0.337893,-0.310634,0.888445,0.000000,0.000000,0.000000,-1,-0.010206,-0.000870,0.002244,0.003446,-0.002263,-0.004061
"2019-10-08 15:51:51.032 +0000",1570549911.031784,2.778111,0.316031,-0.360544,0.337923,-0.310796,0.888377,0.000000,0.000000,0.000000,-1,-0.007112,-0.001711,0.005611,0.005369,-0.001948,-0.002634
"2019-10-08 15:51:51.052 +0000",1570549911.051773,2.778038,0.316170,-0.360646,0.337973,-0.310929,0.888312,0.000000,0.000000,0.000000,-1,-0.002815,-0.004297,0.008662,0.003611,0.000092,-0.001501
"2019-10-08 15:51:51.072 +0000",1570549911.071793,2.777994,0.316258,-0.360832,0.338002,-0.311013,0.888271,0.000000,0.000000,0.000000,-1,0.001829,-0.003661,0.010178,0.003825,-0.002525,-0.001522
"2019-10-08 15:51:51.092 +0000",1570549911.091812,2.778005,0.316337,-0.361071,0.337984,-0.311088,0.888252,0.000000,0.000000,0.000000,-1,0.000157,-0.001174,0.012459,0.004072,-0.000543,-0.004020
"2019-10-08 15:51:51.112 +0000",1570549911.111800,2.778003,0.316427,-0.361310,0.337975,-0.311173,0.888225,0.000000,0.000000,0.000000,-1,0.000337,-0.006546,0.011371,0.007072,0.001663,-0.002864
"2019-10-08 15:51:51.132 +0000",1570549911.131819,2.777905,0.316520,-0.361513,0.338053,-0.311261,0.888165,0.000000,0.000000,0.000000,-1,-0.000685,-0.005647,0.010543,0.004751,-0.001956,-0.000118
"2019-10-08 15:51:51.152 +0000",1570549911.151838,2.777888,0.316594,-0.361707,0.338059,-0.311332,0.888138,0.000000,0.000000,0.000000,-1,0.002758,-0.002823,0.010494,0.007613,-0.000741,-0.001190
"2019-10-08 15:51:51.172 +0000",1570549911.171826,2.777873,0.316641,-0.361893,0.338067,-0.311376,0.888119,0.000000,0.000000,0.000000,-1,0.002078,-0.005218,0.010321,0.006583,-0.001093,-0.001126
"2019-10-08 15:51:51.192 +0000",1570549911.191845,2.777770,0.316712,-0.362035,0.338151,-0.311444,0.888064,0.000000,0.000000,0.000000,-1,-0.001142,-0.003269,0.005506,0.007293,-0.000262,-0.000139
"2019-10-08 15:51:51.212 +0000",1570549911.211863,2.777881,0.316639,-0.362022,0.338060,-0.311374,0.888122,0.000000,0.000000,0.000000,-1,0.007817,0.026401,-0.007129,0.018095,-0.001934,0.010620
"2019-10-08 15:51:51.232 +0000",1570549911.231881,2.778212,0.316536,-0.361903,0.337777,-0.311277,0.888264,0.000000,0.000000,0.000000,-1,-0.000785,0.018521,-0.009100,0.009192,-0.004290,-0.007038
"2019-10-08 15:51:51.252 +0000",1570549911.251869,2.778304,0.316592,-0.361821,0.337690,-0.311329,0.888279,0.000000,0.000000,0.000000,-1,-0.012657,-0.003295,0.000997,0.002459,0.002614,-0.014881
"2019-10-08 15:51:51.272 +0000",1570549911.271888,2.778093,0.316800,-0.361793,0.337855,-0.311527,0.888147,0.000000,0.000000,0.000000,-1,-0.009293,-0.009429,0.000502,0.006155,0.003467,-0.003870
"2019-10-08 15:51:51.292 +0000",1570549911.291907,2.777945,0.316853,-0.361702,0.337980,-0.311578,0.888081,0.000000,0.000000,0.000000,-1,0.000381,0.005306,-0.005457,0.010210,-0.003790,0.002788
"2019-10-08 15:51:51.312 +0000",1570549911.311895,2.778080,0.316775,-0.361551,0.337869,-0.311503,0.888150,0.000000,0.000000,0.000000,-1,0.002343,0.019707,-0.009210,0.005973,0.001246,0.005939
"2019-10-08 15:51:51.332 +0000",1570549911.331916,2.778419,0.316749,-0.361353,0.337571,-0.311479,0.888272,0.000000,0.000000,0.000000,-1,-0.007016,0.018869,-0.008525,0.004455,0.002595,-0.004971
"2019-10-08 15:51:51.352 +0000",1570549911.351933,2.778550,0.316819,-0.361127,0.337447,-0.311546,0.888295,0.000000,0.000000,0.000000,-1,-0.009388,0.005393,-0.008450,0.004381,0.001091,-0.007710
"2019-10-08 15:51:51.372 +0000",1570549911.371920,2.778504,0.316914,-0.360865,0.337477,-0.311636,0.888252,0.000000,0.000000,0.000000,-1,-0.009210,0.006535,-0.011083,0.002153,-0.000056,0.000038
"2019-10-08 15:51:51.392 +0000",1570549911.391939,2.778636,0.316966,-0.360566,0.337354,-0.311685,0.888282,0.000000,0.000000,0.000000,-1,-0.003110,0.016601,-0.012574,0.004122,-0.007254,0.000466
"2019-10-08 15:51:51.412 +0000",1570549911.411958,2.778916,0.316841,-0.360286,0.337119,-0.311566,0.888413,0.000000,0.000000,0.000000,-1,0.006096,0.019222,-0.014050,0.003686,-0.007190,-0.002473
"2019-10-08 15:51:51.432 +0000",1570549911.431977,2.779181,0.316655,-0.360057,0.336904,-0.311389,0.888556,0.000000,0.000000,0.000000,-1,0.005585,0.012951,-0.012443,0.004008,-0.000210,-0.002585
"2019-10-08 15:51:51.452 +0000",1570549911.451965,2.779273,0.316531,-0.359938,0.336836,-0.311272,0.888624,0.000000,0.000000,0.000000,-1,0.002691,0.002988,-0.003704,0.004152,0.002220,-0.002363
"2019-10-08 15:51:51.472 +0000",1570549911.471985,2.779233,0.316561,-0.359925,0.336868,-0.311301,0.888601,0.000000,0.000000,0.000000,-1,-0.002580,-0.004968,-0.000388,0.006592,0.000143,-0.000753
"2019-10-08 15:51:51.492 +0000",1570549911.492003,2.779181,0.316640,-0.359877,0.336906,-0.311375,0.888561,0.000000,0.000000,0.000000,-1,-0.003013,0.003727,-0.002327,0.009316,-0.002651,-0.000347
"2019-10-08 15:51:51.512 +0000",1570549911.511991,2.779261,0.316535,-0.359849,0.336846,-0.311276,0.888618,0.000000,0.000000,0.000000,-1,0.008942,0.009105,-0.004512,0.009254,-0.002506,-0.000938
"2019-10-08 15:51:51.532 +0000",1570549911.532011,2.779578,0.316330,-0.359721,0.336587,-0.311081,0.888785,0.000000,0.000000,0.000000,-1,0.004821,0.021049,-0.008512,0.009483,0.001709,-0.001608
"2019-10-08 15:51:51.552 +0000",1570549911.552028,2.779673,0.316177,-0.359567,0.336520,-0.310936,0.888861,0.000000,0.000000,0.000000,-1,0.003437,-0.003549,-0.009639,0.012266,0.004936,-0.006964
"2019-10-08 15:51:51.572 +0000",1570549911.572017,2.779506,0.316055,-0.359395,0.336681,-0.310819,0.888840,0.000000,0.000000,0.000000,-1,0.004066,-0.003217,-0.009146,0.008106,0.001218,-0.000168
"2019-10-08 15:51:51.592 +0000",1570549911.592037,2.779434,0.315912,-0.359222,0.336761,-0.310683,0.888858,0.000000,0.000000,0.000000,-1,0.003958,0.007497,-0.010978,0.005097,-0.000230,-0.000354
"2019-10-08 15:51:51.612 +0000",1570549911.612056,2.779518,0.315759,-0.358995,0.336703,-0.310538,0.888930,0.000000,0.000000,0.000000,-1,0.001517,0.010445,-0.012563,0.007306,-0.001458,-0.002074
"2019-10-08 15:51:51.632 +0000",1570549911.632074,2.779588,0.315646,-0.358734,0.336653,-0.310431,0.888987,0.000000,0.000000,0.000000,-1,-0.000906,0.010100,-0.012282,0.007753,-0.000055,-0.002665
"2019-10-08 15:51:51.652 +0000",1570549911.652061,2.779704,0.315544,-0.358509,0.336562,-0.310334,0.889055,0.000000,0.000000,0.000000,-1,0.001553,0.011456,-0.009476,0.008211,0.001221,-0.003862
"2019-10-08 15:51:51.672 +0000",1570549911.672080,2.779827,0.315466,-0.358325,0.336461,-0.310260,0.889120,0.000000,0.000000,0.000000,-1,0.000064,0.010306,-0.010682,0.005702,-0.003873,-0.002981
"2019-10-08 15:51:51.692 +0000",1570549911.692101,2.779943,0.315301,-0.358131,0.336376,-0.310102,0.889207,0.000000,0.000000,0.000000,-1,0.007832,0.008547,-0.010678,0.005177,-0.000429,-0.004472
"2019-10-08 15:51:51.712 +0000",1570549911.712089,2.780021,0.315129,-0.357955,0.336325,-0.309939,0.889282,0.000000,0.000000,0.000000,-1,0.006347,0.005892,-0.010131,0.004831,0.002169,-0.003098
"2019-10-08 15:51:51.732 +0000",1570549911.732106,2.780058,0.314930,-0.357844,0.336314,-0.309750,0.889352,0.000000,0.000000,0.000000,-1,0.010283,0.004139,-0.007175,0.007284,-0.002170,-0.002329
"2019-10-08 15:51:51.752 +0000",1570549911.752125,2.780140,0.314748,-0.357792,0.336261,-0.309576,0.889433,0.000000,0.000000,0.000000,-1,0.007222,0.009815,-0.003273,0.006253,-0.000696,-0.002897
"2019-10-08 15:51:51.772 +0000",1570549911.772113,2.780276,0.314599,-0.357802,0.336156,-0.309436,0.889522,0.000000,0.000000,0.000000,-1,0.004956,0.006696,-0.003903,0.007075,0.002032,-0.003185
"2019-10-08 15:51:51.792 +0000",1570549911.792133,2.780299,0.314443,-0.357751,0.336153,-0.309287,0.889575,0.000000,0.000000,0.000000,-1,0.007468,0.001568,-0.006352,0.006269,0.001029,-0.003985
"2019-10-08 15:51:51.812 +0000",1570549911.812153,2.780318,0.314235,-0.357638,0.336159,-0.309089,0.889641,0.000000,0.000000,0.000000,-1,0.010905,0.005517,-0.011388,0.005089,-0.000665,0.001457
"2019-10-08 15:51:51.832 +0000",1570549911.832170,2.780325,0.313956,-0.357466,0.336183,-0.308823,0.889724,0.000000,0.000000,0.000000,-1,0.010353,0.008139,-0.011707,0.008208,0.000138,-0.000351
"2019-10-08 15:51:51.852 +0000",1570549911.852160,2.780391,0.313706,-0.357245,0.336152,-0.308585,0.889819,0.000000,0.000000,0.000000,-1,0.008085,0.009034,-0.014235,0.009048,0.001075,-0.003848
"2019-10-08 15:51:51.872 +0000",1570549911.872177,2.780463,0.313509,-0.357048,0.336109,-0.308398,0.889900,0.000000,0.000000,0.000000,-1,0.004041,0.007394,-0.010163,0.010266,0.000232,-0.004051
"2019-10-08 15:51:51.892 +0000",1570549911.892195,2.780505,0.313410,-0.356857,0.336083,-0.308304,0.889942,0.000000,0.000000,0.000000,-1,0.002958,0.004667,-0.009499,0.009712,-0.000396,-0.002460
"2019-10-08 15:51:51.912 +0000",1570549911.912184,2.780496,0.313281,-0.356693,0.336104,-0.308182,0.889976,0.000000,0.000000,0.000000,-1,0.004688,0.002183,-0.010934,0.009034,-0.001678,-0.003548
"2019-10-08 15:51:51.932 +0000",1570549911.932202,2.780503,0.313117,-0.356546,0.336116,-0.308025,0.890026,0.000000,0.000000,0.000000,-1,0.005218,0.009156,-0.007343,0.004979,-0.000095,-0.000561
"2019-10-08 15:51:51.952 +0000",1570549911.952221,2.780637,0.312924,-0.356447,0.336017,-0.307842,0.890127,0.000000,0.000000,0.000000,-1,0.006321,0.011951,-0.006642,0.007321,0.001293,-0.002401
"2019-10-08 15:51:51.972 +0000",1570549911.972191,2.780862,0.312761,-0.356384,0.335835,-0.307687,0.890249,0.000000,0.000000,0.000000,-1,0.005873,0.014620,-0.005668,0.007640,0.001687,-0.003179
"2019-10-08 15:51:51.992 +0000",1570549911.992209,2.781069,0.312623,-0.356319,0.335666,-0.307555,0.890358,0.000000,0.000000,0.000000,-1,0.006059,0.010286,-0.007018,0.007321,-0.001893,-0.003594
"2019-10-08 15:51:52.012 +0000",1570549912.012229,2.781058,0.312470,-0.356201,0.335692,-0.307410,0.890399,0.000000,0.000000,0.000000,-1,0.006615,-0.003157,-0.008936,0.006745,-0.002328,-0.000460
"2019-10-08 15:51:52.032 +0000",1570549912.032247,2.780952,0.312311,-0.356052,0.335804,-0.307259,0.890409,0.000000,0.000000,0.000000,-1,0.003221,0.000058,-0.008931,0.006008,0.000145,-0.002347
"2019-10-08 15:51:52.052 +0000",1570549912.052236,2.780936,0.312157,-0.355900,0.335835,-0.307112,0.890448,0.000000,0.000000,0.000000,-1,0.004416,0.003539,-0.009182,0.008312,0.001051,-0.001822
"2019-10-08 15:51:52.072 +0000",1570549912.072254,2.781019,0.312037,-0.355741,0.335774,-0.306998,0.890510,0.000000,0.000000,0.000000,-1,0.001213,0.008243,-0.007766,0.007259,-0.000985,-0.002357
"2019-10-08 15:51:52.092 +0000",1570549912.092273,2.781048,0.311911,-0.355579,0.335762,-0.306878,0.890556,0.000000,0.000000,0.000000,-1,0.004240,0.001507,-0.009697,0.009315,-0.003730,-0.001839
"2019-10-08 15:51:52.112 +0000",1570549912.112261,2.780995,0.311771,-0.355376,0.335824,-0.306745,0.890578,0.000000,0.000000,0.000000,-1,0.004826,0.002204,-0.010781,0.006797,-0.001452,-0.002196
"2019-10-08 15:51:52.132 +0000",1570549912.132280,2.780976,0.311658,-0.355197,0.335853,-0.306637,0.890605,0.000000,0.000000,0.000000,-1,0.001983,0.004099,-0.006081,0.007271,0.000744,-0.003001
"2019-10-08 15:51:52.152 +0000",1570549912.152299,2.781032,0.311582,-0.355135,0.335811,-0.306565,0.890645,0.000000,0.000000,0.000000,-1,0.004376,0.004692,-0.001460,0.006535,0.001328,-0.003240
"2019-10-08 15:51:52.172 +0000",1570549912.172287,2.781117,0.311517,-0.355153,0.335743,-0.306503,0.890692,0.000000,0.000000,0.000000,-1,0.005076,0.003939,0.000361,0.007702,0.001083,-0.002127
"2019-10-08 15:51:52.192 +0000",1570549912.192306,2.781114,0.311441,-0.355181,0.335753,-0.306431,0.890713,0.000000,0.000000,0.000000,-1,0.004639,0.000213,-0.001000,0.006776,-0.002086,0.000446
"2019-10-08 15:51:52.212 +0000",1570549912.212325,2.781073,0.311347,-0.355197,0.335801,-0.306341,0.890726,0.000000,0.000000,0.000000,-1,0.006039,-0.002300,-0.000214,0.006256,-0.001276,-0.003183
"2019-10-08 15:51:52.232 +0000",1570549912.232343,2.780959,0.311225,-0.355255,0.335915,-0.306225,0.890723,0.000000,0.000000,0.000000,-1,0.006816,-0.008212,0.001840,0.003593,-0.002201,-0.005515
"2019-10-08 15:51:52.252 +0000",1570549912.252332,2.780808,0.311115,-0.355385,0.336062,-0.306120,0.890704,0.000000,0.000000,0.000000,-1,0.008962,-0.008729,0.006342,0.000837,0.002913,-0.002459
"2019-10-08 15:51:52.272 +0000",1570549912.272351,2.780627,0.311052,-0.355617,0.336230,-0.306060,0.890661,0.000000,0.000000,0.000000,-1,0.004409,-0.016750,0.012948,0.006361,0.000884,-0.001516
"2019-10-08 15:51:52.292 +0000",1570549912.292369,2.780351,0.311078,-0.355995,0.336472,-0.306086,0.890561,0.000000,0.000000,0.000000,-1,0.006162,-0.016747,0.020707,0.009643,-0.000891,0.001712
"2019-10-08 15:51:52.312 +0000",1570549912.312357,2.780362,0.311144,-0.356394,0.336455,-0.306148,0.890545,0.000000,0.000000,0.000000,-1,0.005546,0.006648,0.015592,0.013017,-0.000020,0.002353
"2019-10-08 15:51:52.332 +0000",1570549912.332376,2.780630,0.311046,-0.356607,0.336228,-0.306055,0.890663,0.000000,0.000000,0.000000,-1,0.008729,0.007321,0.004034,0.015274,0.002618,-0.002632
"2019-10-08 15:51:52.352 +0000",1570549912.352395,2.780689,0.310981,-0.356602,0.336182,-0.305992,0.890702,0.000000,0.000000,0.000000,-1,-0.000774,0.005557,-0.007724,0.011001,0.001961,-0.005570
"2019-10-08 15:51:52.372 +0000",1570549912.372383,2.780850,0.310807,-0.356387,0.336058,-0.305827,0.890806,0.000000,0.000000,0.000000,-1,0.007336,0.007618,-0.012759,0.007586,-0.006261,-0.004926
"2019-10-08 15:51:52.392 +0000",1570549912.392403,2.780756,0.310638,-0.356135,0.336159,-0.305666,0.890823,0.000000,0.000000,0.000000,-1,-0.001165,-0.007775,-0.009833,0.000022,0.006640,-0.009338
"2019-10-08 15:51:52.412 +0000",1570549912.412421,2.780628,0.310642,-0.355961,0.336273,-0.305670,0.890778,0.000000,0.000000,0.000000,-1,-0.003812,0.003355,-0.007368,0.006042,0.004431,-0.000428
"2019-10-08 15:51:52.432 +0000",1570549912.432441,2.780632,0.310651,-0.355759,0.336268,-0.305678,0.890777,0.000000,0.000000,0.000000,-1,-0.004330,0.007907,-0.007959,0.010930,0.001006,-0.001861
"2019-10-08 15:51:52.452 +0000",1570549912.452428,2.780782,0.310644,-0.355524,0.336135,-0.305672,0.890830,0.000000,0.000000,0.000000,-1,0.001685,0.012602,-0.013094,0.008622,-0.004371,0.003259
"2019-10-08 15:51:52.472 +0000",1570549912.472446,2.780924,0.310505,-0.355246,0.336024,-0.305540,0.890917,0.000000,0.000000,0.000000,-1,0.000012,0.011524,-0.013662,0.005178,-0.000857,-0.001284
"2019-10-08 15:51:52.492 +0000",1570549912.492465,2.780934,0.310417,-0.355020,0.336024,-0.305456,0.890946,0.000000,0.000000,0.000000,-1,-0.000061,0.001926,-0.007007,0.001530,0.001974,-0.004914
"2019-10-08 15:51:52.512 +0000",1570549912.512454,2.780925,0.310415,-0.354917,0.336033,-0.305454,0.890943,0.000000,0.000000,0.000000,-1,-0.002466,0.005442,-0.001613,0.003994,0.002048,-0.007688
"2019-10-08 15:51:52.532 +0000",1570549912.532472,2.780983,0.310526,-0.354931,0.335969,-0.305560,0.890931,0.000000,0.000000,0.000000,-1,-0.007850,0.004630,0.004443,0.005706,0.000094,-0.003419
"2019-10-08 15:51:52.552 +0000",1570549912.552491,2.781000,0.310655,-0.354984,0.335941,-0.305682,0.890900,0.000000,0.000000,0.000000,-1,-0.000937,-0.001974,0.003604,0.009778,-0.001828,0.000214
"2019-10-08 15:51:52.572 +0000",1570549912.572479,2.780957,0.310638,-0.355023,0.335980,-0.305666,0.890891,0.000000,0.000000,0.000000,-1,0.001061,-0.002689,-0.000083,0.009738,0.000444,-0.000266
"2019-10-08 15:51:52.592 +0000",1570549912.592499,2.780947,0.310572,-0.355016,0.335996,-0.305604,0.890906,0.000000,0.000000,0.000000,-1,0.002444,0.003796,-0.002214,0.012179,0.002656,0.000726
"2019-10-08 15:51:52.613 +0000",1570549912.612517,2.781034,0.310579,-0.354985,0.335918,-0.305610,0.890933,0.000000,0.000000,0.000000,-1,-0.003316,0.003689,-0.000865,0.008579,0.001014,-0.005786
"2019-10-08 15:51:52.633 +0000",1570549912.632506,2.781022,0.310611,-0.354894,0.335925,-0.305641,0.890919,0.000000,0.000000,0.000000,-1,-0.002932,0.000474,-0.004535,0.008740,0.001579,-0.002171
"2019-10-08 15:51:52.653 +0000",1570549912.652525,2.780963,0.310612,-0.354777,0.335978,-0.305641,0.890899,0.000000,0.000000,0.000000,-1,-0.001734,0.004164,-0.004458,0.006704,0.000465,0.000290
"2019-10-08 15:51:52.673 +0000",1570549912.672542,2.781006,0.310608,-0.354663,0.335940,-0.305637,0.890915,0.000000,0.000000,0.000000,-1,-0.001252,0.007537,-0.004637,0.007108,0.001484,0.001327
"2019-10-08 15:51:52.693 +0000",1570549912.692561,2.781103,0.310613,-0.354561,0.335853,-0.305642,0.890946,0.000000,0.000000,0.000000,-1,-0.002456,0.007606,-0.003201,0.007805,0.003106,-0.001298
"2019-10-08 15:51:52.713 +0000",1570549912.712550,2.781160,0.310681,-0.354475,0.335795,-0.305707,0.890946,0.000000,0.000000,0.000000,-1,-0.004089,0.004953,-0.002745,0.009222,-0.001117,-0.000199
"2019-10-08 15:51:52.733 +0000",1570549912.732569,2.781220,0.310713,-0.354423,0.335738,-0.305737,0.890957,0.000000,0.000000,0.000000,-1,-0.003320,0.004207,-0.000345,0.008958,-0.001987,-0.003842
"2019-10-08 15:51:52.753 +0000",1570549912.752588,2.781232,0.310716,-0.354388,0.335727,-0.305741,0.890960,0.000000,0.000000,0.000000,-1,0.000542,0.001918,-0.000986,0.006970,-0.004181,-0.003707
"2019-10-08 15:51:52.773 +0000",1570549912.772576,2.781241,0.310706,-0.354340,0.335719,-0.305731,0.890966,0.000000,0.000000,0.000000,-1,-0.000650,0.004137,-0.002333,0.004979,-0.002436,-0.002889
"2019-10-08 15:51:52.793 +0000",1570549912.792594,2.781309,0.310702,-0.354296,0.335660,-0.305727,0.890990,0.000000,0.000000,0.000000,-1,-0.000539,0.008379,0.000375,0.006290,0.002337,0.000077
"2019-10-08 15:51:52.813 +0000",1570549912.812613,2.781393,0.310678,-0.354285,0.335588,-0.305705,0.891025,0.000000,0.000000,0.000000,-1,0.002393,0.002130,-0.000938,0.005797,-0.001058,-0.002933
"2019-10-08 15:51:52.833 +0000",1570549912.832602,2.781344,0.310629,-0.354252,0.335636,-0.305657,0.891023,0.000000,0.000000,0.000000,-1,0.004129,-0.006433,-0.002053,0.005123,-0.002769,0.000396
"2019-10-08 15:51:52.853 +0000",1570549912.852619,2.781103,0.310533,-0.354282,0.335861,-0.305566,0.890970,0.000000,0.000000,0.000000,-1,0.005443,-0.015681,0.001382,0.002426,-0.002921,-0.003824
"2019-10-08 15:51:52.873 +0000",1570549912.872639,2.780845,0.310436,-0.354412,0.336102,-0.305473,0.890910,0.000000,0.000000,0.000000,-1,0.007220,-0.013159,0.007192,0.000660,-0.004387,-0.002406
"2019-10-08 15:51:52.893 +0000",1570549912.892657,2.780574,0.310333,-0.354724,0.336355,-0.305376,0.890848,0.000000,0.000000,0.000000,-1,0.010446,-0.020323,0.014760,-0.001119,0.000169,-0.003412
"2019-10-08 15:51:52.913 +0000",1570549912.912646,2.780255,0.310231,-0.355182,0.336650,-0.305279,0.890770,0.000000,0.000000,0.000000,-1,0.013917,-0.021489,0.021285,0.006948,-0.001057,-0.000466
"2019-10-08 15:51:52.933 +0000",1570549912.932665,2.780077,0.310094,-0.355712,0.336823,-0.305148,0.890749,0.000000,0.000000,0.000000,-1,0.014592,-0.009682,0.019562,0.008819,-0.004209,0.003812
"2019-10-08 15:51:52.953 +0000",1570549912.952683,2.780073,0.309918,-0.356169,0.336846,-0.304980,0.890799,0.000000,0.000000,0.000000,-1,0.014924,-0.005221,0.015495,0.009773,-0.002148,0.001719
"2019-10-08 15:51:52.973 +0000",1570549912.972653,2.780052,0.309758,-0.356542,0.336882,-0.304828,0.890837,0.000000,0.000000,0.000000,-1,0.011823,-0.007804,0.011446,0.012895,-0.000195,-0.006361
"2019-10-08 15:51:52.993 +0000",1570549912.992672,2.779913,0.309684,-0.356779,0.337013,-0.304757,0.890812,0.000000,0.000000,0.000000,-1,0.003235,-0.010415,0.006779,0.008400,0.001657,-0.007236
"2019-10-08 15:51:53.013 +0000",1570549913.012692,2.779707,0.309675,-0.356887,0.337197,-0.304749,0.890745,0.000000,0.000000,0.000000,-1,0.001759,-0.009857,0.003146,0.011863,0.000275,-0.004377
"2019-10-08 15:51:53.033 +0000",1570549913.032680,2.779573,0.309674,-0.356935,0.337317,-0.304748,0.890699,0.000000,0.000000,0.000000,-1,0.000326,-0.006856,0.000632,0.013131,0.003311,-0.000593
"2019-10-08 15:51:53.053 +0000",1570549913.052698,2.779428,0.309670,-0.356916,0.337447,-0.304744,0.890652,0.000000,0.000000,0.000000,-1,-0.001614,-0.002658,-0.003623,0.013826,0.001338,0.002598
"2019-10-08 15:51:53.073 +0000",1570549913.072718,2.779345,0.309708,-0.356789,0.337517,-0.304780,0.890613,0.000000,0.000000,0.000000,-1,-0.004806,0.000630,-0.006543,0.010796,-0.001250,0.000668
"2019-10-08 15:51:53.093 +0000",1570549913.092735,2.779316,0.309787,-0.356604,0.337534,-0.304856,0.890581,0.000000,0.000000,0.000000,-1,-0.005924,0.006240,-0.005773,0.010367,0.000550,-0.008821
"2019-10-08 15:51:53.113 +0000",1570549913.112724,2.779417,0.309913,-0.356480,0.337430,-0.304975,0.890579,0.000000,0.000000,0.000000,-1,-0.008111,0.008785,0.001170,0.010546,0.002241,-0.005340
"2019-10-08 15:51:53.133 +0000",1570549913.132744,2.779578,0.310089,-0.356536,0.337268,-0.305144,0.890583,0.000000,0.000000,0.000000,-1,-0.006994,0.006639,0.010104,0.011090,0.002852,-0.000950
"2019-10-08 15:51:53.153 +0000",1570549913.152762,2.779703,0.310303,-0.356759,0.337133,-0.305347,0.890564,0.000000,0.000000,0.000000,-1,-0.005033,0.002796,0.015835,0.011347,-0.001507,-0.001206
"2019-10-08 15:51:53.173 +0000",1570549913.172750,2.779785,0.310488,-0.356991,0.337040,-0.305523,0.890539,0.000000,0.000000,0.000000,-1,-0.001254,0.005827,0.011417,0.009304,-0.004765,-0.000448
"2019-10-08 15:51:53.193 +0000",1570549913.192769,2.780027,0.310531,-0.357121,0.336821,-0.305564,0.890608,0.000000,0.000000,0.000000,-1,0.001331,0.016387,0.002599,0.004519,-0.000787,0.000643
"2019-10-08 15:51:53.213 +0000",1570549913.212787,2.780273,0.310568,-0.357104,0.336597,-0.305599,0.890680,0.000000,0.000000,0.000000,-1,-0.007002,0.008286,-0.002994,0.008617,0.001980,-0.001703
"2019-10-08 15:51:53.233 +0000",1570549913.232777,2.780205,0.310686,-0.356875,0.336645,-0.305712,0.890624,0.000000,0.000000,0.000000,-1,-0.007171,-0.003969,-0.011632,0.012263,-0.000197,-0.001922
"2019-10-08 15:51:53.253 +0000",1570549913.252796,2.780028,0.310751,-0.356525,0.336796,-0.305774,0.890545,0.000000,0.000000,0.000000,-1,-0.008056,0.000696,-0.015534,0.004498,-0.000302,-0.003552
"2019-10-08 15:51:53.273 +0000",1570549913.272815,2.780012,0.310748,-0.356169,0.336810,-0.305771,0.890541,0.000000,0.000000,0.000000,-1,-0.005095,0.009978,-0.015400,0.001553,0.001648,-0.002449
"2019-10-08 15:51:53.293 +0000",1570549913.292832,2.780021,0.310759,-0.355857,0.336801,-0.305781,0.890540,0.000000,0.000000,0.000000,-1,-0.005529,0.001893,-0.010249,0.002844,0.000392,-0.004753
"2019-10-08 15:51:53.313 +0000",1570549913.312821,2.779935,0.310789,-0.355649,0.336874,-0.305810,0.890503,0.000000,0.000000,0.000000,-1,-0.004925,-0.001807,-0.005006,0.007639,0.000756,-0.002747
"2019-10-08 15:51:53.333 +0000",1570549913.332839,2.779883,0.310825,-0.355550,0.336917,-0.305844,0.890475,0.000000,0.000000,0.000000,-1,-0.001817,0.001340,-0.001603,0.007459,-0.000690,0.000455
"2019-10-08 15:51:53.353 +0000",1570549913.352858,2.779975,0.310872,-0.355547,0.336830,-0.305889,0.890493,0.000000,0.000000,0.000000,-1,-0.000371,0.008884,0.002250,0.008766,-0.003055,-0.002859
"2019-10-08 15:51:53.373 +0000",1570549913.372846,2.780092,0.310867,-0.355615,0.336726,-0.305884,0.890534,0.000000,0.000000,0.000000,-1,0.002099,0.003099,0.003066,0.008382,-0.001916,-0.005906
"2019-10-08 15:51:53.393 +0000",1570549913.392865,2.780107,0.310874,-0.355712,0.336712,-0.305890,0.890537,0.000000,0.000000,0.000000,-1,0.001780,-0.002163,0.005034,0.007343,0.000181,-0.002384
"2019-10-08 15:51:53.413 +0000",1570549913.412884,2.780109,0.310873,-0.355851,0.336710,-0.305890,0.890538,0.000000,0.000000,0.000000,-1,0.002066,-0.000934,0.006940,0.007375,0.000150,-0.001377
"2019-10-08 15:51:53.433 +0000",1570549913.432872,2.780162,0.310843,-0.355991,0.336666,-0.305861,0.890564,0.000000,0.000000,0.000000,-1,0.003020,0.003442,0.004343,0.009494,0.000075,-0.001450
"2019-10-08 15:51:53.453 +0000",1570549913.452891,2.780264,0.310835,-0.356038,0.336576,-0.305854,0.890601,0.000000,0.000000,0.000000,-1,0.001296,0.006657,0.000852,0.012514,0.000068,-0.002097
"2019-10-08 15:51:53.473 +0000",1570549913.472910,2.780330,0.310809,-0.355983,0.336521,-0.305829,0.890630,0.000000,0.000000,0.000000,-1,-0.000201,0.002896,-0.006346,0.012493,-0.000278,-0.002966
"2019-10-08 15:51:53.493 +0000",1570549913.492929,2.780243,0.310764,-0.355775,0.336602,-0.305786,0.890614,0.000000,0.000000,0.000000,-1,0.000198,-0.000776,-0.013245,0.012076,-0.000977,-0.000081
"2019-10-08 15:51:53.513 +0000",1570549913.512917,2.780183,0.310664,-0.355518,0.336667,-0.305691,0.890622,0.000000,0.000000,0.000000,-1,0.001883,0.005852,-0.012077,0.008395,0.000302,-0.000409
"2019-10-08 15:51:53.533 +0000",1570549913.532936,2.780307,0.310581,-0.355296,0.336566,-0.305612,0.890688,0.000000,0.000000,0.000000,-1,-0.000486,0.013901,-0.008681,0.007703,0.000619,-0.002993
"2019-10-08 15:51:53.553 +0000",1570549913.552955,2.780467,0.310573,-0.355166,0.336424,-0.305604,0.890744,0.000000,0.000000,0.000000,-1,-0.002276,0.004345,-0.003531,0.008531,0.000825,-0.005414
"2019-10-08 15:51:53.573 +0000",1570549913.572943,2.780467,0.310616,-0.355114,0.336419,-0.305645,0.890732,0.000000,0.000000,0.000000,-1,-0.003332,-0.000829,0.000401,0.006782,-0.001361,-0.005447
"2019-10-08 15:51:53.593 +0000",1570549913.592961,2.780452,0.310643,-0.355145,0.336429,-0.305671,0.890719,0.000000,0.000000,0.000000,-1,0.000564,0.001120,0.004567,0.001797,-0.001824,-0.002108
"2019-10-08 15:51:53.613 +0000",1570549913.612981,2.780521,0.310615,-0.355250,0.336371,-0.305644,0.890750,0.000000,0.000000,0.000000,-1,0.003533,0.003825,0.005590,0.003930,-0.002171,-0.000919
"2019-10-08 15:51:53.633 +0000",1570549913.632969,2.780537,0.310555,-0.355398,0.336364,-0.305587,0.890773,0.000000,0.000000,0.000000,-1,0.007457,-0.003368,0.006925,0.009584,-0.000535,-0.002223
"2019-10-08 15:51:53.653 +0000",1570549913.652987,2.780510,0.310506,-0.355576,0.336393,-0.305541,0.890777,0.000000,0.000000,0.000000,-1,0.003314,-0.003888,0.006689,0.009722,-0.000505,-0.002228
"2019-10-08 15:51:53.673 +0000",1570549913.673006,2.780444,0.310502,-0.355674,0.336452,-0.305537,0.890757,0.000000,0.000000,0.000000,-1,0.001321,-0.004818,0.003425,0.007023,0.001033,-0.004435
"2019-10-08 15:51:53.693 +0000",1570549913.693024,2.780317,0.310491,-0.355686,0.336566,-0.305526,0.890717,0.000000,0.000000,0.000000,-1,0.000721,-0.004085,-0.000460,0.006650,-0.000473,0.000106
"2019-10-08 15:51:53.713 +0000",1570549913.713013,2.780256,0.310467,-0.355680,0.336623,-0.305504,0.890703,0.000000,0.000000,0.000000,-1,0.003032,0.001793,-0.001017,0.007981,0.000984,0.000394
"2019-10-08 15:51:53.733 +0000",1570549913.733032,2.780264,0.310439,-0.355678,0.336619,-0.305477,0.890714,0.000000,0.000000,0.000000,-1,-0.000742,0.003983,0.000122,0.013708,0.000118,-0.000867
"2019-10-08 15:51:53.753 +0000",1570549913.753051,2.780282,0.310451,-0.355692,0.336602,-0.305488,0.890716,0.000000,0.000000,0.000000,-1,-0.000688,0.000015,0.003122,0.012641,0.002327,-0.005371
"2019-10-08 15:51:53.773 +0000",1570549913.773038,2.780255,0.310460,-0.355697,0.336625,-0.305497,0.890705,0.000000,0.000000,0.000000,-1,0.001444,0.000930,-0.002020,0.013869,-0.001800,-0.001118
"2019-10-08 15:51:53.793 +0000",1570549913.793058,2.780268,0.310440,-0.355647,0.336615,-0.305478,0.890715,0.000000,0.000000,0.000000,-1,0.002371,0.001642,-0.001998,0.010049,-0.001987,-0.001570
"2019-10-08 15:51:53.813 +0000",1570549913.813077,2.780296,0.310406,-0.355612,0.336594,-0.305445,0.890734,0.000000,0.000000,0.000000,-1,0.003007,0.006132,0.000241,0.009826,0.001093,-0.002825
"2019-10-08 15:51:53.833 +0000",1570549913.833066,2.780406,0.310371,-0.355687,0.336500,-0.305412,0.890781,0.000000,0.000000,0.000000,-1,0.000855,0.010002,0.007532,0.010027,0.003730,-0.002888
"2019-10-08 15:51:53.853 +0000",1570549913.853084,2.780549,0.310426,-0.355832,0.336366,-0.305465,0.890814,0.000000,0.000000,0.000000,-1,-0.002972,0.002443,0.008906,0.010756,0.000731,-0.004629
"2019-10-08 15:51:53.873 +0000",1570549913.873103,2.780504,0.310516,-0.355858,0.336397,-0.305550,0.890773,0.000000,0.000000,0.000000,-1,-0.000308,-0.005520,-0.008285,0.006773,-0.002220,-0.000972
"2019-10-08 15:51:53.893 +0000",1570549913.893121,2.780413,0.310516,-0.355706,0.336478,-0.305550,0.890743,0.000000,0.000000,0.000000,-1,0.000664,-0.000683,-0.003477,0.010736,0.003273,0.000035
"2019-10-08 15:51:53.913 +0000",1570549913.913110,2.780425,0.310478,-0.355627,0.336471,-0.305514,0.890757,0.000000,0.000000,0.000000,-1,-0.001229,0.006747,-0.002701,0.007080,0.002184,0.000585
"2019-10-08 15:51:53.933 +0000",1570549913.933129,2.780503,0.310519,-0.355594,0.336398,-0.305553,0.890772,0.000000,0.000000,0.000000,-1,-0.005374,0.003228,0.001987,0.008283,0.001308,-0.003534
"2019-10-08 15:51:53.953 +0000",1570549913.953147,2.780432,0.310670,-0.355623,0.336444,-0.305696,0.890705,0.000000,0.000000,0.000000,-1,-0.009146,-0.007129,0.005722,0.007779,-0.000258,0.000378
"2019-10-08 15:51:53.973 +0000",1570549913.973148,2.780278,0.310856,-0.355608,0.336561,-0.305873,0.890600,0.000000,0.000000,0.000000,-1,-0.005358,-0.006872,0.003558,0.007479,-0.002690,-0.001272
"2019-10-08 15:51:53.993 +0000",1570549913.993166,2.780170,0.310906,-0.355621,0.336652,-0.305921,0.890549,0.000000,0.000000,0.000000,-1,-0.002179,-0.001030,0.002611,0.005816,0.000303,-0.000473
"2019-10-08 15:51:54.013 +0000",1570549914.013184,2.780169,0.310982,-0.355682,0.336645,-0.305994,0.890527,0.000000,0.000000,0.000000,-1,-0.004464,0.000997,0.007130,0.010005,0.004602,-0.003274
"2019-10-08 15:51:54.033 +0000",1570549914.033173,2.780132,0.311176,-0.355828,0.336657,-0.306178,0.890459,0.000000,0.000000,0.000000,-1,-0.009572,-0.005646,0.012364,0.011686,-0.002660,-0.004061
"2019-10-08 15:51:54.053 +0000",1570549914.053192,2.779923,0.311414,-0.356018,0.336817,-0.306405,0.890320,0.000000,0.000000,0.000000,-1,-0.009251,-0.015683,0.011538,0.010671,-0.003807,-0.000077
"2019-10-08 15:51:54.073 +0000",1570549914.073210,2.779700,0.311616,-0.356127,0.336994,-0.306597,0.890187,0.000000,0.000000,0.000000,-1,-0.005044,-0.008444,0.005146,0.007076,-0.001676,-0.001103
"2019-10-08 15:51:54.093 +0000",1570549914.093229,2.779671,0.311686,-0.356171,0.337012,-0.306664,0.890158,0.000000,0.000000,0.000000,-1,-0.002013,0.004601,0.000826,0.006387,0.001595,-0.001623
"2019-10-08 15:51:54.113 +0000",1570549914.113219,2.779766,0.311794,-0.356181,0.336916,-0.306767,0.890158,0.000000,0.000000,0.000000,-1,-0.008468,0.002176,0.006864,0.012511,0.001698,-0.003608
"2019-10-08 15:51:54.133 +0000",1570549914.133236,2.779673,0.311992,-0.356232,0.336977,-0.306955,0.890070,0.000000,0.000000,0.000000,-1,-0.006925,-0.008170,0.006319,0.010725,0.000345,-0.004587
"2019-10-08 15:51:54.153 +0000",1570549914.153256,2.779531,0.312169,-0.356295,0.337084,-0.307124,0.889971,0.000000,0.000000,0.000000,-1,-0.006566,-0.005235,0.005339,0.010054,-0.000326,-0.002307
"2019-10-08 15:51:54.173 +0000",1570549914.173243,2.779438,0.312305,-0.356328,0.337152,-0.307253,0.889901,0.000000,0.000000,0.000000,-1,-0.005634,-0.000951,0.002581,0.007834,-0.001218,-0.002938
"2019-10-08 15:51:54.193 +0000",1570549914.193262,2.779369,0.312416,-0.356287,0.337202,-0.307359,0.889846,0.000000,0.000000,0.000000,-1,-0.005274,-0.003261,0.001436,0.009539,-0.001662,-0.003097
"2019-10-08 15:51:54.213 +0000",1570549914.213281,2.779310,0.312527,-0.356302,0.337242,-0.307464,0.889794,0.000000,0.000000,0.000000,-1,-0.004747,-0.000666,0.005701,0.010903,-0.000702,-0.003762
"2019-10-08 15:51:54.233 +0000",1570549914.233269,2.779202,0.312584,-0.356413,0.337332,-0.307518,0.889741,0.000000,0.000000,0.000000,-1,0.000361,-0.007985,0.006319,0.007577,-0.002449,-0.002763
"2019-10-08 15:51:54.253 +0000",1570549914.253289,2.779071,0.312659,-0.356529,0.337440,-0.307590,0.889676,0.000000,0.000000,0.000000,-1,-0.000355,-0.006558,0.005164,0.008004,-0.001446,-0.002331
"2019-10-08 15:51:54.273 +0000",1570549914.273307,2.778958,0.312726,-0.356593,0.337533,-0.307654,0.889618,0.000000,0.000000,0.000000,-1,-0.001315,-0.004922,0.004826,0.006873,-0.000482,-0.001709
"2019-10-08 15:51:54.293 +0000",1570549914.293295,2.778954,0.312757,-0.356745,0.337533,-0.307683,0.889608,0.000000,0.000000,0.000000,-1,0.003988,0.000024,0.009440,0.007422,-0.002543,-0.004293
"2019-10-08 15:51:54.313 +0000",1570549914.313314,2.778964,0.312804,-0.356946,0.337520,-0.307728,0.889598,0.000000,0.000000,0.000000,-1,0.000039,-0.001875,0.008647,0.011220,-0.001125,-0.002925
"2019-10-08 15:51:54.333 +0000",1570549914.333333,2.779033,0.312876,-0.357080,0.337450,-0.307797,0.889600,0.000000,0.000000,0.000000,-1,-0.001729,0.002389,0.009634,0.011808,0.001889,-0.001249
"2019-10-08 15:51:54.353 +0000",1570549914.353351,2.779037,0.313009,-0.357216,0.337432,-0.307923,0.889564,0.000000,0.000000,0.000000,-1,-0.007488,-0.001526,0.006057,0.011613,-0.002167,-0.002952
"2019-10-08 15:51:54.373 +0000",1570549914.373340,2.778955,0.313156,-0.357228,0.337489,-0.308063,0.889493,0.000000,0.000000,0.000000,-1,-0.008503,-0.006078,-0.000502,0.008473,-0.001218,-0.000699
"2019-10-08 15:51:54.393 +0000",1570549914.393360,2.778808,0.313238,-0.357160,0.337611,-0.308140,0.889421,0.000000,0.000000,0.000000,-1,-0.002330,-0.002805,0.000131,0.009038,0.003148,0.000518
"2019-10-08 15:51:54.413 +0000",1570549914.413380,2.778810,0.313330,-0.357134,0.337599,-0.308228,0.889394,0.000000,0.000000,0.000000,-1,-0.007594,0.006239,0.002350,0.008943,0.002671,-0.001241
"2019-10-08 15:51:54.433 +0000",1570549914.433368,2.778890,0.313521,-0.357103,0.337507,-0.308409,0.889366,0.000000,0.000000,0.000000,-1,-0.010561,0.002387,0.004734,0.011446,0.001143,-0.003838
"2019-10-08 15:51:54.453 +0000",1570549914.453387,2.778867,0.313761,-0.357077,0.337502,-0.308639,0.889289,0.000000,0.000000,0.000000,-1,-0.010449,-0.000955,0.002852,0.013451,-0.001298,-0.004142
"2019-10-08 15:51:54.473 +0000",1570549914.473405,2.778869,0.313919,-0.357052,0.337482,-0.308788,0.889244,0.000000,0.000000,0.000000,-1,-0.007907,0.005106,0.001111,0.009518,-0.005573,0.000038
"2019-10-08 15:51:54.493 +0000",1570549914.493393,2.778935,0.313991,-0.357025,0.337416,-0.308857,0.889246,0.000000,0.000000,0.000000,-1,-0.003108,0.006129,0.000485,0.009844,-0.002392,-0.002756
"2019-10-08 15:51:54.513 +0000",1570549914.513410,2.778987,0.314030,-0.357045,0.337365,-0.308894,0.889252,0.000000,0.000000,0.000000,-1,-0.000094,0.002590,0.003334,0.009254,-0.001409,-0.005234
"2019-10-08 15:51:54.533 +0000",1570549914.533430,2.779020,0.314099,-0.357152,0.337328,-0.308959,0.889244,0.000000,0.000000,0.000000,-1,-0.002234,0.000662,0.007960,0.005400,-0.000764,-0.004707
"2019-10-08 15:51:54.553 +0000",1570549914.553448,2.779050,0.314229,-0.357264,0.337287,-0.309084,0.889216,0.000000,0.000000,0.000000,-1,-0.004989,0.003183,0.008893,0.011041,0.002916,-0.001094
"2019-10-08 15:51:54.573 +0000",1570549914.573437,2.779131,0.314351,-0.357399,0.337201,-0.309199,0.889208,0.000000,0.000000,0.000000,-1,-0.001738,0.005130,0.008194,0.012118,0.000850,-0.000185
"2019-10-08 15:51:54.593 +0000",1570549914.593456,2.779253,0.314442,-0.357526,0.337084,-0.309286,0.889223,0.000000,0.000000,0.000000,-1,-0.001821,0.004280,0.005593,0.013045,-0.000376,-0.003038
"2019-10-08 15:51:54.613 +0000",1570549914.613475,2.779308,0.314556,-0.357547,0.337022,-0.309394,0.889209,0.000000,0.000000,0.000000,-1,-0.005615,0.000892,0.000734,0.012420,-0.000847,-0.004626
"2019-10-08 15:51:54.633 +0000",1570549914.633463,2.779290,0.314642,-0.357513,0.337029,-0.309476,0.889177,0.000000,0.000000,0.000000,-1,-0.002210,0.001949,0.000053,0.010826,-0.001665,-0.004213
"2019-10-08 15:51:54.653 +0000",1570549914.653482,2.779332,0.314701,-0.357501,0.336984,-0.309532,0.889175,0.000000,0.000000,0.000000,-1,-0.003913,0.001845,0.002311,0.011465,0.000511,-0.002319
"2019-10-08 15:51:54.674 +0000",1570549914.673501,2.779291,0.314778,-0.357524,0.337012,-0.309606,0.889138,0.000000,0.000000,0.000000,-1,-0.004391,-0.002723,0.002427,0.009911,-0.001536,-0.004083
"2019-10-08 15:51:54.693 +0000",1570549914.693489,2.779249,0.314885,-0.357504,0.337039,-0.309707,0.889093,0.000000,0.000000,0.000000,-1,-0.003982,0.000695,-0.000119,0.008695,-0.001328,-0.005197
"2019-10-08 15:51:54.714 +0000",1570549914.713508,2.779260,0.314998,-0.357455,0.337016,-0.309815,0.889064,0.000000,0.000000,0.000000,-1,-0.005389,0.001639,0.000454,0.010778,0.002381,-0.004787
"2019-10-08 15:51:54.734 +0000",1570549914.733527,2.779278,0.315054,-0.357420,0.336994,-0.309868,0.889054,0.000000,0.000000,0.000000,-1,-0.001791,0.004462,-0.001847,0.010021,-0.004158,-0.000962
"2019-10-08 15:51:54.754 +0000",1570549914.753545,2.779398,0.315077,-0.357381,0.336884,-0.309890,0.889088,0.000000,0.000000,0.000000,-1,-0.001791,0.008528,-0.000405,0.008514,-0.002854,-0.000935
"2019-10-08 15:51:54.774 +0000",1570549914.773533,2.779573,0.315152,-0.357341,0.336721,-0.309961,0.889125,0.000000,0.000000,0.000000,-1,-0.005570,0.010624,0.001409,0.007228,-0.000312,-0.000331
"2019-10-08 15:51:54.794 +0000",1570549914.793552,2.779731,0.315317,-0.357258,0.336562,-0.310118,0.889131,0.000000,0.000000,0.000000,-1,-0.007470,0.008672,-0.003084,0.009736,-0.000734,-0.005418
"2019-10-08 15:51:54.814 +0000",1570549914.813570,2.779801,0.315326,-0.357120,0.336500,-0.310126,0.889151,0.000000,0.000000,0.000000,-1,0.000176,0.005964,-0.006974,0.008135,0.000220,-0.002906
"2019-10-08 15:51:54.834 +0000",1570549914.833558,2.779936,0.315295,-0.356982,0.336383,-0.310097,0.889206,0.000000,0.000000,0.000000,-1,-0.000053,0.013525,-0.003837,0.008802,0.000313,-0.002838
"2019-10-08 15:51:54.854 +0000",1570549914.853578,2.780220,0.315268,-0.357019,0.336133,-0.310071,0.889309,0.000000,0.000000,0.000000,-1,0.006274,0.014411,0.005287,0.014590,0.001264,-0.002316
"2019-10-08 15:51:54.874 +0000",1570549914.873597,2.780463,0.315085,-0.357235,0.335937,-0.309897,0.889444,0.000000,0.000000,0.000000,-1,0.019054,0.004623,0.006785,0.015854,-0.003396,-0.004297
"2019-10-08 15:51:54.894 +0000",1570549914.893585,2.780558,0.314807,-0.357506,0.335883,-0.309633,0.889556,0.000000,0.000000,0.000000,-1,0.017047,-0.001539,0.008623,0.015130,0.000352,-0.007125
"2019-10-08 15:51:54.914 +0000",1570549914.913604,2.780599,0.314537,-0.357769,0.335875,-0.309377,0.889648,0.000000,0.000000,0.000000,-1,0.016691,-0.000824,0.006836,0.012025,0.000111,-0.008224
"2019-10-08 15:51:54.934 +0000",1570549914.933624,2.780706,0.314330,-0.357962,0.335803,-0.309180,0.889744,0.000000,0.000000,0.000000,-1,0.007650,0.008440,0.003098,0.007932,-0.001657,-0.000797
"2019-10-08 15:51:54.954 +0000",1570549914.953642,2.780854,0.314176,-0.358006,0.335689,-0.309033,0.889838,0.000000,0.000000,0.000000,-1,0.006730,0.009973,-0.003524,0.004170,0.001538,-0.000709
"2019-10-08 15:51:54.974 +0000",1570549914.973601,2.780966,0.314031,-0.357892,0.335604,-0.308895,0.889918,0.000000,0.000000,0.000000,-1,0.005034,0.006727,-0.009922,-0.000064,-0.001042,-0.002299
"2019-10-08 15:51:54.994 +0000",1570549914.993619,2.781008,0.313895,-0.357719,0.335581,-0.308765,0.889971,0.000000,0.000000,0.000000,-1,0.001937,0.007955,-0.010545,0.001165,-0.002300,0.001508
"2019-10-08 15:51:55.014 +0000",1570549915.013638,2.781044,0.313732,-0.357468,0.335567,-0.308610,0.890030,0.000000,0.000000,0.000000,-1,0.003712,0.004039,-0.015240,0.004459,-0.002623,-0.000122
"2019-10-08 15:51:55.034 +0000",1570549915.033626,2.780920,0.313549,-0.357142,0.335698,-0.308436,0.890041,0.000000,0.000000,0.000000,-1,0.003778,-0.004968,-0.020618,0.004191,0.000514,-0.004742
"2019-10-08 15:51:55.054 +0000",1570549915.053645,2.780746,0.313314,-0.356767,0.335878,-0.308213,0.890051,0.000000,0.000000,0.000000,-1,0.006096,0.000179,-0.021882,0.005171,-0.000823,-0.001272
"2019-10-08 15:51:55.074 +0000",1570549915.073665,2.780726,0.313060,-0.356409,0.335924,-0.307971,0.890117,0.000000,0.000000,0.000000,-1,0.008358,0.008821,-0.019306,0.010329,-0.000348,-0.003322
"2019-10-08 15:51:55.094 +0000",1570549915.093652,2.780823,0.312768,-0.356155,0.335869,-0.307693,0.890234,0.000000,0.000000,0.000000,-1,0.011245,0.006920,-0.012708,0.012779,0.001434,-0.003912
"2019-10-08 15:51:55.114 +0000",1570549915.113671,2.780944,0.312462,-0.356097,0.335795,-0.307403,0.890363,0.000000,0.000000,0.000000,-1,0.019359,0.007250,-0.003638,0.017431,-0.001496,-0.005750
"2019-10-08 15:51:55.134 +0000",1570549915.133690,2.781164,0.312044,-0.356264,0.335645,-0.307004,0.890557,0.000000,0.000000,0.000000,-1,0.025596,0.010393,0.002310,0.020740,0.000013,-0.006066
"2019-10-08 15:51:55.154 +0000",1570549915.153710,2.781396,0.311549,-0.356494,0.335491,-0.306533,0.890776,0.000000,0.000000,0.000000,-1,0.024592,0.006257,0.000892,0.018757,0.000854,-0.008193
"2019-10-08 15:51:55.174 +0000",1570549915.173697,2.781478,0.311200,-0.356620,0.335455,-0.306201,0.890905,0.000000,0.000000,0.000000,-1,0.014247,0.004720,-0.001977,0.017557,0.006122,-0.006353
"2019-10-08 15:51:55.194 +0000",1570549915.193716,2.781667,0.311006,-0.356618,0.335308,-0.306017,0.891023,0.000000,0.000000,0.000000,-1,0.006140,0.016857,-0.005775,0.015110,0.004061,-0.001817
"2019-10-08 15:51:55.214 +0000",1570549915.213734,2.781919,0.310893,-0.356451,0.335096,-0.305909,0.891140,0.000000,0.000000,0.000000,-1,0.000851,0.017980,-0.010478,0.011660,0.003282,-0.000363
"2019-10-08 15:51:55.234 +0000",1570549915.233723,2.782077,0.310834,-0.356185,0.334961,-0.305853,0.891210,0.000000,0.000000,0.000000,-1,-0.005487,0.010997,-0.013457,0.008377,0.004827,-0.002630
"2019-10-08 15:51:55.254 +0000",1570549915.253741,2.782161,0.310832,-0.355839,0.334886,-0.305851,0.891239,0.000000,0.000000,0.000000,-1,-0.008252,0.014041,-0.015296,0.006849,0.000598,-0.005802
"2019-10-08 15:51:55.274 +0000",1570549915.273761,2.782283,0.310832,-0.355465,0.334778,-0.305850,0.891280,0.000000,0.000000,0.000000,-1,-0.006845,0.011629,-0.017555,0.007416,-0.001874,-0.002181
"2019-10-08 15:51:55.294 +0000",1570549915.293748,2.782425,0.310832,-0.355094,0.334652,-0.305851,0.891327,0.000000,0.000000,0.000000,-1,-0.005704,0.015227,-0.015195,0.006108,-0.005260,-0.005630
"2019-10-08 15:51:55.314 +0000",1570549915.313767,2.782548,0.310837,-0.354772,0.334541,-0.305855,0.891367,0.000000,0.000000,0.000000,-1,-0.004211,0.009470,-0.013449,0.007134,-0.003456,-0.003580
"2019-10-08 15:51:55.334 +0000",1570549915.333786,2.782546,0.310789,-0.354499,0.334548,-0.305810,0.891380,0.000000,0.000000,0.000000,-1,0.002630,-0.001991,-0.012106,0.005449,-0.004676,-0.005576
"2019-10-08 15:51:55.354 +0000",1570549915.353806,2.782414,0.310681,-0.354327,0.334678,-0.305707,0.891366,0.000000,0.000000,0.000000,-1,0.003003,-0.004332,-0.005154,0.008172,-0.003893,-0.002252
"2019-10-08 15:51:55.374 +0000",1570549915.373794,2.782325,0.310653,-0.354369,0.334759,-0.305680,0.891345,0.000000,0.000000,0.000000,-1,0.002888,-0.006053,0.005777,0.009631,0.002503,-0.005771
"2019-10-08 15:51:55.394 +0000",1570549915.393812,2.782276,0.310679,-0.354527,0.334800,-0.305706,0.891321,0.000000,0.000000,0.000000,-1,-0.000121,0.000519,0.008625,0.008751,0.003551,-0.004388
"2019-10-08 15:51:55.414 +0000",1570549915.413831,2.782317,0.310753,-0.354643,0.334756,-0.305775,0.891313,0.000000,0.000000,0.000000,-1,-0.003601,0.003273,0.001870,0.012076,0.007680,-0.000139
"2019-10-08 15:51:55.434 +0000",1570549915.433820,2.782415,0.310811,-0.354572,0.334662,-0.305831,0.891330,0.000000,0.000000,0.000000,-1,-0.001918,0.007774,-0.006427,0.012536,-0.000214,0.001187
"2019-10-08 15:51:55.454 +0000",1570549915.453838,2.782424,0.310829,-0.354357,0.334652,-0.305848,0.891327,0.000000,0.000000,0.000000,-1,-0.007356,-0.001595,-0.011920,0.012073,-0.000533,-0.002747
"2019-10-08 15:51:55.474 +0000",1570549915.473857,2.782218,0.310947,-0.353987,0.334823,-0.305961,0.891224,0.000000,0.000000,0.000000,-1,-0.015315,-0.003345,-0.015508,0.010163,-0.002542,-0.002125
"2019-10-08 15:51:55.494 +0000",1570549915.493846,2.781988,0.311150,-0.353488,0.335007,-0.306154,0.891090,0.000000,0.000000,0.000000,-1,-0.018194,-0.004939,-0.021177,0.009064,0.000444,-0.004996
"2019-10-08 15:51:55.514 +0000",1570549915.513864,2.781739,0.311282,-0.352918,0.335214,-0.306279,0.890968,0.000000,0.000000,0.000000,-1,-0.010696,-0.000994,-0.022233,0.009955,-0.002559,-0.002922
"2019-10-08 15:51:55.534 +0000",1570549915.533884,2.781590,0.311285,-0.352436,0.335346,-0.306282,0.890918,0.000000,0.000000,0.000000,-1,-0.005463,0.001469,-0.019747,0.011761,-0.004051,-0.000522
"2019-10-08 15:51:55.554 +0000",1570549915.553901,2.781439,0.311249,-0.352094,0.335485,-0.306247,0.890877,0.000000,0.000000,0.000000,-1,-0.004261,-0.004273,-0.013264,0.010264,-0.003643,-0.001214
"2019-10-08 15:51:55.574 +0000",1570549915.573890,2.781253,0.311303,-0.351887,0.335645,-0.306300,0.890799,0.000000,0.000000,0.000000,-1,-0.009053,-0.004737,-0.006007,0.009601,-0.000905,-0.001563
"2019-10-08 15:51:55.594 +0000",1570549915.593910,2.781139,0.311393,-0.351796,0.335737,-0.306385,0.890735,0.000000,0.000000,0.000000,-1,-0.003304,0.000240,0.000559,0.010592,0.000386,-0.002994
"2019-10-08 15:51:55.614 +0000",1570549915.613928,2.781185,0.311420,-0.351837,0.335693,-0.306410,0.890743,0.000000,0.000000,0.000000,-1,0.000482,0.001808,0.004473,0.011185,0.001586,-0.004101
"2019-10-08 15:51:55.634 +0000",1570549915.633916,2.781135,0.311425,-0.351920,0.335737,-0.306416,0.890725,0.000000,0.000000,0.000000,-1,0.001313,-0.008906,0.002999,0.013232,-0.001690,-0.002282
"2019-10-08 15:51:55.654 +0000",1570549915.653935,2.780946,0.311456,-0.351988,0.335902,-0.306445,0.890652,0.000000,0.000000,0.000000,-1,0.000823,-0.012496,0.001683,0.014501,-0.002607,0.000400
