timestamp,timeIntervalSince1970,attitude.roll,attitude.pitch,attitude.yaw,gravity.x,gravity.y,gravity.z,magneticField.x,magneticField.y,magneticField.z,magneticField.accuracy,rotationRate.x,rotationRate.y,rotationRate.z,userAcceleration.x,userAcceleration.y,userAcceleration.z
"2019-10-06 14:17:09.363 +0000",1570371429.362624,-0.196059,0.449236,0.048492,-0.175477,-0.434277,-0.883522,0.000000,0.000000,0.000000,-1,-0.192091,-0.555593,0.784664,-0.027022,-0.122363,0.004860
"2019-10-06 14:17:09.385 +0000",1570371429.384900,-0.216386,0.438137,0.070776,-0.194422,-0.424253,-0.884426,0.000000,0.000000,0.000000,-1,-0.352663,-0.410749,1.041142,-0.079382,-0.147784,0.025051
"2019-10-06 14:17:09.407 +0000",1570371429.407220,-0.226591,0.424718,0.090448,-0.204698,-0.412064,-0.887864,0.000000,0.000000,0.000000,-1,-0.431190,0.119582,0.765962,-0.216353,-0.061462,-0.106399
"2019-10-06 14:17:09.430 +0000",1570371429.429515,-0.227035,0.416894,0.093081,-0.205811,-0.404922,-0.890887,0.000000,0.000000,0.000000,-1,-0.186905,-0.082100,-0.199765,-0.239639,-0.014786,-0.101377
"2019-10-06 14:17:09.452 +0000",1570371429.451792,-0.230014,0.423130,0.078871,-0.207884,-0.410616,-0.887794,0.000000,0.000000,0.000000,-1,0.290669,-0.565267,-0.815542,-0.189592,-0.020139,-0.076302
"2019-10-06 14:17:09.474 +0000",1570371429.474082,-0.242920,0.434429,0.058329,-0.218195,-0.420892,-0.880478,0.000000,0.000000,0.000000,-1,0.229314,-1.301533,-0.972784,-0.050650,-0.054648,0.131378
"2019-10-06 14:17:09.496 +0000",1570371429.496407,-0.263055,0.440770,0.036230,-0.235179,-0.426636,-0.873311,0.000000,0.000000,0.000000,-1,-0.043546,-1.128983,-0.857821,-0.006749,-0.035889,0.167928
"2019-10-06 14:17:09.519 +0000",1570371429.518714,-0.268058,0.441128,0.023330,-0.239505,-0.426960,-0.871976,0.000000,0.000000,0.000000,-1,-0.148201,-0.026934,-0.253581,0.058414,-0.024456,0.219648
"2019-10-06 14:17:09.541 +0000",1570371429.540989,-0.258346,0.436960,0.028371,-0.231477,-0.423187,-0.875974,0.000000,0.000000,0.000000,-1,-0.093160,0.763300,0.499879,0.063813,-0.021103,0.229398
"2019-10-06 14:17:09.563 +0000",1570371429.563283,-0.250621,0.427093,0.037884,-0.225728,-0.414227,-0.881738,0.000000,0.000000,0.000000,-1,-0.455897,0.171650,0.240755,-0.155665,0.174176,0.015924
"2019-10-06 14:17:09.586 +0000",1570371429.585605,-0.260624,0.416137,0.030314,-0.235692,-0.404230,-0.883769,0.000000,0.000000,0.000000,-1,-0.505447,-0.970957,-0.337140,-0.129771,0.196466,0.021601
"2019-10-06 14:17:09.608 +0000",1570371429.607882,-0.282956,0.410694,0.021874,-0.255978,-0.399246,-0.880385,0.000000,0.000000,0.000000,-1,-0.242509,-1.111485,-0.122406,0.049862,0.197235,0.168440
"2019-10-06 14:17:09.630 +0000",1570371429.630183,-0.310816,0.401665,0.027098,-0.281495,-0.390952,-0.876309,0.000000,0.000000,0.000000,-1,-0.437886,-1.292080,0.597386,0.120774,0.185156,0.513333
"2019-10-06 14:17:09.652 +0000",1570371429.652497,-0.348964,0.380242,0.045104,-0.317502,-0.371145,-0.872607,0.000000,0.000000,0.000000,-1,-0.748873,-1.314337,1.238810,0.155225,0.159033,0.554904
"2019-10-06 14:17:09.675 +0000",1570371429.674806,-0.382391,0.357284,0.070019,-0.349576,-0.349731,-0.869186,0.000000,0.000000,0.000000,-1,-0.507633,-1.064291,1.296239,0.099805,0.108291,0.318970
"2019-10-06 14:17:09.697 +0000",1570371429.697094,-0.417379,0.338291,0.088530,-0.382391,-0.331875,-0.862343,0.000000,0.000000,0.000000,-1,-0.478168,-1.504953,0.905672,0.096228,0.428723,0.366753
"2019-10-06 14:17:09.719 +0000",1570371429.719380,-0.467394,0.321385,0.101770,-0.427492,-0.315881,-0.847036,0.000000,0.000000,0.000000,-1,-0.416312,-2.379815,0.841513,0.266756,0.432000,0.450872
"2019-10-06 14:17:09.742 +0000",1570371429.741696,-0.533821,0.301983,0.117711,-0.485801,-0.297414,-0.821914,0.000000,0.000000,0.000000,-1,-0.506903,-2.892800,1.167328,0.380714,0.447164,0.422973
"2019-10-06 14:17:09.764 +0000",1570371429.763971,-0.602655,0.267784,0.136992,-0.546630,-0.264595,-0.794472,0.000000,0.000000,0.000000,-1,-1.092708,-2.788659,1.759131,0.417617,0.455391,0.277428
"2019-10-06 14:17:09.786 +0000",1570371429.786279,-0.670798,0.210937,0.151657,-0.607833,-0.209376,-0.765964,0.000000,0.000000,0.000000,-1,-2.033372,-2.982017,2.122682,0.052383,0.365138,0.040897
"2019-10-06 14:17:09.809 +0000",1570371429.808586,-0.738368,0.145451,0.152009,-0.665975,-0.144939,-0.731758,0.000000,0.000000,0.000000,-1,-2.135360,-2.992219,1.722034,-0.081340,0.440410,-0.096840
"2019-10-06 14:17:09.831 +0000",1570371429.830895,-0.806569,0.099366,0.150175,-0.718356,-0.099202,-0.688566,0.000000,0.000000,0.000000,-1,-1.166829,-3.254643,1.193827,-0.066495,0.422612,-0.286501
"2019-10-06 14:17:09.853 +0000",1570371429.853174,-0.897102,0.071404,0.153868,-0.779531,-0.071343,-0.622288,0.000000,0.000000,0.000000,-1,-0.475936,-4.515867,1.036605,-0.027781,0.269341,-0.438702
"2019-10-06 14:17:09.875 +0000",1570371429.875478,-0.993706,0.042791,0.165649,-0.837287,-0.042777,-0.545088,0.000000,0.000000,0.000000,-1,-0.331604,-3.844583,1.559178,-0.037134,0.187385,-0.347581
"2019-10-06 14:17:09.898 +0000",1570371429.897785,-1.057464,0.004771,0.169704,-0.871103,-0.004771,-0.491077,0.000000,0.000000,0.000000,-1,-1.027366,-2.354517,1.406713,-0.280508,0.093256,-0.166485
"2019-10-06 14:17:09.920 +0000",1570371429.920062,-1.101664,-0.026611,0.151955,-0.891645,0.026608,-0.451953,0.000000,0.000000,0.000000,-1,-1.439518,-1.837736,0.526127,-0.477541,-0.024502,-0.253598
"2019-10-06 14:17:09.942 +0000",1570371429.942369,-1.140092,-0.039456,0.131010,-0.907965,0.039446,-0.417186,0.000000,0.000000,0.000000,-1,-0.763106,-1.605946,-0.050011,-0.459574,0.078429,-0.669575
"2019-10-06 14:17:09.965 +0000",1570371429.964675,-1.173403,-0.041949,0.132759,-0.921262,0.041937,-0.386676,0.000000,0.000000,0.000000,-1,0.501581,-1.440429,0.305096,-0.182651,0.021127,-0.666867
"2019-10-06 14:17:09.987 +0000",1570371429.986968,-1.204061,-0.045863,0.154609,-0.932521,0.045847,-0.358192,0.000000,0.000000,0.000000,-1,0.887950,-1.488223,0.628227,-0.019307,0.032644,-0.353523
"2019-10-06 14:17:10.009 +0000",1570371430.009267,-1.237204,-0.054975,0.171861,-0.943445,0.054947,-0.326944,0.000000,0.000000,0.000000,-1,0.320880,-1.470122,0.599291,-0.217322,-0.003739,-0.049170
"2019-10-06 14:17:10.032 +0000",1570371430.031568,-1.264933,-0.063924,0.173584,-0.951640,0.063881,-0.300502,0.000000,0.000000,0.000000,-1,-0.175540,-1.060630,0.296473,-0.267782,-0.079109,-0.110631
"2019-10-06 14:17:10.054 +0000",1570371430.053875,-1.280622,-0.066344,0.173941,-0.956086,0.066295,-0.285490,0.000000,0.000000,0.000000,-1,0.136144,-0.541094,0.050089,-0.275924,-0.282436,-0.252322
"2019-10-06 14:17:10.076 +0000",1570371430.076161,-1.289661,-0.065015,0.182818,-0.958711,0.064969,-0.276861,0.000000,0.000000,0.000000,-1,0.524769,-0.479672,-0.014798,-0.192580,-0.347791,0.118902
"2019-10-06 14:17:10.098 +0000",1570371430.098458,-1.312336,-0.056517,0.195477,-0.965241,0.056487,-0.255184,0.000000,0.000000,0.000000,-1,0.645009,-1.345215,-0.220436,-0.156860,-0.289626,0.157162
"2019-10-06 14:17:10.121 +0000",1570371430.120767,-1.338218,-0.055608,0.198314,-0.971571,0.055579,-0.230131,0.000000,0.000000,0.000000,-1,-0.370827,-0.910319,0.059352,-0.119005,-0.211707,0.204481
"2019-10-06 14:17:10.143 +0000",1570371430.143043,-1.352681,-0.056084,0.166919,-0.974772,0.056055,-0.216050,0.000000,0.000000,0.000000,-1,-1.846824,-0.417538,-0.548558,-0.114584,0.031332,-0.005874
"2019-10-06 14:17:10.165 +0000",1570371430.165351,-1.356118,-0.046900,0.124141,-0.975971,0.046883,-0.212799,0.000000,0.000000,0.000000,-1,-1.461390,0.080887,-0.854268,0.102008,-0.117714,-0.374222
"2019-10-06 14:17:10.188 +0000",1570371430.187656,-1.374284,-0.040769,0.104957,-0.979939,0.040757,-0.195088,0.000000,0.000000,0.000000,-1,-0.364932,-1.514246,-0.239217,0.235004,-0.282045,-0.347103
"2019-10-06 14:17:10.210 +0000",1570371430.209947,-1.406420,-0.031385,0.114267,-0.986035,0.031380,-0.163557,0.000000,0.000000,0.000000,-1,1.003102,-1.086285,-0.423549,0.270550,-0.311013,0.199781
"2019-10-06 14:17:10.232 +0000",1570371430.232251,-1.418113,-0.020171,0.153339,-0.988166,0.020170,-0.152059,0.000000,0.000000,0.000000,-1,2.221916,-0.451893,-0.015558,0.167105,-0.195066,0.313772
"2019-10-06 14:17:10.255 +0000",1570371430.254549,-1.433136,-0.016350,0.207201,-0.990407,0.016349,-0.137208,0.000000,0.000000,0.000000,-1,2.341598,-0.898837,0.186947,0.153524,-0.091697,0.268037
"2019-10-06 14:17:10.277 +0000",1570371430.276856,-1.458647,-0.012541,0.243033,-0.993640,0.012541,-0.111906,0.000000,0.000000,0.000000,-1,1.074963,-1.265437,0.003577,0.063220,-0.006056,0.179670
"2019-10-06 14:17:10.299 +0000",1570371430.299148,-1.475619,-0.020082,0.249286,-0.995273,0.020080,-0.095015,0.000000,0.000000,0.000000,-1,-0.273907,-0.362979,0.664881,0.296436,0.091675,0.435225
"2019-10-06 14:17:10.321 +0000",1570371430.321442,-1.473735,-0.052263,0.220693,-0.993934,0.052239,-0.096777,0.000000,0.000000,0.000000,-1,-2.197088,0.454541,1.692651,0.256385,0.087471,0.408377
"2019-10-06 14:17:10.344 +0000",1570371430.343742,-1.453537,-0.104969,0.151443,-0.987667,0.104777,-0.116347,0.000000,0.000000,0.000000,-1,-3.823903,1.566406,2.138604,0.147396,0.133337,0.263060
"2019-10-06 14:17:10.366 +0000",1570371430.366048,-1.427851,-0.164554,0.065705,-0.976430,0.163812,-0.140534,0.000000,0.000000,0.000000,-1,-4.151607,1.457782,2.078641,0.107152,0.167090,-0.013076
"2019-10-06 14:17:10.388 +0000",1570371430.388333,-1.432494,-0.213085,-0.012455,-0.968051,0.211476,-0.134744,0.000000,0.000000,0.000000,-1,-3.340969,-0.034345,1.396547,-0.365705,0.284237,-0.103949
"2019-10-06 14:17:10.411 +0000",1570371430.410644,-1.442073,-0.244513,-0.063471,-0.962228,0.242084,-0.124550,0.000000,0.000000,0.000000,-1,-1.739376,0.467756,0.953625,-0.198218,0.374112,-0.439521
"2019-10-06 14:17:10.433 +0000",1570371430.432945,-1.426272,-0.277238,-0.075953,-0.951788,0.273700,-0.138522,0.000000,0.000000,0.000000,-1,-0.192883,0.752156,1.800292,-0.044977,0.278424,-0.672284
"2019-10-06 14:17:10.455 +0000",1570371430.455232,-1.408903,-0.320269,-0.045907,-0.936740,0.314822,-0.152991,0.000000,0.000000,0.000000,-1,1.704552,0.247281,2.097114,-0.014493,0.194837,-0.675485
"2019-10-06 14:17:10.478 +0000",1570371430.477531,-1.404119,-0.345569,0.013633,-0.927844,0.338732,-0.156099,0.000000,0.000000,0.000000,-1,2.448085,-1.455177,1.080415,-0.136350,0.111433,-0.447386
"2019-10-06 14:17:10.500 +0000",1570371430.499839,-1.432189,-0.346801,0.068851,-0.931445,0.339891,-0.129939,0.000000,0.000000,0.000000,-1,2.072783,-2.062753,0.197420,-0.304212,-0.017641,0.067454
"2019-10-06 14:17:10.522 +0000",1570371430.522120,-1.454690,-0.355855,0.104238,-0.931038,0.348392,-0.108588,0.000000,0.000000,0.000000,-1,1.005038,-1.136674,0.892129,-0.086189,-0.264026,0.266165
"2019-10-06 14:17:10.544 +0000",1570371430.544422,-1.455017,-0.376713,0.126210,-0.923653,0.367866,-0.107420,0.000000,0.000000,0.000000,-1,0.974935,0.087713,0.994136,-0.177100,-0.252754,-0.007112
"2019-10-06 14:17:10.567 +0000",1570371430.566728,-1.441890,-0.386104,0.170535,-0.918697,0.376583,-0.119086,0.000000,0.000000,0.000000,-1,2.241044,-0.899581,0.353399,-0.066304,-0.039089,-0.377756
"2019-10-06 14:17:10.589 +0000",1570371430.589036,-1.472596,-0.374430,0.230207,-0.926232,0.365743,-0.091250,0.000000,0.000000,0.000000,-1,2.522175,-3.065275,-0.474546,0.104668,0.057231,-0.008619
"2019-10-06 14:17:10.611 +0000",1570371430.611343,-1.530647,-0.367195,0.264906,-0.932586,0.358999,-0.037463,0.000000,0.000000,0.000000,-1,1.022073,-3.006859,-0.153166,-0.026200,-0.000784,0.305819
"2019-10-06 14:17:10.634 +0000",1570371430.633621,-1.573390,-0.365536,0.293121,-0.933929,0.357450,0.002422,0.000000,0.000000,0.000000,-1,1.564310,-1.778204,0.035887,-0.151657,-0.058988,-0.243664
"2019-10-06 14:17:10.656 +0000",1570371430.655926,-1.587727,-0.369458,0.347963,-0.932390,0.361110,0.015787,0.000000,0.000000,0.000000,-1,2.466641,-1.498326,0.100778,-0.056685,0.075200,-0.491098
"2019-10-06 14:17:10.678 +0000",1570371430.678219,-1.613209,-0.368948,0.379295,-0.931868,0.360635,0.039546,0.000000,0.000000,0.000000,-1,0.372393,-1.703989,-0.047158,0.101729,-0.094537,0.627232
"2019-10-06 14:17:10.701 +0000",1570371430.700512,-1.642877,-0.374228,0.373683,-0.928373,0.365554,0.067034,0.000000,0.000000,0.000000,-1,-0.133174,-0.861009,0.410345,0.053541,-0.184310,0.251615
"2019-10-06 14:17:10.723 +0000",1570371430.722819,-1.650984,-0.378044,0.378058,-0.926402,0.369103,0.074446,0.000000,0.000000,0.000000,-1,0.266065,-0.367447,-0.200489,-0.318837,-0.163781,-0.037596
"2019-10-06 14:17:10.745 +0000",1570371430.745127,-1.657466,-0.357621,0.394559,-0.933216,0.350047,0.081085,0.000000,0.000000,0.000000,-1,0.933014,-0.758278,-1.454643,-0.566708,-0.105403,-0.091278
"2019-10-06 14:17:10.767 +0000",1570371430.767434,-1.687282,-0.310573,0.434430,-0.945706,0.305604,0.110662,0.000000,0.000000,0.000000,-1,1.701454,-2.770653,-2.771272,-0.179553,-0.252901,-0.235022
"2019-10-06 14:17:10.790 +0000",1570371430.789710,-1.761589,-0.242556,0.491941,-0.953112,0.240185,0.184086,0.000000,0.000000,0.000000,-1,2.166110,-4.607660,-3.558637,-0.043119,-0.056713,-0.373692
"2019-10-06 14:17:10.812 +0000",1570371430.812019,-1.850569,-0.184549,0.558460,-0.944798,0.183503,0.271448,0.000000,0.000000,0.000000,-1,2.127683,-4.306133,-2.881514,0.173390,-0.021607,-0.289621
"2019-10-06 14:17:10.834 +0000",1570371430.834306,-1.918933,-0.146328,0.602925,-0.929964,0.145806,0.337501,0.000000,0.000000,0.000000,-1,0.889452,-2.960857,-1.923883,0.051424,-0.352822,0.328560
"2019-10-06 14:17:10.857 +0000",1570371430.856601,-1.978010,-0.112454,0.632961,-0.912428,0.112217,0.393550,0.000000,0.000000,0.000000,-1,0.637127,-2.865264,-1.989348,-0.345995,-0.420125,0.329335
"2019-10-06 14:17:10.879 +0000",1570371430.878909,-2.027911,-0.080465,0.667025,-0.894427,0.080378,0.439933,0.000000,0.000000,0.000000,-1,0.795300,-2.010717,-1.794657,-0.078016,-0.175364,0.338785
"2019-10-06 14:17:10.901 +0000",1570371430.901209,-2.058350,-0.061323,0.702967,-0.881821,0.061284,0.467585,0.000000,0.000000,0.000000,-1,1.457780,-0.784676,-1.340054,0.307221,0.020457,-0.467662
"2019-10-06 14:17:10.924 +0000",1570371430.923525,-2.068411,-0.055889,0.730623,-0.877352,0.055860,0.476585,0.000000,0.000000,0.000000,-1,0.671479,-0.591959,-0.406734,0.535753,-0.168104,-0.177406
"2019-10-06 14:17:10.946 +0000",1570371430.945801,-2.080592,-0.057041,0.746621,-0.871425,0.057010,0.487205,0.000000,0.000000,0.000000,-1,0.614862,-0.582310,-0.450263,0.082637,0.240002,-0.158043
"2019-10-06 14:17:10.968 +0000",1570371430.968109,-2.097369,-0.046246,0.757373,-0.863610,0.046229,0.502036,0.000000,0.000000,0.000000,-1,-0.098643,-1.032309,-0.628933,-0.293235,0.274740,-0.101081
"2019-10-06 14:17:10.990 +0000",1570371430.990414,-2.114685,-0.027869,0.753582,-0.855371,0.027866,0.517266,0.000000,0.000000,0.000000,-1,-0.843444,-0.442266,-0.659301,-0.242408,0.265210,-0.082925
"2019-10-06 14:17:11.013 +0000",1570371431.012692,-2.109878,-0.000153,0.736360,-0.858180,0.000153,0.513348,0.000000,0.000000,0.000000,-1,-1.473576,0.571219,-0.632592,0.071391,0.301483,0.061999
"2019-10-06 14:17:11.035 +0000",1570371431.035000,-2.099601,0.029773,0.716775,-0.863028,-0.029768,0.504278,0.000000,0.000000,0.000000,-1,-1.354045,0.272926,-0.799847,0.117469,0.243941,0.000803
"2019-10-06 14:17:11.057 +0000",1570371431.057313,-2.098710,0.061635,0.705197,-0.862219,-0.061596,0.502776,0.000000,0.000000,0.000000,-1,-1.096953,-0.114217,-1.054333,-0.066461,0.236523,-0.023833
"2019-10-06 14:17:11.080 +0000",1570371431.079614,-2.095950,0.095419,0.692226,-0.861311,-0.095275,0.499065,0.000000,0.000000,0.000000,-1,-1.389780,0.224386,-0.942093,-0.173159,0.163451,-0.049602
"2019-10-06 14:17:11.102 +0000",1570371431.101890,-2.092997,0.116715,0.672591,-0.860827,-0.116450,0.495395,0.000000,0.000000,0.000000,-1,-0.993808,-0.168117,-0.051453,-0.081037,0.083888,-0.061054
"2019-10-06 14:17:11.124 +0000",1570371431.124193,-2.090852,0.117951,0.659705,-0.861762,-0.117677,0.493476,0.000000,0.000000,0.000000,-1,-0.329231,0.292876,0.431032,-0.143319,-0.007445,-0.009619
"2019-10-06 14:17:11.147 +0000",1570371431.146506,-2.075647,0.099208,0.635110,-0.870943,-0.099045,0.481298,0.000000,0.000000,0.000000,-1,-0.794894,0.541747,1.854004,0.056490,-0.254165,-0.103888
"2019-10-06 14:17:11.169 +0000",1570371431.168784,-2.073798,0.070573,0.607774,-0.873959,-0.070515,0.480857,0.000000,0.000000,0.000000,-1,-0.133973,-0.370188,1.362444,0.159695,-0.153057,-0.092460
"2019-10-06 14:17:11.191 +0000",1570371431.191090,-2.086684,0.051573,0.604567,-0.868699,-0.051550,0.492651,0.000000,0.000000,0.000000,-1,0.514891,-0.639899,0.574892,0.061814,0.180426,-0.001791
"2019-10-06 14:17:11.213 +0000",1570371431.213396,-2.097257,0.038636,0.613822,-0.863946,-0.038626,0.502101,0.000000,0.000000,0.000000,-1,0.657651,-0.380626,0.165754,-0.004707,-0.000925,-0.006801
"2019-10-06 14:17:11.236 +0000",1570371431.235705,-2.107879,0.030995,0.627566,-0.858792,-0.030990,0.511386,0.000000,0.000000,0.000000,-1,0.863874,-0.600069,0.020166,-0.000842,0.078674,-0.129550
"2019-10-06 14:17:11.258 +0000",1570371431.257981,-2.145320,0.011977,0.643898,-0.839391,-0.011977,0.543396,0.000000,0.000000,0.000000,-1,0.945213,-1.988204,0.513853,0.049108,0.212874,-0.100830
"2019-10-06 14:17:11.280 +0000",1570371431.280288,-2.182486,-0.010764,0.642537,-0.818632,0.010763,0.574218,0.000000,0.000000,0.000000,-1,0.424554,-1.627175,1.042617,-0.073901,-0.266272,0.026612
"2019-10-06 14:17:11.303 +0000",1570371431.302596,-2.210803,-0.040103,0.635893,-0.801447,0.040092,0.596721,0.000000,0.000000,0.000000,-1,0.649764,-0.740109,1.368545,-0.110586,-0.413932,0.150746
"2019-10-06 14:17:11.325 +0000",1570371431.324873,-2.215531,-0.063649,0.631340,-0.797641,0.063606,0.599769,0.000000,0.000000,0.000000,-1,0.289519,-0.117129,0.587522,-0.131177,-0.081032,0.027687
"2019-10-06 14:17:11.347 +0000",1570371431.347191,-2.215382,-0.070745,0.627275,-0.797349,0.070686,0.599365,0.000000,0.000000,0.000000,-1,-0.047069,0.110988,0.445172,-0.115386,-0.106117,-0.031051
"2019-10-06 14:17:11.369 +0000",1570371431.369488,-2.206739,-0.085859,0.616032,-0.801549,0.085754,0.591748,0.000000,0.000000,0.000000,-1,0.027056,0.497067,1.024831,-0.118114,-0.135009,0.046405
"2019-10-06 14:17:11.392 +0000",1570371431.391795,-2.200373,-0.102718,0.610769,-0.804016,0.102537,0.585699,0.000000,0.000000,0.000000,-1,0.466413,0.005779,0.542757,0.192948,-0.362257,-0.013052
"2019-10-06 14:17:11.414 +0000",1570371431.414072,-2.212072,-0.116614,0.619584,-0.795891,0.116350,0.594156,0.000000,0.000000,0.000000,-1,0.788150,-0.888383,0.230773,0.128471,-0.122896,-0.214608
"2019-10-06 14:17:11.436 +0000",1570371431.436379,-2.232668,-0.136847,0.629718,-0.781468,0.136421,0.608849,0.000000,0.000000,0.000000,-1,0.958016,-0.983741,0.684489,-0.107402,-0.261115,0.047279
"2019-10-06 14:17:11.459 +0000",1570371431.458668,-2.244147,-0.164029,0.625623,-0.771244,0.163294,0.615238,0.000000,0.000000,0.000000,-1,0.218867,-0.071045,1.063120,-0.041790,-0.008738,0.104839
"2019-10-06 14:17:11.481 +0000",1570371431.480993,-2.233984,-0.166953,0.607852,-0.777077,0.166179,0.607072,0.000000,0.000000,0.000000,-1,-0.938834,0.748587,0.324670,-0.172996,0.081090,0.004317
"2019-10-06 14:17:11.503 +0000",1570371431.503288,-2.213038,-0.131723,0.586138,-0.793818,0.131342,0.593803,0.000000,0.000000,0.000000,-1,-2.045198,1.295363,-1.313210,-0.152425,-0.486643,0.243523
"2019-10-06 14:17:11.526 +0000",1570371431.525578,-2.185780,-0.083276,0.572461,-0.813952,0.083179,0.574946,0.000000,0.000000,0.000000,-1,-1.458814,1.274055,-1.161423,0.141391,-0.402073,0.222173
"2019-10-06 14:17:11.548 +0000",1570371431.547885,-2.157918,-0.050738,0.564332,-0.831467,0.050716,0.553254,0.000000,0.000000,0.000000,-1,-1.064443,1.654572,-1.101364,0.104828,-0.241802,0.197997
"2019-10-06 14:17:11.570 +0000",1570371431.570171,-2.109653,-0.032665,0.560407,-0.857838,0.032660,0.512882,0.000000,0.000000,0.000000,-1,-0.052176,1.964641,0.079793,0.143895,0.063166,-0.156741
"2019-10-06 14:17:11.592 +0000",1570371431.592470,-2.055955,-0.040471,0.550954,-0.883877,0.040460,0.465967,0.000000,0.000000,0.000000,-1,-0.637734,2.727951,0.621085,0.013149,0.250479,0.011466
"2019-10-06 14:17:11.615 +0000",1570371431.614777,-1.997886,-0.037696,0.518652,-0.909529,0.037687,0.413929,0.000000,0.000000,0.000000,-1,-1.729149,2.431129,0.330485,-0.075869,0.205554,-0.156422
"2019-10-06 14:17:11.637 +0000",1570371431.637084,-1.988827,-0.021039,0.482770,-0.913688,0.021037,0.405871,0.000000,0.000000,0.000000,-1,-1.623946,-0.910248,-0.070278,-0.152657,0.139012,-0.556582
"2019-10-06 14:17:11.659 +0000",1570371431.659360,-2.054053,-0.013664,0.459562,-0.885404,0.013663,0.464622,0.000000,0.000000,0.000000,-1,-0.760345,-3.632289,0.229655,-0.058795,-0.091071,-0.197029
"2019-10-06 14:17:11.682 +0000",1570371431.681663,-2.126625,-0.006573,0.452645,-0.849445,0.006573,0.527636,0.000000,0.000000,0.000000,-1,-0.168616,-3.142977,-0.547292,-0.051083,-0.149609,-0.013140
"2019-10-06 14:17:11.704 +0000",1570371431.703975,-2.187334,0.006933,0.474421,-0.815866,-0.006932,0.578200,0.000000,0.000000,0.000000,-1,0.751551,-2.377151,-1.111939,-0.050208,-0.121180,-0.160887
"2019-10-06 14:17:11.726 +0000",1570371431.726272,-2.221334,0.009671,0.494721,-0.795721,-0.009671,0.605586,0.000000,0.000000,0.000000,-1,0.455701,-1.093786,-0.361766,0.134115,0.289166,0.128728
"2019-10-06 14:17:11.749 +0000",1570371431.748559,-2.239760,0.015847,0.502534,-0.784366,-0.015847,0.620095,0.000000,0.000000,0.000000,-1,-0.051597,-0.868312,-0.532698,0.127842,0.111885,0.022712
"2019-10-06 14:17:11.771 +0000",1570371431.770867,-2.275238,0.026768,0.503582,-0.761700,-0.026764,0.647377,0.000000,0.000000,0.000000,-1,-0.319486,-1.863692,-0.232450,-0.048786,0.054047,-0.135048
"2019-10-06 14:17:11.793 +0000",1570371431.793174,-2.314085,0.026161,0.502663,-0.735995,-0.026158,0.676481,0.000000,0.000000,0.000000,-1,0.239433,-1.534563,0.200298,-0.173154,-0.137309,-0.056547
"2019-10-06 14:17:11.815 +0000",1570371431.815452,-2.343863,0.006270,0.505222,-0.715758,-0.006270,0.698320,0.000000,0.000000,0.000000,-1,0.963440,-1.284544,0.834786,-0.079667,-0.253969,0.037306
"2019-10-06 14:17:11.838 +0000",1570371431.837759,-2.384243,-0.037103,0.505516,-0.686525,0.037095,0.726159,0.000000,0.000000,0.000000,-1,1.622950,-2.591417,1.602158,-0.104003,0.087631,-0.140542
"2019-10-06 14:17:11.860 +0000",1570371431.860066,-2.480005,-0.085847,0.498665,-0.612108,0.085741,0.786112,0.000000,0.000000,0.000000,-1,1.124063,-4.475866,1.695586,-0.044463,-0.034426,-0.277781
"2019-10-06 14:17:11.882 +0000",1570371431.882343,-2.567388,-0.130669,0.470134,-0.538537,0.130297,0.832467,0.000000,0.000000,0.000000,-1,0.668551,-3.055253,2.334085,0.027794,0.054670,0.013725
"2019-10-06 14:17:11.905 +0000",1570371431.904650,-2.632586,-0.166499,0.427809,-0.480571,0.165731,0.861153,0.000000,0.000000,0.000000,-1,0.133928,-2.319392,2.451378,0.140346,-0.042516,0.038551
"2019-10-06 14:17:11.927 +0000",1570371431.926958,-2.680828,-0.187558,0.373028,-0.436835,0.186461,0.880004,0.000000,0.000000,0.000000,-1,-0.464209,-1.462649,2.660612,0.078955,0.031252,0.025757
"2019-10-06 14:17:11.949 +0000",1570371431.949250,-2.729118,-0.199516,0.310913,-0.392925,0.198195,0.897958,0.000000,0.000000,0.000000,-1,-0.815350,-1.632376,2.707868,0.118190,0.025193,-0.009988
"2019-10-06 14:17:11.972 +0000",1570371431.971542,-2.774984,-0.198077,0.245034,-0.351443,0.196785,0.915294,0.000000,0.000000,0.000000,-1,-1.316074,-1.501273,2.627095,0.064684,-0.037086,-0.091655
"2019-10-06 14:17:11.994 +0000",1570371431.993839,-2.830469,-0.187050,0.180254,-0.300788,0.185961,0.935385,0.000000,0.000000,0.000000,-1,-1.450431,-2.148065,2.393354,0.063758,-0.118853,-0.132177
"2019-10-06 14:17:12.016 +0000",1570371432.016157,-2.882409,-0.173202,0.123271,-0.252457,0.172338,0.952137,0.000000,0.000000,0.000000,-1,-1.133400,-1.588875,2.221054,0.066162,-0.175100,0.083278
"2019-10-06 14:17:12.038 +0000",1570371432.038464,-2.910332,-0.165719,0.066798,-0.226065,0.164962,0.960043,0.000000,0.000000,0.000000,-1,-0.938997,-0.071869,2.576112,0.138403,-0.056884,0.463739
"2019-10-06 14:17:12.061 +0000",1570371432.060741,-2.888757,-0.156095,-0.010837,-0.247109,0.155462,0.956435,0.000000,0.000000,0.000000,-1,-1.351861,2.108454,3.702840,0.805657,-0.319509,0.211671
"2019-10-06 14:17:12.083 +0000",1570371432.083048,-2.859352,-0.161844,-0.102869,-0.274869,0.161138,0.947883,0.000000,0.000000,0.000000,-1,-0.358766,1.774160,3.673979,0.721860,-0.202459,-0.276130
"2019-10-06 14:17:12.105 +0000",1570371432.105333,-2.831327,-0.180254,-0.152112,-0.300365,0.179279,0.936824,0.000000,0.000000,0.000000,-1,0.197334,1.707474,1.635360,-1.231984,0.939312,-0.076366
"2019-10-06 14:17:12.128 +0000",1570371432.127634,-2.809602,-0.180149,-0.176122,-0.320651,0.179176,0.930096,0.000000,0.000000,0.000000,-1,-0.789137,0.659244,0.752293,-0.318006,0.572502,0.033206
"2019-10-06 14:17:12.150 +0000",1570371432.149940,-2.823620,-0.158972,-0.194989,-0.308699,0.158303,0.937894,0.000000,0.000000,0.000000,-1,-1.140607,-0.999464,0.353767,-0.050279,0.319754,-0.128415
"2019-10-06 14:17:12.172 +0000",1570371432.172241,-2.836496,-0.153840,-0.201212,-0.296838,0.153234,0.942553,0.000000,0.000000,0.000000,-1,0.211051,0.046791,0.048569,-0.016853,0.147913,0.030439
"2019-10-06 14:17:12.195 +0000",1570371432.194555,-2.827629,-0.164983,-0.193295,-0.304637,0.164236,0.938202,0.000000,0.000000,0.000000,-1,0.707739,0.251085,-0.301624,-0.024068,0.158335,0.041199
"2019-10-06 14:17:12.217 +0000",1570371432.216832,-2.819336,-0.177577,-0.179205,-0.311728,0.176645,0.933607,0.000000,0.000000,0.000000,-1,0.700649,0.228178,-0.498669,-0.005243,0.126791,0.042971
"2019-10-06 14:17:12.239 +0000",1570371432.239140,-2.808926,-0.187555,-0.160671,-0.320838,0.186457,0.928599,0.000000,0.000000,0.000000,-1,0.674851,0.347971,-0.693268,0.009040,0.093313,-0.017284
"2019-10-06 14:17:12.261 +0000",1570371432.261446,-2.804743,-0.191101,-0.139770,-0.324499,0.189940,0.926619,0.000000,0.000000,0.000000,-1,0.265895,-0.201720,-0.918064,-0.134577,0.350618,-0.036666
"2019-10-06 14:17:12.284 +0000",1570371432.283723,-2.810586,-0.183994,-0.114853,-0.319510,0.182957,0.929753,0.000000,0.000000,0.000000,-1,0.040895,-0.578404,-1.278295,-0.179056,0.398799,-0.059742
"2019-10-06 14:17:12.306 +0000",1570371432.306021,-2.813876,-0.176368,-0.086374,-0.316889,0.175455,0.932093,0.000000,0.000000,0.000000,-1,0.043766,-0.167454,-1.258371,0.065195,0.154669,-0.041758
"2019-10-06 14:17:12.328 +0000",1570371432.328338,-2.802292,-0.161713,-0.059082,-0.328485,0.161009,0.930684,0.000000,0.000000,0.000000,-1,-0.409535,0.516651,-1.491657,0.073694,-0.041670,-0.125417
"2019-10-06 14:17:12.351 +0000",1570371432.350646,-2.786544,-0.135262,-0.029740,-0.344460,0.134849,0.929066,0.000000,0.000000,0.000000,-1,-0.781611,0.398956,-1.665688,0.060540,-0.069527,-0.117801
"2019-10-06 14:17:12.373 +0000",1570371432.372922,-2.777293,-0.114004,-0.000225,-0.353982,0.113757,0.928308,0.000000,0.000000,0.000000,-1,-0.166045,0.515663,-1.455568,0.003778,-0.282962,-0.004068
"2019-10-06 14:17:12.395 +0000",1570371432.395230,-2.742834,-0.110101,0.033174,-0.385923,0.109879,0.915964,0.000000,0.000000,0.000000,-1,0.511808,1.412956,-1.405606,0.090406,-0.390595,0.078711
"2019-10-06 14:17:12.418 +0000",1570371432.417537,-2.722793,-0.106817,0.057959,-0.404347,0.106614,0.908371,0.000000,0.000000,0.000000,-1,0.168420,0.503333,-0.870449,0.068699,-0.251191,-0.056900
"2019-10-06 14:17:12.440 +0000",1570371432.439814,-2.716664,-0.100660,0.069436,-0.410169,0.100491,0.906456,0.000000,0.000000,0.000000,-1,-0.357640,0.009592,-0.291921,-0.168352,0.106220,-0.146645
"2019-10-06 14:17:12.462 +0000",1570371432.462122,-2.731533,-0.089855,0.062132,-0.397055,0.089734,0.913397,0.000000,0.000000,0.000000,-1,-0.494607,-0.964389,0.119842,-0.428231,-0.020031,-0.268210
"2019-10-06 14:17:12.484 +0000",1570371432.484428,-2.747509,-0.080519,0.060186,-0.382718,0.080432,0.920357,0.000000,0.000000,0.000000,-1,-0.404858,-0.205142,-0.146133,0.083311,0.023862,0.171379
"2019-10-06 14:17:12.507 +0000",1570371432.506735,-2.733912,-0.072911,0.059269,-0.395428,0.072846,0.915604,0.000000,0.000000,0.000000,-1,-0.252395,0.734802,-0.135803,-0.039295,0.031524,0.027481
"2019-10-06 14:17:12.529 +0000",1570371432.529013,-2.722789,-0.068319,0.059408,-0.405719,0.068266,0.911445,0.000000,0.000000,0.000000,-1,-0.157980,0.424136,-0.000267,-0.031613,-0.049375,-0.034232
"2019-10-06 14:17:12.551 +0000",1570371432.551312,-2.716158,-0.065819,0.057920,-0.411823,0.065771,0.908887,0.000000,0.000000,0.000000,-1,-0.091845,0.187800,-0.045281,-0.064571,0.021890,-0.044492
"2019-10-06 14:17:12.574 +0000",1570371432.573628,-2.714435,-0.064307,0.060388,-0.413429,0.064262,0.908266,0.000000,0.000000,0.000000,-1,-0.004408,0.065783,-0.114871,0.008399,-0.088905,-0.033205
"2019-10-06 14:17:12.596 +0000",1570371432.595934,-2.722592,-0.064937,0.051307,-0.405990,0.064891,0.911571,0.000000,0.000000,0.000000,-1,-0.100536,-0.670251,0.428775,-0.019562,-0.396205,-0.136455
"2019-10-06 14:17:12.618 +0000",1570371432.618217,-2.735473,-0.066460,0.034797,-0.394175,0.066411,0.916633,0.000000,0.000000,0.000000,-1,-0.267466,-0.235309,0.945870,-0.042150,-0.049565,0.015359
"2019-10-06 14:17:12.641 +0000",1570371432.640519,-2.729564,-0.080962,-0.000541,-0.399157,0.080874,0.913309,0.000000,0.000000,0.000000,-1,0.156993,0.628176,2.151636,-0.208372,-0.196260,0.019736
"2019-10-06 14:17:12.663 +0000",1570371432.662827,-2.713456,-0.101976,-0.023928,-0.413020,0.101799,0.905015,0.000000,0.000000,0.000000,-1,0.381667,1.053934,0.885082,-0.056585,-0.123238,0.061645
"2019-10-06 14:17:12.685 +0000",1570371432.685104,-2.697108,-0.112186,-0.041983,-0.427290,0.111951,0.897157,0.000000,0.000000,0.000000,-1,-0.108914,0.354097,0.970479,0.087690,0.318072,-0.159654
"2019-10-06 14:17:12.707 +0000",1570371432.707411,-2.702944,-0.111435,-0.061387,-0.422082,0.111205,0.899711,0.000000,0.000000,0.000000,-1,-0.499706,-0.224477,0.590879,-0.283362,0.444139,0.010247
"2019-10-06 14:17:12.730 +0000",1570371432.729714,-2.707435,-0.107803,-0.072583,-0.418204,0.107594,0.901958,0.000000,0.000000,0.000000,-1,-0.218656,-0.069345,0.275766,-0.023583,0.048274,0.018009
"2019-10-06 14:17:12.752 +0000",1570371432.752026,-2.710376,-0.112461,-0.075862,-0.415336,0.112224,0.902719,0.000000,0.000000,0.000000,-1,0.242501,-0.183900,0.186421,0.009742,-0.026042,-0.009073
"2019-10-06 14:17:12.774 +0000",1570371432.774303,-2.713435,-0.113297,-0.075096,-0.412533,0.113055,0.903900,0.000000,0.000000,0.000000,-1,-0.137562,-0.131153,-0.129308,0.044247,0.011915,-0.065612
"2019-10-06 14:17:12.797 +0000",1570371432.796610,-2.718410,-0.105654,-0.073369,-0.408375,0.105457,0.906702,0.000000,0.000000,0.000000,-1,-0.307442,-0.249757,-0.242457,-0.002636,0.034496,-0.049006
"2019-10-06 14:17:12.819 +0000",1570371432.818917,-2.722807,-0.097562,-0.069724,-0.404717,0.097407,0.909239,0.000000,0.000000,0.000000,-1,-0.213645,-0.236459,-0.313246,-0.108787,0.199086,0.005952
"2019-10-06 14:17:12.841 +0000",1570371432.841219,-2.728729,-0.093203,-0.063144,-0.399492,0.093068,0.912000,0.000000,0.000000,0.000000,-1,0.048226,-0.290712,-0.374679,-0.112517,0.183161,0.043749
"2019-10-06 14:17:12.863 +0000",1570371432.863496,-2.731507,-0.091781,-0.054576,-0.397010,0.091652,0.913227,0.000000,0.000000,0.000000,-1,0.101008,-0.090210,-0.383880,-0.017922,0.059440,-0.008518
"2019-10-06 14:17:12.886 +0000",1570371432.885810,-2.731072,-0.094690,-0.044372,-0.397299,0.094548,0.912805,0.000000,0.000000,0.000000,-1,0.537757,0.038051,-0.347615,0.051825,-0.157155,-0.035257
"2019-10-06 14:17:12.908 +0000",1570371432.908118,-2.721582,-0.098095,-0.035422,-0.405810,0.097938,0.908695,0.000000,0.000000,0.000000,-1,0.037983,0.564678,-0.261944,0.068514,-0.172889,0.036358
"2019-10-06 14:17:12.930 +0000",1570371432.930394,-2.710430,-0.092279,-0.036800,-0.416149,0.092148,0.904615,0.000000,0.000000,0.000000,-1,-0.256980,0.356569,0.033785,-0.196613,0.013672,-0.131940
"2019-10-06 14:17:12.953 +0000",1570371432.952699,-2.711740,-0.090652,-0.035062,-0.415025,0.090528,0.905295,0.000000,0.000000,0.000000,-1,0.096988,-0.057303,-0.144749,0.001650,-0.031400,0.005838
"2019-10-06 14:17:12.975 +0000",1570371432.975008,-2.712414,-0.092143,-0.030152,-0.414359,0.092012,0.905450,0.000000,0.000000,0.000000,-1,0.141933,-0.079613,-0.192913,0.007361,-0.026232,-0.000864
"2019-10-06 14:17:12.997 +0000",1570371432.997281,-2.714623,-0.095117,-0.023547,-0.412243,0.094974,0.906110,0.000000,0.000000,0.000000,-1,0.273488,-0.117810,-0.223531,-0.114048,0.043301,0.021532
"2019-10-06 14:17:13.020 +0000",1570371433.019593,-2.714751,-0.097069,-0.017965,-0.412049,0.096916,0.905993,0.000000,0.000000,0.000000,-1,0.125794,-0.000782,-0.165087,-0.124694,0.045662,0.009214
"2019-10-06 14:17:13.042 +0000",1570371433.041901,-2.714464,-0.097802,-0.014886,-0.412279,0.097646,0.905810,0.000000,0.000000,0.000000,-1,0.075987,0.026590,-0.079754,-0.089308,0.024348,-0.023592
"2019-10-06 14:17:13.064 +0000",1570371433.064208,-2.713411,-0.098513,-0.013509,-0.413204,0.098354,0.905311,0.000000,0.000000,0.000000,-1,0.039792,0.032893,-0.036407,-0.036289,0.005268,-0.038658
"2019-10-06 14:17:13.086 +0000",1570371433.086484,-2.712836,-0.098947,-0.012553,-0.413706,0.098786,0.905035,0.000000,0.000000,0.000000,-1,0.036046,0.013238,-0.028791,-0.054799,0.030716,-0.017752
"2019-10-06 14:17:13.109 +0000",1570371433.108792,-2.712625,-0.099573,-0.011748,-0.413872,0.099409,0.904891,0.000000,0.000000,0.000000,-1,0.037360,0.003460,-0.012577,-0.062111,0.032152,-0.013290
"2019-10-06 14:17:13.131 +0000",1570371433.131099,-2.712203,-0.100217,-0.011315,-0.414227,0.100049,0.904658,0.000000,0.000000,0.000000,-1,0.028639,0.024412,-0.001601,-0.058520,0.030093,-0.020564
"2019-10-06 14:17:13.153 +0000",1570371433.153391,-2.711496,-0.100438,-0.011203,-0.414857,0.100269,0.904345,0.000000,0.000000,0.000000,-1,0.004822,0.025647,0.002099,-0.068205,0.028866,-0.024966
"2019-10-06 14:17:13.176 +0000",1570371433.175683,-2.711559,-0.100267,-0.011095,-0.414808,0.100099,0.904387,0.000000,0.000000,0.000000,-1,-0.009034,-0.026048,-0.003651,-0.066485,0.030394,-0.025801
"2019-10-06 14:17:13.198 +0000",1570371433.197992,-2.712191,-0.099951,-0.011762,-0.414249,0.099785,0.904677,0.000000,0.000000,0.000000,-1,-0.030202,-0.003781,0.030878,-0.074764,0.019371,-0.024871
"2019-10-06 14:17:13.220 +0000",1570371433.220279,-2.673887,-0.113475,-0.008972,-0.447940,0.113232,0.886864,0.000000,0.000000,0.000000,-1,-0.031354,0.012467,0.049333,-0.023068,0.012821,-0.010277
"2019-10-06 14:17:13.243 +0000",1570371433.242576,-2.674017,-0.113264,-0.010392,-0.447836,0.113022,0.886944,0.000000,0.000000,0.000000,-1,-0.040147,-0.007218,0.049504,-0.025278,0.013565,-0.003963
"2019-10-06 14:17:13.265 +0000",1570371433.264883,-2.670196,-0.115969,-0.011315,-0.451080,0.115710,0.884951,0.000000,0.000000,0.000000,-1,-0.036364,-0.004720,0.053208,-0.020569,0.012922,0.008406
"2019-10-06 14:17:13.287 +0000",1570371433.287189,-2.670414,-0.115729,-0.012209,-0.450901,0.115471,0.885073,0.000000,0.000000,0.000000,-1,-0.030203,-0.004823,0.025920,-0.018170,0.020729,0.007596
"2019-10-06 14:17:13.309 +0000",1570371433.309498,-2.663586,-0.117960,-0.012457,-0.456814,0.117687,0.881743,0.000000,0.000000,0.000000,-1,-0.038944,0.002618,0.033292,-0.022358,0.008198,0.005784
"2019-10-06 14:17:13.332 +0000",1570371433.331775,-2.663615,-0.117478,-0.013378,-0.456814,0.117208,0.881807,0.000000,0.000000,0.000000,-1,-0.031432,0.005067,0.029552,-0.016178,0.006495,0.006956
"2019-10-06 14:17:13.354 +0000",1570371433.354079,-2.663509,-0.117401,-0.013953,-0.456912,0.117132,0.881766,0.000000,0.000000,0.000000,-1,-0.006396,0.012406,0.015852,-0.016889,-0.001913,0.002557
"2019-10-06 14:17:13.376 +0000",1570371433.376374,-2.657438,-0.118604,-0.013496,-0.462190,0.118326,0.878851,0.000000,0.000000,0.000000,-1,0.001067,0.004999,0.001030,-0.016539,0.010473,-0.005209
"2019-10-06 14:17:13.399 +0000",1570371433.398665,-2.657989,-0.118599,-0.013285,-0.461706,0.118321,0.879106,0.000000,0.000000,0.000000,-1,0.003578,-0.043083,-0.008690,-0.022089,0.000499,-0.004686
"2019-10-06 14:17:13.421 +0000",1570371433.420975,-2.658266,-0.118433,-0.013067,-0.461472,0.118157,0.879251,0.000000,0.000000,0.000000,-1,-0.003940,-0.008658,-0.012720,-0.030701,0.003440,0.000357
"2019-10-06 14:17:13.443 +0000",1570371433.443264,-2.655567,-0.117404,-0.012526,-0.463900,0.117135,0.878109,0.000000,0.000000,0.000000,-1,0.004860,0.007356,-0.010382,-0.022977,-0.005151,0.002109
"2019-10-06 14:17:13.466 +0000",1570371433.465588,-2.651382,-0.115768,-0.011898,-0.467660,0.115509,0.876329,0.000000,0.000000,0.000000,-1,0.008681,0.000053,0.005804,-0.022178,-0.007004,0.002776
"2019-10-06 14:17:13.488 +0000",1570371433.487865,-2.651817,-0.116087,-0.012115,-0.467262,0.115826,0.876499,0.000000,0.000000,0.000000,-1,0.001197,-0.022039,0.019642,-0.027199,0.000110,0.001766
"2019-10-06 14:17:13.510 +0000",1570371433.510171,-2.653149,-0.116190,-0.012197,-0.466088,0.115929,0.877110,0.000000,0.000000,0.000000,-1,0.003587,-0.079930,0.000309,-0.025581,0.011253,0.000728
"2019-10-06 14:17:13.532 +0000",1570371433.532480,-2.652531,-0.117837,-0.011831,-0.466540,0.117565,0.876652,0.000000,0.000000,0.000000,-1,0.026185,-0.045473,-0.001227,-0.017743,0.011036,0.010631
"2019-10-06 14:17:13.555 +0000",1570371433.554758,-2.652687,-0.118498,-0.011304,-0.466366,0.118221,0.876656,0.000000,0.000000,0.000000,-1,0.042485,-0.001216,-0.010296,-0.002063,0.017552,0.011130
"2019-10-06 14:17:13.577 +0000",1570371433.577080,-2.653213,-0.119073,-0.010708,-0.465873,0.118792,0.876841,0.000000,0.000000,0.000000,-1,0.034930,-0.036897,-0.011223,0.014854,0.010373,0.011266
"2019-10-06 14:17:13.599 +0000",1570371433.599375,-2.659535,-0.122035,-0.010419,-0.460155,0.121732,0.879453,0.000000,0.000000,0.000000,-1,0.047403,0.003585,-0.036378,0.025951,0.010119,0.013186
"2019-10-06 14:17:13.622 +0000",1570371433.621679,-2.659113,-0.122489,-0.009239,-0.460501,0.122183,0.879210,0.000000,0.000000,0.000000,-1,0.039880,0.017108,-0.037741,0.019446,0.015497,0.017229
"2019-10-06 14:17:13.644 +0000",1570371433.643957,-2.658528,-0.122805,-0.008082,-0.460997,0.122496,0.878906,0.000000,0.000000,0.000000,-1,0.032344,0.024471,-0.041532,0.015288,0.014573,0.021317
"2019-10-06 14:17:13.667 +0000",1570371433.666760,-2.657686,-0.122955,-0.006837,-0.461729,0.122645,0.878501,0.000000,0.000000,0.000000,-1,0.033552,0.046556,-0.056614,0.018552,0.005269,0.021996
"2019-10-06 14:17:13.689 +0000",1570371433.689068,-2.659504,-0.122203,-0.006213,-0.460173,0.121899,0.879421,0.000000,0.000000,0.000000,-1,0.011109,0.071251,-0.027068,0.004683,-0.004620,0.017888
"2019-10-06 14:17:13.711 +0000",1570371433.711377,-2.658036,-0.122397,-0.006102,-0.461453,0.122091,0.878724,0.000000,0.000000,0.000000,-1,0.011237,0.065226,0.005239,-0.016025,0.004862,0.009079
"2019-10-06 14:17:13.734 +0000",1570371433.733652,-2.656703,-0.122505,-0.006147,-0.462617,0.122199,0.878096,0.000000,0.000000,0.000000,-1,-0.010087,0.057841,0.006536,-0.016555,0.015496,0.000520
"2019-10-06 14:17:13.756 +0000",1570371433.755953,-2.651576,-0.122057,-0.006418,-0.467139,0.121754,0.875761,0.000000,0.000000,0.000000,-1,-0.048909,0.035770,0.025321,-0.024896,0.002529,-0.005506
"2019-10-06 14:17:13.778 +0000",1570371433.778241,-2.651267,-0.121431,-0.007971,-0.467446,0.121133,0.875683,0.000000,0.000000,0.000000,-1,-0.058824,0.018669,0.057722,-0.040504,-0.002007,0.007648
"2019-10-06 14:17:13.801 +0000",1570371433.800545,-2.651075,-0.121044,-0.009539,-0.467636,0.120749,0.875635,0.000000,0.000000,0.000000,-1,-0.041273,0.011291,0.056555,-0.045929,0.006815,0.004904
"2019-10-06 14:17:13.823 +0000",1570371433.822860,-2.651048,-0.120769,-0.011301,-0.467675,0.120476,0.875652,0.000000,0.000000,0.000000,-1,-0.043778,0.016210,0.056510,-0.022102,0.017418,-0.004985
"2019-10-06 14:17:13.845 +0000",1570371433.845160,-2.651167,-0.120638,-0.012309,-0.467579,0.120346,0.875721,0.000000,0.000000,0.000000,-1,-0.018856,-0.012211,0.020797,-0.018917,0.018189,-0.000874
"2019-10-06 14:17:13.867 +0000",1570371433.867468,-2.651481,-0.120613,-0.012536,-0.467305,0.120321,0.875870,0.000000,0.000000,0.000000,-1,-0.005130,-0.006126,0.002141,-0.013637,0.020090,0.011092
"2019-10-06 14:17:13.890 +0000",1570371433.889743,-2.651494,-0.120481,-0.012472,-0.467301,0.120189,0.875891,0.000000,0.000000,0.000000,-1,-0.005180,0.002432,-0.011581,-0.012908,0.016743,0.014765
"2019-10-06 14:17:13.912 +0000",1570371433.912051,-2.650968,-0.119714,-0.012286,-0.467804,0.119428,0.875726,0.000000,0.000000,0.000000,-1,-0.020246,0.013479,-0.016649,-0.006378,-0.002881,0.009864
"2019-10-06 14:17:13.934 +0000",1570371433.934358,-2.650733,-0.119155,-0.012258,-0.468042,0.118874,0.875674,0.000000,0.000000,0.000000,-1,-0.020212,0.004906,-0.006648,0.002359,-0.016045,-0.001376
"2019-10-06 14:17:13.957 +0000",1570371433.956635,-2.650869,-0.118822,-0.012429,-0.467941,0.118543,0.875773,0.000000,0.000000,0.000000,-1,-0.010142,-0.011038,0.004663,-0.000092,-0.020566,0.003774
"2019-10-06 14:17:13.979 +0000",1570371433.978943,-2.651096,-0.116261,-0.012635,-0.467884,0.115999,0.876144,0.000000,0.000000,0.000000,-1,0.004942,0.001298,0.011997,-0.007091,-0.010805,0.013611
"2019-10-06 14:17:14.001 +0000",1570371434.001244,-2.650469,-0.116520,-0.012683,-0.468419,0.116256,0.875824,0.000000,0.000000,0.000000,-1,0.020004,0.024673,0.010555,-0.003368,0.004563,0.002288
"2019-10-06 14:17:14.024 +0000",1570371434.023557,-2.650095,-0.116791,-0.012720,-0.468731,0.116526,0.875621,0.000000,0.000000,0.000000,-1,0.003672,0.008660,0.006969,-0.006626,0.008916,0.003728
"2019-10-06 14:17:14.046 +0000",1570371434.045854,-2.648308,-0.118317,-0.012746,-0.470211,0.118041,0.874624,0.000000,0.000000,0.000000,-1,-0.007597,-0.006074,0.013299,-0.018589,0.010712,0.009180
"2019-10-06 14:17:14.068 +0000",1570371434.068136,-2.648366,-0.118251,-0.013070,-0.470164,0.117975,0.874658,0.000000,0.000000,0.000000,-1,-0.010033,-0.001158,0.013059,-0.019887,0.008901,0.008093
"2019-10-06 14:17:14.090 +0000",1570371434.090450,-2.648333,-0.118301,-0.013446,-0.470190,0.118025,0.874638,0.000000,0.000000,0.000000,-1,-0.003735,0.000099,0.019253,-0.017786,0.002550,0.000622
"2019-10-06 14:17:14.113 +0000",1570371434.112727,-2.648532,-0.118314,-0.013813,-0.470015,0.118038,0.874730,0.000000,0.000000,0.000000,-1,-0.006261,-0.010983,0.016870,-0.012361,-0.001309,-0.002248
"2019-10-06 14:17:14.135 +0000",1570371434.135034,-2.648125,-0.118697,-0.013990,-0.470350,0.118418,0.874499,0.000000,0.000000,0.000000,-1,0.001217,-0.015940,0.005752,-0.011538,0.003728,0.010069
"2019-10-06 14:17:14.157 +0000",1570371434.157341,-2.648215,-0.119068,-0.013957,-0.470250,0.118786,0.874503,0.000000,0.000000,0.000000,-1,0.021294,0.003746,0.004345,-0.007045,0.002887,0.013849
"2019-10-06 14:17:14.180 +0000",1570371434.179649,-2.648025,-0.119421,-0.013685,-0.470397,0.119138,0.874376,0.000000,0.000000,0.000000,-1,0.021260,0.006172,-0.004360,-0.001329,0.005938,0.009352
"2019-10-06 14:17:14.202 +0000",1570371434.201927,-2.647836,-0.121620,-0.013398,-0.470437,0.121320,0.874054,0.000000,0.000000,0.000000,-1,0.017486,-0.002449,-0.006763,-0.005775,0.013171,0.009750
"2019-10-06 14:17:14.224 +0000",1570371434.224234,-2.648347,-0.122143,-0.013178,-0.469960,0.121840,0.874239,0.000000,0.000000,0.000000,-1,0.009943,-0.014763,-0.009137,-0.002559,0.007540,0.013686
"2019-10-06 14:17:14.247 +0000",1570371434.246541,-2.648517,-0.122135,-0.012896,-0.469812,0.121832,0.874319,0.000000,0.000000,0.000000,-1,0.002556,-0.004741,-0.009538,-0.002616,0.005060,0.014002
"2019-10-06 14:17:14.269 +0000",1570371434.268835,-2.648923,-0.122368,-0.012775,-0.469443,0.122063,0.874485,0.000000,0.000000,0.000000,-1,0.003832,0.005113,-0.005903,-0.002953,0.002235,0.011303
"2019-10-06 14:17:14.291 +0000",1570371434.291125,-2.648662,-0.122333,-0.012587,-0.469673,0.122028,0.874366,0.000000,0.000000,0.000000,-1,0.000074,0.012492,-0.005970,0.001396,0.001660,0.012795
"2019-10-06 14:17:14.313 +0000",1570371434.313433,-2.648814,-0.122441,-0.012508,-0.469534,0.122136,0.874426,0.000000,0.000000,0.000000,-1,0.003846,0.003897,-0.002170,0.001272,0.001384,0.009866
"2019-10-06 14:17:14.336 +0000",1570371434.335740,-2.648708,-0.122465,-0.012518,-0.469625,0.122159,0.874374,0.000000,0.000000,0.000000,-1,0.000126,0.006394,0.007730,-0.004893,-0.001279,0.016053
"2019-10-06 14:17:14.358 +0000",1570371434.358016,-2.647865,-0.122245,-0.012634,-0.470375,0.121940,0.874001,0.000000,0.000000,0.000000,-1,-0.004876,0.008869,0.011427,-0.014137,0.000450,0.010627
"2019-10-06 14:17:14.380 +0000",1570371434.380324,-2.647603,-0.122316,-0.013012,-0.470600,0.122011,0.873870,0.000000,0.000000,0.000000,-1,-0.007375,0.015023,0.012612,-0.016247,-0.002184,0.005418
"2019-10-06 14:17:14.403 +0000",1570371434.402637,-2.647447,-0.122395,-0.013419,-0.470731,0.122089,0.873788,0.000000,0.000000,0.000000,-1,-0.004850,0.008893,0.017629,-0.015032,-0.002827,0.000754
"2019-10-06 14:17:14.425 +0000",1570371434.424935,-2.645808,-0.123171,-0.013529,-0.472118,0.122860,0.872932,0.000000,0.000000,0.000000,-1,-0.002235,0.006656,0.011108,-0.013204,0.006763,0.005516
"2019-10-06 14:17:14.447 +0000",1570371434.447215,-2.645963,-0.123299,-0.013652,-0.471975,0.122987,0.872992,0.000000,0.000000,0.000000,-1,0.002753,-0.014268,0.007574,-0.014674,0.004302,0.012797
"2019-10-06 14:17:14.470 +0000",1570371434.469524,-2.646258,-0.123348,-0.013850,-0.471715,0.123035,0.873125,0.000000,0.000000,0.000000,-1,-0.001017,-0.009359,0.005048,-0.012477,0.007534,0.019026
"2019-10-06 14:17:14.492 +0000",1570371434.491825,-2.646053,-0.123744,-0.013817,-0.471870,0.123428,0.872986,0.000000,0.000000,0.000000,-1,-0.002298,0.010285,-0.005051,-0.004326,0.006882,0.005432
"2019-10-06 14:17:14.514 +0000",1570371434.514107,-2.646137,-0.124056,-0.013668,-0.471779,0.123738,0.872991,0.000000,0.000000,0.000000,-1,-0.009873,-0.005748,-0.014835,0.002571,0.002803,-0.002142
"2019-10-06 14:17:14.536 +0000",1570371434.536415,-2.647141,-0.123254,-0.013432,-0.470949,0.122942,0.873552,0.000000,0.000000,0.000000,-1,-0.012414,-0.045119,-0.015728,0.001238,-0.005800,0.004439
"2019-10-06 14:17:14.559 +0000",1570371434.558723,-2.648096,-0.123059,-0.013358,-0.470126,0.122749,0.874022,0.000000,0.000000,0.000000,-1,0.001433,-0.031543,-0.005918,-0.003858,-0.010979,0.018983
"2019-10-06 14:17:14.581 +0000",1570371434.581030,-2.648540,-0.121374,-0.013335,-0.469835,0.121077,0.874412,0.000000,0.000000,0.000000,-1,0.009026,0.007866,0.004897,-0.004790,-0.013777,0.014153
"2019-10-06 14:17:14.603 +0000",1570371434.603307,-2.648375,-0.121678,-0.013467,-0.469962,0.121378,0.874301,0.000000,0.000000,0.000000,-1,0.009228,0.006935,0.015681,-0.002648,-0.008845,0.011777
"2019-10-06 14:17:14.626 +0000",1570371434.625622,-2.648255,-0.121947,-0.013698,-0.470051,0.121645,0.874216,0.000000,0.000000,0.000000,-1,0.006727,0.010629,0.016888,-0.006969,0.009794,0.007147
"2019-10-06 14:17:14.648 +0000",1570371434.647916,-2.648175,-0.123309,-0.013915,-0.470043,0.122996,0.874032,0.000000,0.000000,0.000000,-1,-0.000825,0.020433,0.008115,0.002590,0.008641,0.005500
"2019-10-06 14:17:14.670 +0000",1570371434.670199,-2.647984,-0.123084,-0.014174,-0.470222,0.122774,0.873967,0.000000,0.000000,0.000000,-1,-0.018412,0.003189,0.004539,-0.000893,0.007277,0.012966
"2019-10-06 14:17:14.693 +0000",1570371434.692505,-2.647876,-0.122979,-0.014315,-0.470323,0.122669,0.873927,0.000000,0.000000,0.000000,-1,-0.002101,0.010577,0.004481,-0.003279,0.011440,0.018437
"2019-10-06 14:17:14.715 +0000",1570371434.714814,-2.647509,-0.123136,-0.014367,-0.470635,0.122825,0.873737,0.000000,0.000000,0.000000,-1,0.004183,0.021656,0.005626,-0.001961,0.008950,0.015926
"2019-10-06 14:17:14.737 +0000",1570371434.737121,-2.647864,-0.124448,-0.014731,-0.470247,0.124127,0.873762,0.000000,0.000000,0.000000,-1,-0.022144,0.006901,0.010709,-0.004835,0.012943,0.015017
"2019-10-06 14:17:14.759 +0000",1570371434.759398,-2.647836,-0.123999,-0.015193,-0.470298,0.123681,0.873798,0.000000,0.000000,0.000000,-1,-0.033434,0.005666,0.010716,-0.008569,0.012687,0.018551
"2019-10-06 14:17:14.782 +0000",1570371434.781706,-2.647561,-0.123595,-0.015642,-0.470562,0.123280,0.873713,0.000000,0.000000,0.000000,-1,-0.021982,0.014513,0.009018,-0.000553,0.010784,0.017904
"2019-10-06 14:17:14.804 +0000",1570371434.804014,-2.648461,-0.123676,-0.016235,-0.469771,0.123361,0.874127,0.000000,0.000000,0.000000,-1,-0.034526,0.010815,0.009046,0.002485,0.004477,0.013233
"2019-10-06 14:17:14.826 +0000",1570371434.826290,-2.648097,-0.123223,-0.016741,-0.470115,0.122911,0.874005,0.000000,0.000000,0.000000,-1,-0.025734,0.021894,0.010192,0.000618,-0.003206,0.011448
"2019-10-06 14:17:14.849 +0000",1570371434.848611,-2.647564,-0.122814,-0.017270,-0.470605,0.122505,0.873798,0.000000,0.000000,0.000000,-1,-0.026949,0.028078,0.018820,-0.002676,-0.011971,0.006268
"2019-10-06 14:17:14.871 +0000",1570371434.870905,-2.646190,-0.120865,-0.017803,-0.471918,0.120570,0.873359,0.000000,0.000000,0.000000,-1,-0.025718,0.026832,0.013868,-0.011755,-0.008052,0.009560
"2019-10-06 14:17:14.893 +0000",1570371434.893212,-2.645715,-0.120475,-0.018544,-0.472355,0.120184,0.873176,0.000000,0.000000,0.000000,-1,-0.031966,0.025623,0.020079,-0.016155,-0.008887,0.010873
"2019-10-06 14:17:14.915 +0000",1570371434.915489,-2.645183,-0.120349,-0.019283,-0.472826,0.120059,0.872938,0.000000,0.000000,0.000000,-1,-0.018149,0.030564,0.023762,-0.017072,-0.007495,0.008486
"2019-10-06 14:17:14.938 +0000",1570371434.937797,-2.644761,-0.120284,-0.019959,-0.473199,0.119995,0.872745,0.000000,0.000000,0.000000,-1,-0.019403,0.023187,0.025068,-0.018272,-0.004257,0.005963
"2019-10-06 14:17:14.960 +0000",1570371434.960105,-2.642304,-0.120189,-0.020130,-0.475347,0.119899,0.871590,0.000000,0.000000,0.000000,-1,-0.010551,0.015957,0.006165,-0.013636,0.002110,0.001258
"2019-10-06 14:17:14.982 +0000",1570371434.982412,-2.642213,-0.120062,-0.020392,-0.475434,0.119774,0.871560,0.000000,0.000000,0.000000,-1,-0.010564,0.003651,0.005033,-0.016159,0.001427,0.006003
"2019-10-06 14:17:15.005 +0000",1570371435.004690,-2.642237,-0.120042,-0.020469,-0.475414,0.119754,0.871574,0.000000,0.000000,0.000000,-1,0.001961,-0.001278,0.001361,-0.015965,0.000012,0.008324
"2019-10-06 14:17:15.027 +0000",1570371435.026991,-2.641925,-0.119011,-0.020386,-0.475745,0.118730,0.871533,0.000000,0.000000,0.000000,-1,0.009476,-0.000054,-0.001129,-0.006906,-0.005144,0.011875
"2019-10-06 14:17:15.049 +0000",1570371435.049293,-2.641820,-0.119295,-0.020129,-0.475820,0.119012,0.871454,0.000000,0.000000,0.000000,-1,0.019506,0.001176,-0.002376,-0.006449,-0.002573,0.010154
"2019-10-06 14:17:15.072 +0000",1570371435.071582,-2.641720,-0.119610,-0.019855,-0.475889,0.119325,0.871373,0.000000,0.000000,0.000000,-1,0.018257,0.001180,-0.001136,-0.003252,0.000227,0.009990
"2019-10-06 14:17:15.094 +0000",1570371435.093881,-2.642444,-0.120227,-0.019741,-0.475223,0.119938,0.871652,0.000000,0.000000,0.000000,-1,0.010712,0.002386,-0.006112,-0.000973,0.004528,0.011847
"2019-10-06 14:17:15.116 +0000",1570371435.116196,-2.642391,-0.120418,-0.019575,-0.475258,0.120127,0.871607,0.000000,0.000000,0.000000,-1,0.008233,0.001184,0.001341,0.000542,0.006490,0.013921
"2019-10-06 14:17:15.139 +0000",1570371435.138504,-2.642413,-0.120527,-0.019502,-0.475232,0.120235,0.871606,0.000000,0.000000,0.000000,-1,0.004600,-0.001095,-0.000217,0.002332,0.005635,0.015585
"2019-10-06 14:17:15.161 +0000",1570371435.160780,-2.642397,-0.120576,-0.019509,-0.475244,0.120284,0.871594,0.000000,0.000000,0.000000,-1,-0.000406,0.000142,0.002251,0.008340,0.004090,0.017261
"2019-10-06 14:17:15.183 +0000",1570371435.183088,-2.643831,-0.120866,-0.019681,-0.473977,0.120572,0.872243,0.000000,0.000000,0.000000,-1,-0.000416,0.000130,-0.000229,0.000985,0.003665,0.015162
"2019-10-06 14:17:15.205 +0000",1570371435.205395,-2.644162,-0.121095,-0.019722,-0.473675,0.120799,0.872376,0.000000,0.000000,0.000000,-1,0.002101,0.003826,0.000980,-0.001850,0.004018,0.014724
"2019-10-06 14:17:15.228 +0000",1570371435.227672,-2.644079,-0.121111,-0.019801,-0.473746,0.120815,0.872335,0.000000,0.000000,0.000000,-1,-0.000389,0.002614,0.005952,-0.006982,0.000965,0.008555
"2019-10-06 14:17:15.250 +0000",1570371435.249972,-2.643457,-0.120835,-0.019910,-0.474305,0.120541,0.872069,0.000000,0.000000,0.000000,-1,-0.010430,0.001376,0.004718,-0.009872,0.000217,0.010087
"2019-10-06 14:17:15.272 +0000",1570371435.272287,-2.643469,-0.120726,-0.020154,-0.474300,0.120433,0.872087,0.000000,0.000000,0.000000,-1,-0.009165,0.001386,0.007199,-0.009968,0.000127,0.007613
"2019-10-06 14:17:15.295 +0000",1570371435.294595,-2.643533,-0.120649,-0.020428,-0.474249,0.120357,0.872125,0.000000,0.000000,0.000000,-1,-0.002875,-0.001052,0.012186,-0.010492,0.001195,0.011283
"2019-10-06 14:17:15.317 +0000",1570371435.316865,-2.643433,-0.120534,-0.020566,-0.474343,0.120243,0.872090,0.000000,0.000000,0.000000,-1,0.003490,0.007694,0.003124,-0.005928,-0.000446,0.010433
"2019-10-06 14:17:15.339 +0000",1570371435.339174,-2.643614,-0.120371,-0.020621,-0.474194,0.120080,0.872193,0.000000,0.000000,0.000000,-1,0.004742,0.005234,0.003146,-0.002475,-0.001672,0.010513
"2019-10-06 14:17:15.361 +0000",1570371435.361488,-2.643467,-0.120535,-0.020540,-0.474313,0.120243,0.872106,0.000000,0.000000,0.000000,-1,0.007236,0.006451,-0.000585,-0.003760,0.001019,0.013438
"2019-10-06 14:17:15.384 +0000",1570371435.383764,-2.643280,-0.120712,-0.020411,-0.474466,0.120420,0.871998,0.000000,0.000000,0.000000,-1,0.009737,0.010133,-0.003098,-0.006522,0.006900,0.015849
"2019-10-06 14:17:15.406 +0000",1570371435.406072,-2.643256,-0.121468,-0.020291,-0.474443,0.121169,0.871907,0.000000,0.000000,0.000000,-1,0.003463,0.003979,-0.003045,-0.005430,0.006501,0.012706
"2019-10-06 14:17:15.428 +0000",1570371435.428379,-2.643225,-0.121444,-0.020203,-0.474471,0.121146,0.871895,0.000000,0.000000,0.000000,-1,-0.000309,-0.002178,-0.004233,-0.002915,0.003228,0.008415
"2019-10-06 14:17:15.451 +0000",1570371435.450686,-2.643310,-0.121364,-0.020273,-0.474403,0.121066,0.871943,0.000000,0.000000,0.000000,-1,-0.009056,-0.004608,0.004469,-0.004586,-0.003146,0.011220
"2019-10-06 14:17:15.473 +0000",1570371435.472958,-2.643578,-0.121144,-0.020431,-0.474181,0.120848,0.872094,0.000000,0.000000,0.000000,-1,-0.007798,0.001543,0.004414,-0.005448,-0.000151,0.014945
"2019-10-06 14:17:15.495 +0000",1570371435.495271,-2.643564,-0.120935,-0.020558,-0.474205,0.120640,0.872110,0.000000,0.000000,0.000000,-1,-0.009011,0.010296,0.002971,-0.001976,-0.003453,0.011741
"2019-10-06 14:17:15.518 +0000",1570371435.517578,-2.643494,-0.120926,-0.020743,-0.474267,0.120631,0.872077,0.000000,0.000000,0.000000,-1,-0.003980,0.000476,0.008023,-0.000800,-0.002773,0.010766
"2019-10-06 14:17:15.540 +0000",1570371435.539855,-2.643504,-0.121030,-0.021034,-0.474252,0.120735,0.872071,0.000000,0.000000,0.000000,-1,-0.001450,0.002957,0.012964,-0.001990,-0.004646,0.012054
"2019-10-06 14:17:15.562 +0000",1570371435.562163,-2.643573,-0.120652,-0.021211,-0.474214,0.120359,0.872144,0.000000,0.000000,0.000000,-1,0.006050,0.010312,0.005458,-0.003340,-0.000761,0.007343
"2019-10-06 14:17:15.584 +0000",1570371435.584469,-2.643312,-0.120716,-0.021180,-0.474438,0.120423,0.872013,0.000000,0.000000,0.000000,-1,0.002262,0.010286,-0.000746,-0.000553,-0.000825,0.010067
"2019-10-06 14:17:15.607 +0000",1570371435.606778,-2.643178,-0.120806,-0.021121,-0.474549,0.120512,0.871940,0.000000,0.000000,0.000000,-1,0.006016,0.004132,-0.001930,-0.005339,0.000765,0.017266
"2019-10-06 14:17:15.629 +0000",1570371435.629055,-2.643018,-0.121516,-0.021013,-0.474649,0.121217,0.871789,0.000000,0.000000,0.000000,-1,0.013559,0.013986,0.000467,-0.006247,0.005172,0.012748
"2019-10-06 14:17:15.651 +0000",1570371435.651362,-2.642786,-0.121621,-0.020881,-0.474844,0.121321,0.871668,0.000000,0.000000,0.000000,-1,0.004768,0.005367,-0.000701,-0.003732,0.002687,0.007269
"2019-10-06 14:17:15.674 +0000",1570371435.673670,-2.642791,-0.121618,-0.020855,-0.474840,0.121318,0.871670,0.000000,0.000000,0.000000,-1,0.001053,-0.001910,-0.002006,-0.007353,0.002492,0.010822
"2019-10-06 14:17:15.696 +0000",1570371435.695945,-2.642780,-0.121517,-0.020861,-0.474856,0.121218,0.871675,0.000000,0.000000,0.000000,-1,0.004841,0.004262,0.002902,-0.005903,-0.000277,0.012312
"2019-10-06 14:17:15.718 +0000",1570371435.718254,-2.642661,-0.121471,-0.020855,-0.474962,0.121172,0.871624,0.000000,0.000000,0.000000,-1,0.006084,0.010399,-0.000873,-0.004027,0.001310,0.010685
"2019-10-06 14:17:15.741 +0000",1570371435.740562,-2.642517,-0.121586,-0.020842,-0.475081,0.121287,0.871543,0.000000,0.000000,0.000000,-1,0.003584,0.001801,0.002924,-0.001878,-0.001322,0.010308
"2019-10-06 14:17:15.763 +0000",1570371435.762869,-2.642490,-0.121733,-0.020900,-0.475096,0.121432,0.871515,0.000000,0.000000,0.000000,-1,0.008613,0.003043,0.005396,-0.002077,0.001371,0.012854
"2019-10-06 14:17:15.785 +0000",1570371435.785154,-2.642677,-0.121841,-0.020979,-0.474927,0.121540,0.871592,0.000000,0.000000,0.000000,-1,-0.001426,0.004264,0.004140,-0.004092,0.001995,0.011404
"2019-10-06 14:17:15.807 +0000",1570371435.807453,-2.642816,-0.121924,-0.021070,-0.474801,0.121622,0.871649,0.000000,0.000000,0.000000,-1,-0.001431,0.004259,0.002900,-0.003181,0.002096,0.012842
"2019-10-06 14:17:15.830 +0000",1570371435.829798,-2.642773,-0.121874,-0.021163,-0.474841,0.121573,0.871634,0.000000,0.000000,0.000000,-1,-0.001423,0.001808,0.005403,-0.003248,0.002008,0.014093
"2019-10-06 14:17:15.852 +0000",1570371435.852068,-2.643247,-0.121806,-0.021319,-0.474432,0.121505,0.871866,0.000000,0.000000,0.000000,-1,-0.003863,0.008037,0.005219,-0.000894,0.000123,0.011618
"2019-10-06 14:17:15.874 +0000",1570371435.874345,-2.643445,-0.121676,-0.021504,-0.474267,0.121376,0.871974,0.000000,0.000000,0.000000,-1,-0.002615,0.006802,0.003990,0.002740,-0.000115,0.011220
"2019-10-06 14:17:15.897 +0000",1570371435.896661,-2.643364,-0.121701,-0.021585,-0.474335,0.121401,0.871933,0.000000,0.000000,0.000000,-1,0.002402,0.005574,0.004003,-0.000289,0.001280,0.012115
"2019-10-06 14:17:15.919 +0000",1570371435.918947,-2.643856,-0.121555,-0.021739,-0.473915,0.121256,0.872182,0.000000,0.000000,0.000000,-1,0.001143,0.006798,0.002751,-0.002571,0.000128,0.015574
"2019-10-06 14:17:15.941 +0000",1570371435.941238,-2.643635,-0.121597,-0.021793,-0.474105,0.121298,0.872073,0.000000,0.000000,0.000000,-1,-0.000113,0.011713,0.001466,-0.003449,0.000605,0.011472
"2019-10-06 14:17:15.964 +0000",1570371435.963544,-2.643336,-0.121607,-0.021817,-0.474366,0.121308,0.871930,0.000000,0.000000,0.000000,-1,-0.001367,0.012943,0.001455,-0.004058,0.002883,0.011203
"2019-10-06 14:17:15.986 +0000",1570371435.985852,-2.643162,-0.121626,-0.021798,-0.474517,0.121326,0.871845,0.000000,0.000000,0.000000,-1,0.003631,0.006780,-0.002210,-0.003511,0.000515,0.008907
"2019-10-06 14:17:16.008 +0000",1570371436.008160,-2.642943,-0.121539,-0.021743,-0.474712,0.121240,0.871750,0.000000,0.000000,0.000000,-1,-0.002640,0.008008,-0.002224,-0.007038,0.001334,0.011428
"2019-10-06 14:17:16.030 +0000",1570371436.030437,-2.642717,-0.121516,-0.021703,-0.474911,0.121217,0.871646,0.000000,0.000000,0.000000,-1,-0.000071,0.008062,-0.003587,-0.008381,0.000060,0.011365
"2019-10-06 14:17:16.053 +0000",1570371436.052746,-2.642544,-0.121501,-0.021707,-0.475062,0.121202,0.871565,0.000000,0.000000,0.000000,-1,-0.002565,0.006845,0.000144,-0.008031,0.001006,0.011491
"2019-10-06 14:17:16.075 +0000",1570371436.075045,-2.642645,-0.121396,-0.021743,-0.474980,0.121098,0.871625,0.000000,0.000000,0.000000,-1,-0.001314,0.009301,-0.001118,-0.001766,-0.000050,0.011279
"2019-10-06 14:17:16.097 +0000",1570371436.097330,-2.642550,-0.121351,-0.021765,-0.475065,0.121053,0.871584,0.000000,0.000000,0.000000,-1,0.001197,0.005616,0.000157,-0.002901,-0.000692,0.011839
"2019-10-06 14:17:16.120 +0000",1570371436.119636,-2.642766,-0.121394,-0.021781,-0.474875,0.121096,0.871682,0.000000,0.000000,0.000000,-1,0.003710,0.004392,0.001409,-0.002191,0.000867,0.013587
"2019-10-06 14:17:16.142 +0000",1570371436.141938,-2.642815,-0.121444,-0.021823,-0.474829,0.121146,0.871700,0.000000,0.000000,0.000000,-1,0.002467,0.005631,0.003879,-0.004403,0.000986,0.012272
"2019-10-06 14:17:16.164 +0000",1570371436.164252,-2.642627,-0.121545,-0.021938,-0.474987,0.121246,0.871600,0.000000,0.000000,0.000000,-1,0.001229,0.008105,0.007578,-0.003971,0.002335,0.010526
"2019-10-06 14:17:16.187 +0000",1570371436.186529,-2.642513,-0.121547,-0.021973,-0.475086,0.121248,0.871546,0.000000,0.000000,0.000000,-1,-0.002567,0.004384,0.000166,-0.002895,0.000762,0.010199
"2019-10-06 14:17:16.209 +0000",1570371436.208836,-2.642564,-0.121485,-0.022136,-0.475045,0.121186,0.871577,0.000000,0.000000,0.000000,-1,-0.004993,-0.004165,0.006327,-0.001166,-0.002534,0.011419
"2019-10-06 14:17:16.231 +0000",1570371436.231142,-2.643068,-0.121410,-0.022368,-0.474611,0.121112,0.871824,0.000000,0.000000,0.000000,-1,0.000032,0.006908,0.006231,-0.005583,0.001630,0.017352
"2019-10-06 14:17:16.253 +0000",1570371436.253419,-2.642853,-0.121550,-0.022434,-0.474790,0.121251,0.871707,0.000000,0.000000,0.000000,-1,0.003792,0.010595,0.004959,-0.004870,0.002421,0.012296
"2019-10-06 14:17:16.276 +0000",1570371436.275728,-2.642725,-0.121565,-0.022593,-0.474900,0.121266,0.871644,0.000000,0.000000,0.000000,-1,-0.007503,0.000749,0.005041,-0.004973,0.003520,0.007811
"2019-10-06 14:17:16.298 +0000",1570371436.298020,-2.642974,-0.121171,-0.022782,-0.474707,0.120875,0.871804,0.000000,0.000000,0.000000,-1,-0.012540,-0.005418,0.001372,-0.006968,-0.000468,0.014182
"2019-10-06 14:17:16.320 +0000",1570371436.320342,-2.642975,-0.121099,-0.022927,-0.474710,0.120803,0.871812,0.000000,0.000000,0.000000,-1,-0.001236,0.001977,0.003793,-0.004874,-0.001601,0.012984
"2019-10-06 14:17:16.343 +0000",1570371436.342620,-2.642765,-0.121248,-0.022980,-0.474884,0.120951,0.871697,0.000000,0.000000,0.000000,-1,0.006311,0.011836,0.007430,-0.004105,-0.004740,0.009559
"2019-10-06 14:17:16.365 +0000",1570371436.364941,-2.642955,-0.121299,-0.023095,-0.474715,0.121001,0.871782,0.000000,0.000000,0.000000,-1,0.005047,0.004450,0.006254,-0.002442,-0.000274,0.013884
"2019-10-06 14:17:16.387 +0000",1570371436.387235,-2.643521,-0.121426,-0.023239,-0.474215,0.121128,0.872037,0.000000,0.000000,0.000000,-1,0.003832,0.005692,0.003651,-0.001707,0.001461,0.012988
"2019-10-06 14:17:16.410 +0000",1570371436.409535,-2.643373,-0.121451,-0.023239,-0.474342,0.121153,0.871964,0.000000,0.000000,0.000000,-1,0.000055,0.008136,-0.000094,-0.002510,0.004168,0.013244
"2019-10-06 14:17:16.432 +0000",1570371436.431820,-2.643171,-0.121410,-0.023235,-0.474521,0.121112,0.871872,0.000000,0.000000,0.000000,-1,0.001304,0.006902,-0.001323,-0.001126,0.004666,0.012618
"2019-10-06 14:17:16.454 +0000",1570371436.454127,-2.643478,-0.121330,-0.023291,-0.474258,0.121032,0.872027,0.000000,0.000000,0.000000,-1,0.001303,0.005671,-0.001312,-0.004044,0.000702,0.012525
"2019-10-06 14:17:16.476 +0000",1570371436.476434,-2.643308,-0.121362,-0.023215,-0.474404,0.121064,0.871943,0.000000,0.000000,0.000000,-1,0.003810,0.010588,-0.002595,-0.004737,0.001876,0.012640
"2019-10-06 14:17:16.499 +0000",1570371436.498712,-2.643032,-0.121410,-0.023170,-0.474642,0.121112,0.871807,0.000000,0.000000,0.000000,-1,0.000065,0.015521,0.001081,-0.006010,-0.000888,0.011067
"2019-10-06 14:17:16.521 +0000",1570371436.521014,-2.643122,-0.121081,-0.023205,-0.474583,0.120786,0.871884,0.000000,0.000000,0.000000,-1,-0.004969,0.005668,-0.001315,-0.005215,-0.000806,0.012180
"2019-10-06 14:17:16.543 +0000",1570371436.543327,-2.642976,-0.121065,-0.023276,-0.474711,0.120769,0.871817,0.000000,0.000000,0.000000,-1,-0.004953,0.006913,0.002395,-0.003713,-0.001110,0.012278
"2019-10-06 14:17:16.566 +0000",1570371436.565634,-2.642815,-0.121065,-0.023389,-0.474851,0.120770,0.871740,0.000000,0.000000,0.000000,-1,-0.002410,0.008163,0.004762,-0.002031,-0.000958,0.012095
"2019-10-06 14:17:16.588 +0000",1570371436.587911,-2.642676,-0.121091,-0.023521,-0.474971,0.120796,0.871671,0.000000,0.000000,0.000000,-1,-0.002406,0.005707,0.006025,-0.003484,0.000359,0.011492
"2019-10-06 14:17:16.610 +0000",1570371436.610219,-2.643061,-0.121236,-0.023687,-0.474627,0.120939,0.871839,0.000000,0.000000,0.000000,-1,0.000108,0.005713,0.007266,-0.003462,0.001650,0.014224
"2019-10-06 14:17:16.633 +0000",1570371436.632526,-2.642937,-0.121251,-0.023770,-0.474734,0.120954,0.871779,0.000000,0.000000,0.000000,-1,0.000081,0.003229,0.001086,-0.002988,0.002307,0.011614
"2019-10-06 14:17:16.655 +0000",1570371436.654829,-2.642830,-0.121182,-0.023874,-0.474831,0.120886,0.871735,0.000000,0.000000,0.000000,-1,-0.009953,0.004455,0.001070,-0.003867,0.000101,0.011932
"2019-10-06 14:17:16.677 +0000",1570371436.677110,-2.642733,-0.121119,-0.023940,-0.474920,0.120823,0.871695,0.000000,0.000000,0.000000,-1,0.002587,0.006916,-0.000187,-0.007884,0.001431,0.013513
"2019-10-06 14:17:16.699 +0000",1570371436.699418,-2.642559,-0.121167,-0.023893,-0.475068,0.120871,0.871608,0.000000,0.000000,0.000000,-1,0.001328,0.008140,-0.001439,-0.005904,0.002054,0.009526
"2019-10-06 14:17:16.722 +0000",1570371436.721725,-2.642459,-0.121228,-0.023942,-0.475152,0.120931,0.871554,0.000000,0.000000,0.000000,-1,0.002600,0.004470,0.003557,-0.007865,0.001963,0.011701
"2019-10-06 14:17:16.744 +0000",1570371436.743998,-2.642359,-0.121362,-0.023968,-0.475232,0.121064,0.871492,0.000000,0.000000,0.000000,-1,0.000111,0.002005,0.003481,-0.006809,0.002883,0.010786
"2019-10-06 14:17:16.766 +0000",1570371436.766310,-2.642355,-0.121281,-0.024035,-0.475240,0.120984,0.871499,0.000000,0.000000,0.000000,-1,-0.007438,0.005668,-0.002758,-0.003764,0.003131,0.012367
"2019-10-06 14:17:16.789 +0000",1570371436.788618,-2.642307,-0.121146,-0.024119,-0.475289,0.120850,0.871490,0.000000,0.000000,0.000000,-1,-0.001165,0.000755,-0.001471,0.002267,-0.000809,0.011841
"2019-10-06 14:17:16.811 +0000",1570371436.810895,-2.642306,-0.121093,-0.024134,-0.475294,0.120797,0.871495,0.000000,0.000000,0.000000,-1,-0.002411,-0.001696,0.001031,0.000104,-0.000787,0.013057
"2019-10-06 14:17:16.833 +0000",1570371436.833203,-2.642961,-0.120743,-0.024228,-0.474742,0.120450,0.871844,0.000000,0.000000,0.000000,-1,0.005136,0.006931,0.004679,-0.001759,-0.001111,0.011411
"2019-10-06 14:17:16.856 +0000",1570371436.855510,-2.642803,-0.120799,-0.024254,-0.474877,0.120506,0.871763,0.000000,0.000000,0.000000,-1,0.001379,0.008165,0.005907,-0.005485,-0.000480,0.009600
"2019-10-06 14:17:16.878 +0000",1570371436.877817,-2.642675,-0.120821,-0.024361,-0.474987,0.120527,0.871700,0.000000,0.000000,0.000000,-1,-0.001141,0.006924,0.003436,-0.005817,-0.002760,0.012822
"2019-10-06 14:17:16.900 +0000",1570371436.900094,-2.643039,-0.120622,-0.024494,-0.474681,0.120330,0.871894,0.000000,0.000000,0.000000,-1,-0.001142,0.005693,0.003447,-0.000294,-0.001113,0.009805
"2019-10-06 14:17:16.922 +0000",1570371436.922403,-2.643185,-0.120473,-0.024618,-0.474563,0.120182,0.871978,0.000000,0.000000,0.000000,-1,0.001422,0.004458,0.005849,-0.005326,-0.003071,0.012894
"2019-10-06 14:17:16.945 +0000",1570371436.944710,-2.643028,-0.120591,-0.024710,-0.474693,0.120299,0.871891,0.000000,0.000000,0.000000,-1,0.002674,0.008144,0.004577,-0.005669,-0.000105,0.013546
"2019-10-06 14:17:16.967 +0000",1570371436.967003,-2.642907,-0.120658,-0.024864,-0.474794,0.120365,0.871827,0.000000,0.000000,0.000000,-1,-0.002343,0.008142,0.004574,-0.002806,0.000500,0.007155
"2019-10-06 14:17:16.989 +0000",1570371436.989294,-2.642851,-0.120666,-0.025049,-0.474843,0.120374,0.871799,0.000000,0.000000,0.000000,-1,-0.006097,-0.000456,0.008371,-0.003901,0.000522,0.010143
"2019-10-06 14:17:17.012 +0000",1570371437.011602,-2.643006,-0.120688,-0.025228,-0.474706,0.120395,0.871871,0.000000,0.000000,0.000000,-1,-0.001091,-0.002924,0.005914,-0.004847,-0.000431,0.016069
"2019-10-06 14:17:17.034 +0000",1570371437.033911,-2.642868,-0.120845,-0.025363,-0.474818,0.120551,0.871789,0.000000,0.000000,0.000000,-1,0.002686,0.010614,0.007036,-0.005803,0.001702,0.015144
"2019-10-06 14:17:17.056 +0000",1570371437.056199,-2.642927,-0.121046,-0.025454,-0.474755,0.120751,0.871795,0.000000,0.000000,0.000000,-1,0.002668,0.006909,0.003347,-0.000984,0.001090,0.008972
"2019-10-06 14:17:17.078 +0000",1570371437.078493,-2.643118,-0.120974,-0.025546,-0.474592,0.120679,0.871894,0.000000,0.000000,0.000000,-1,0.001411,-0.005388,0.004696,-0.003847,-0.000730,0.012277
"2019-10-06 14:17:17.101 +0000",1570371437.100801,-2.643190,-0.121054,-0.025596,-0.474525,0.120758,0.871920,0.000000,0.000000,0.000000,-1,0.001447,0.001958,0.002064,-0.003030,-0.000305,0.016478
"2019-10-06 14:17:17.123 +0000",1570371437.123105,-2.643687,-0.121179,-0.025708,-0.474085,0.120883,0.872142,0.000000,0.000000,0.000000,-1,0.003962,0.011799,0.001978,0.001825,0.002133,0.009511
"2019-10-06 14:17:17.145 +0000",1570371437.145386,-2.643432,-0.121254,-0.025718,-0.474303,0.120957,0.872013,0.000000,0.000000,0.000000,-1,0.002717,0.009348,0.004480,0.000166,0.002563,0.010266
"2019-10-06 14:17:17.168 +0000",1570371437.167694,-2.643353,-0.121272,-0.025713,-0.474370,0.120975,0.871974,0.000000,0.000000,0.000000,-1,0.000189,0.003182,0.000812,-0.001933,0.003308,0.013692
"2019-10-06 14:17:17.190 +0000",1570371437.189982,-2.643907,-0.121922,-0.025727,-0.473850,0.121620,0.872167,0.000000,0.000000,0.000000,-1,-0.001067,0.006867,-0.000461,-0.002942,0.006645,0.013652
"2019-10-06 14:17:17.212 +0000",1570371437.212278,-2.643752,-0.121762,-0.025716,-0.473993,0.121461,0.872111,0.000000,0.000000,0.000000,-1,-0.008608,0.008079,-0.004197,-0.001882,0.006072,0.013845
"2019-10-06 14:17:17.235 +0000",1570371437.234585,-2.643517,-0.121588,-0.025711,-0.474209,0.121289,0.872018,0.000000,0.000000,0.000000,-1,-0.007363,0.009300,-0.006688,-0.000721,0.002811,0.011558
"2019-10-06 14:17:17.257 +0000",1570371437.256893,-2.643378,-0.121451,-0.025656,-0.474338,0.121153,0.871966,0.000000,0.000000,0.000000,-1,0.000173,0.008083,-0.004193,-0.000637,-0.003111,0.013593
"2019-10-06 14:17:17.279 +0000",1570371437.279183,-2.643527,-0.120760,-0.025560,-0.474248,0.120467,0.872111,0.000000,0.000000,0.000000,-1,0.002719,0.011740,-0.004305,-0.005336,-0.003585,0.012594
"2019-10-06 14:17:17.301 +0000",1570371437.301477,-2.643240,-0.120863,-0.025402,-0.474493,0.120569,0.871963,0.000000,0.000000,0.000000,-1,0.006486,0.009287,-0.003041,-0.004481,-0.004770,0.010682
"2019-10-06 14:17:17.324 +0000",1570371437.323785,-2.643054,-0.120958,-0.025359,-0.474649,0.120663,0.871865,0.000000,0.000000,0.000000,-1,0.006503,0.004385,0.001965,-0.007346,-0.001385,0.011176
"2019-10-06 14:17:17.346 +0000",1570371437.346092,-2.642425,-0.120746,-0.025303,-0.475209,0.120453,0.871589,0.000000,0.000000,0.000000,-1,0.001490,0.011765,0.001897,-0.008357,0.000549,0.009179
"2019-10-06 14:17:17.368 +0000",1570371437.368379,-2.642153,-0.120667,-0.025439,-0.475451,0.120375,0.871468,0.000000,0.000000,0.000000,-1,0.000258,0.008098,0.008131,-0.006025,-0.001143,0.009712
"2019-10-06 14:17:17.391 +0000",1570371437.390676,-2.642051,-0.120692,-0.025634,-0.475538,0.120399,0.871417,0.000000,0.000000,0.000000,-1,-0.004766,0.005631,0.006911,-0.007539,-0.000053,0.011564
"2019-10-06 14:17:17.413 +0000",1570371437.412970,-2.642109,-0.120558,-0.025846,-0.475496,0.120266,0.871458,0.000000,0.000000,0.000000,-1,-0.003505,0.000721,0.009436,-0.007216,0.000248,0.012773
"2019-10-06 14:17:17.435 +0000",1570371437.435261,-2.642317,-0.120639,-0.026131,-0.475310,0.120347,0.871549,0.000000,0.000000,0.000000,-1,-0.002247,-0.001734,0.010699,-0.004732,0.002669,0.013553
"2019-10-06 14:17:17.458 +0000",1570371437.457569,-2.642359,-0.120627,-0.026433,-0.475274,0.120335,0.871570,0.000000,0.000000,0.000000,-1,-0.009743,-0.000554,0.009368,-0.006141,0.002315,0.010739
"2019-10-06 14:17:17.480 +0000",1570371437.479877,-2.642372,-0.120564,-0.026613,-0.475266,0.120272,0.871583,0.000000,0.000000,0.000000,-1,-0.008501,0.004352,0.005604,-0.000824,0.001707,0.011397
"2019-10-06 14:17:17.502 +0000",1570371437.502184,-2.643108,-0.120595,-0.026758,-0.474623,0.120303,0.871929,0.000000,0.000000,0.000000,-1,-0.001009,-0.001825,-0.001781,-0.000520,0.001951,0.013722
"2019-10-06 14:17:17.524 +0000",1570371437.524461,-2.643030,-0.120625,-0.026742,-0.474690,0.120332,0.871889,0.000000,0.000000,0.000000,-1,0.000246,0.006782,-0.003098,0.000111,0.000273,0.017027
"2019-10-06 14:17:17.547 +0000",1570371437.546768,-2.642819,-0.120764,-0.026650,-0.474865,0.120471,0.871774,0.000000,0.000000,0.000000,-1,0.006534,0.009259,0.000605,0.003216,0.000806,0.015921
"2019-10-06 14:17:17.569 +0000",1570371437.569052,-2.643805,-0.120926,-0.026668,-0.473996,0.120631,0.872224,0.000000,0.000000,0.000000,-1,0.007784,0.009254,-0.000635,0.002057,0.001897,0.012953
"2019-10-06 14:17:17.591 +0000",1570371437.591384,-2.643550,-0.120933,-0.026552,-0.474218,0.120639,0.872103,0.000000,0.000000,0.000000,-1,0.002758,0.012932,-0.003151,0.003774,0.002561,0.015714
"2019-10-06 14:17:17.614 +0000",1570371437.613661,-2.643261,-0.120905,-0.026488,-0.474472,0.120610,0.871969,0.000000,0.000000,0.000000,-1,-0.001010,0.012926,-0.004393,0.000289,0.001002,0.015101
"2019-10-06 14:17:17.636 +0000",1570371437.635957,-2.643261,-0.120744,-0.026533,-0.474481,0.120451,0.871986,0.000000,0.000000,0.000000,-1,-0.000957,0.016588,0.000465,-0.002341,0.000017,0.013344
"2019-10-06 14:17:17.658 +0000",1570371437.658276,-2.643288,-0.120401,-0.026668,-0.474478,0.120110,0.872035,0.000000,0.000000,0.000000,-1,-0.008486,0.011664,0.000506,-0.004908,-0.000054,0.012899
"2019-10-06 14:17:17.681 +0000",1570371437.680553,-2.643043,-0.120338,-0.026803,-0.474694,0.120048,0.871926,0.000000,0.000000,0.000000,-1,-0.007221,0.012904,0.002976,-0.006095,-0.002006,0.011482
"2019-10-06 14:17:17.703 +0000",1570371437.702861,-2.642750,-0.120141,-0.026882,-0.474961,0.119852,0.871807,0.000000,0.000000,0.000000,-1,-0.008477,0.010443,0.002997,-0.007781,-0.000132,0.011799
"2019-10-06 14:17:17.725 +0000",1570371437.725168,-2.642345,-0.120052,-0.026905,-0.475319,0.119764,0.871624,0.000000,0.000000,0.000000,-1,-0.002231,0.010422,-0.003202,-0.007790,0.002383,0.012592
"2019-10-06 14:17:17.747 +0000",1570371437.747476,-2.642173,-0.120010,-0.026831,-0.475472,0.119723,0.871546,0.000000,0.000000,0.000000,-1,-0.002239,0.005497,-0.004399,-0.005729,0.001524,0.008855
"2019-10-06 14:17:17.770 +0000",1570371437.769753,-2.642086,-0.119961,-0.026786,-0.475551,0.119674,0.871510,0.000000,0.000000,0.000000,-1,0.001525,-0.000647,-0.003103,-0.005712,-0.002028,0.008739
"2019-10-06 14:17:17.792 +0000",1570371437.792063,-2.641900,-0.119882,-0.026792,-0.475716,0.119596,0.871430,0.000000,0.000000,0.000000,-1,0.007825,0.003070,0.003070,-0.008872,0.000628,0.014220
"2019-10-06 14:17:17.814 +0000",1570371437.814361,-2.641717,-0.120178,-0.026690,-0.475859,0.119889,0.871312,0.000000,0.000000,0.000000,-1,0.012877,0.011628,0.002922,-0.005556,0.004684,0.013530
"2019-10-06 14:17:17.837 +0000",1570371437.836645,-2.641561,-0.120343,-0.026628,-0.475986,0.120053,0.871220,0.000000,0.000000,0.000000,-1,0.004081,0.003003,0.000514,-0.002743,0.002795,0.009090
"2019-10-06 14:17:17.859 +0000",1570371437.858953,-2.641620,-0.120339,-0.026708,-0.475935,0.120049,0.871249,0.000000,0.000000,0.000000,-1,-0.003429,-0.003131,0.005527,-0.002855,0.000984,0.013746
"2019-10-06 14:17:17.881 +0000",1570371437.881259,-2.642463,-0.120179,-0.026946,-0.475209,0.119890,0.871667,0.000000,0.000000,0.000000,-1,0.002855,0.000571,0.007978,-0.002681,0.000334,0.016486
"2019-10-06 14:17:17.904 +0000",1570371437.903568,-2.642394,-0.120251,-0.027047,-0.475265,0.119961,0.871626,0.000000,0.000000,0.000000,-1,-0.003429,0.005474,0.004210,0.000930,0.000873,0.010500
"2019-10-06 14:17:17.926 +0000",1570371437.925845,-2.642286,-0.120203,-0.027165,-0.475362,0.119914,0.871580,0.000000,0.000000,0.000000,-1,-0.004689,0.004239,0.002980,0.000417,-0.000300,0.012224
"2019-10-06 14:17:17.948 +0000",1570371437.948152,-2.643147,-0.120126,-0.027462,-0.474616,0.119838,0.871997,0.000000,0.000000,0.000000,-1,-0.000918,0.001789,0.005485,-0.001504,0.001485,0.014035
"2019-10-06 14:17:17.970 +0000",1570371437.970459,-2.643347,-0.120158,-0.027635,-0.474439,0.119869,0.872089,0.000000,0.000000,0.000000,-1,-0.002165,0.004253,0.006703,-0.004748,0.002445,0.016934
"2019-10-06 14:17:17.993 +0000",1570371437.992737,-2.643166,-0.120179,-0.027642,-0.474597,0.119890,0.872000,0.000000,0.000000,0.000000,-1,0.000342,0.012783,-0.000876,-0.003156,0.002913,0.013131
"2019-10-06 14:17:18.015 +0000",1570371438.015052,-2.643278,-0.120284,-0.027618,-0.474492,0.119994,0.872043,0.000000,0.000000,0.000000,-1,0.001576,0.005388,-0.004532,-0.001002,0.003007,0.011945
"2019-10-06 14:17:18.037 +0000",1570371438.037353,-2.643565,-0.120522,-0.027527,-0.474228,0.120231,0.872154,0.000000,0.000000,0.000000,-1,0.004076,0.006609,-0.007022,-0.001388,0.002297,0.013314
"2019-10-06 14:17:18.060 +0000",1570371438.059659,-2.643413,-0.120591,-0.027373,-0.474357,0.120299,0.872074,0.000000,0.000000,0.000000,-1,0.009108,0.005395,-0.003288,-0.003533,-0.000349,0.011639
"2019-10-06 14:17:18.082 +0000",1570371438.081936,-2.643281,-0.120611,-0.027278,-0.474471,0.120319,0.872010,0.000000,0.000000,0.000000,-1,0.000338,0.005401,-0.000810,-0.003907,-0.000568,0.012131
"2019-10-06 14:17:18.104 +0000",1570371438.104237,-2.643204,-0.120526,-0.027235,-0.474543,0.120234,0.871982,0.000000,0.000000,0.000000,-1,0.006616,0.015245,-0.000895,-0.003698,-0.000422,0.010983
"2019-10-06 14:17:18.127 +0000",1570371438.126553,-2.643210,-0.120445,-0.027286,-0.474542,0.120154,0.871994,0.000000,0.000000,0.000000,-1,-0.003411,0.005414,0.002909,-0.002600,-0.000998,0.011857
"2019-10-06 14:17:18.149 +0000",1570371438.148829,-2.643143,-0.120403,-0.027384,-0.474604,0.120113,0.871966,0.000000,0.000000,0.000000,-1,-0.007189,0.005398,-0.000814,-0.005239,-0.000224,0.013654
"2019-10-06 14:17:18.171 +0000",1570371438.171137,-2.643170,-0.120227,-0.027478,-0.474590,0.119938,0.871998,0.000000,0.000000,0.000000,-1,0.000375,0.005354,0.002849,-0.006489,-0.000431,0.011547
"2019-10-06 14:17:18.193 +0000",1570371438.193444,-2.643043,-0.120221,-0.027583,-0.474701,0.119931,0.871938,0.000000,0.000000,0.000000,-1,-0.004643,0.005352,0.002846,-0.007309,0.001162,0.012080
"2019-10-06 14:17:18.216 +0000",1570371438.215724,-2.642975,-0.120220,-0.027609,-0.474760,0.119931,0.871906,0.000000,0.000000,0.000000,-1,0.004131,0.002890,0.001631,-0.006471,0.002841,0.013501
"2019-10-06 14:17:18.238 +0000",1570371438.238040,-2.643102,-0.120230,-0.027611,-0.474649,0.119941,0.871965,0.000000,0.000000,0.000000,-1,0.004122,0.004111,-0.000860,-0.003515,0.001031,0.011443
"2019-10-06 14:17:18.260 +0000",1570371438.260336,-2.643015,-0.120294,-0.027594,-0.474722,0.120004,0.871917,0.000000,0.000000,0.000000,-1,0.004133,0.005351,0.001610,-0.003016,0.000083,0.011796
"2019-10-06 14:17:18.283 +0000",1570371438.282644,-2.642929,-0.120418,-0.027527,-0.474789,0.120128,0.871863,0.000000,0.000000,0.000000,-1,0.007876,0.005333,-0.003351,-0.002979,-0.000712,0.012995
"2019-10-06 14:17:18.305 +0000",1570371438.304920,-2.642771,-0.120519,-0.027489,-0.474921,0.120227,0.871777,0.000000,0.000000,0.000000,-1,0.002868,0.005341,-0.000872,-0.003701,0.001462,0.013569
"2019-10-06 14:17:18.327 +0000",1570371438.327228,-2.643088,-0.120397,-0.027489,-0.474652,0.120106,0.871940,0.000000,0.000000,0.000000,-1,0.001620,0.006575,0.000357,-0.001972,0.000240,0.012703
"2019-10-06 14:17:18.350 +0000",1570371438.349536,-2.643006,-0.120420,-0.027500,-0.474722,0.120130,0.871899,0.000000,0.000000,0.000000,-1,0.000390,0.004052,0.001559,-0.004541,0.001468,0.012592
"2019-10-06 14:17:18.372 +0000",1570371438.371844,-2.642903,-0.120458,-0.027567,-0.474810,0.120167,0.871846,0.000000,0.000000,0.000000,-1,-0.000862,0.007742,0.001526,-0.003767,0.001094,0.012477
"2019-10-06 14:17:18.394 +0000",1570371438.394120,-2.643399,-0.120585,-0.027665,-0.474370,0.120293,0.872068,0.000000,0.000000,0.000000,-1,0.002894,0.005278,0.000309,-0.002269,0.001289,0.013430
"2019-10-06 14:17:18.416 +0000",1570371438.416422,-2.643263,-0.120596,-0.027682,-0.474488,0.120304,0.872003,0.000000,0.000000,0.000000,-1,-0.000856,0.008977,0.002756,-0.002960,0.001705,0.014457
"2019-10-06 14:17:18.439 +0000",1570371438.438735,-2.643122,-0.120592,-0.027716,-0.474611,0.120300,0.871936,0.000000,0.000000,0.000000,-1,-0.000869,0.005277,0.000307,-0.003309,0.001022,0.013181
"2019-10-06 14:17:18.461 +0000",1570371438.461026,-2.643356,-0.120697,-0.027747,-0.474401,0.120404,0.872036,0.000000,0.000000,0.000000,-1,0.002899,0.005283,0.001550,-0.003230,0.001834,0.011845
"2019-10-06 14:17:18.483 +0000",1570371438.483319,-2.643143,-0.120764,-0.027749,-0.474583,0.120471,0.871928,0.000000,0.000000,0.000000,-1,0.002911,0.007753,0.004009,-0.006176,0.002469,0.012762
"2019-10-06 14:17:18.506 +0000",1570371438.505628,-2.642996,-0.120791,-0.027678,-0.474709,0.120498,0.871855,0.000000,0.000000,0.000000,-1,-0.000874,0.005272,-0.000933,-0.004249,0.002732,0.011598
"2019-10-06 14:17:18.528 +0000",1570371438.527912,-2.642890,-0.120743,-0.027703,-0.474805,0.120450,0.871810,0.000000,0.000000,0.000000,-1,-0.005862,0.003978,0.001501,-0.004917,0.000415,0.008470
"2019-10-06 14:17:18.550 +0000",1570371438.550238,-2.642958,-0.120109,-0.027785,-0.474782,0.119820,0.871909,0.000000,0.000000,0.000000,-1,-0.000841,0.002755,0.002755,-0.007686,-0.000985,0.016259
"2019-10-06 14:17:18.573 +0000",1570371438.572521,-2.642905,-0.120164,-0.027827,-0.474824,0.119875,0.871878,0.000000,0.000000,0.000000,-1,0.001677,0.008911,0.003942,-0.006377,0.001875,0.014200
"2019-10-06 14:17:18.595 +0000",1570371438.594828,-2.642659,-0.120353,-0.027832,-0.475028,0.120063,0.871741,0.000000,0.000000,0.000000,-1,0.007950,0.011374,0.003922,-0.004876,0.001504,0.010308
"2019-10-06 14:17:18.617 +0000",1570371438.617132,-2.643092,-0.119989,-0.027882,-0.474672,0.119701,0.871985,0.000000,0.000000,0.000000,-1,-0.003367,0.000279,-0.000946,-0.003905,-0.002422,0.014215
"2019-10-06 14:17:18.639 +0000",1570371438.639412,-2.643097,-0.119997,-0.027980,-0.474667,0.119709,0.871987,0.000000,0.000000,0.000000,-1,-0.000847,0.002750,0.001514,-0.004200,-0.000050,0.015312
"2019-10-06 14:17:18.662 +0000",1570371438.661731,-2.642963,-0.120125,-0.027948,-0.474776,0.119837,0.871910,0.000000,0.000000,0.000000,-1,0.009185,0.005209,0.000256,-0.001618,0.001013,0.011055
"2019-10-06 14:17:18.684 +0000",1570371438.684023,-2.643193,-0.120058,-0.027944,-0.474579,0.119770,0.872026,0.000000,0.000000,0.000000,-1,0.004177,0.005217,0.002735,0.000123,-0.001530,0.011168
"2019-10-06 14:17:18.706 +0000",1570371438.706314,-2.643832,-0.120102,-0.028089,-0.474020,0.119813,0.872324,0.000000,0.000000,0.000000,-1,0.001695,0.002689,0.005183,-0.003290,0.001555,0.016821
"2019-10-06 14:17:18.729 +0000",1570371438.728622,-2.643699,-0.120206,-0.028172,-0.474130,0.119916,0.872251,0.000000,0.000000,0.000000,-1,0.001700,0.010070,0.005118,-0.005698,0.004611,0.017627
"2019-10-06 14:17:18.751 +0000",1570371438.750929,-2.643410,-0.120323,-0.028206,-0.474375,0.120033,0.872101,0.000000,0.000000,0.000000,-1,0.001691,0.011290,0.002626,-0.003561,0.006691,0.010788
"2019-10-06 14:17:18.773 +0000",1570371438.773206,-2.643551,-0.120750,-0.028254,-0.474228,0.120457,0.872123,0.000000,0.000000,0.000000,-1,-0.003359,0.000193,-0.003480,-0.003708,0.004467,0.011712
"2019-10-06 14:17:18.796 +0000",1570371438.795514,-2.643524,-0.120720,-0.028238,-0.474253,0.120427,0.872113,0.000000,0.000000,0.000000,-1,0.000412,0.003890,-0.002271,-0.004751,0.001705,0.014499
"2019-10-06 14:17:18.818 +0000",1570371438.817822,-2.643366,-0.120729,-0.028221,-0.474390,0.120436,0.872037,0.000000,0.000000,0.000000,-1,-0.002084,0.007589,0.000176,-0.002844,0.000154,0.012026
"2019-10-06 14:17:18.840 +0000",1570371438.840120,-2.643738,-0.120241,-0.028313,-0.474094,0.119952,0.872265,0.000000,0.000000,0.000000,-1,-0.003345,0.006353,-0.001054,-0.003628,-0.001818,0.013492
"2019-10-06 14:17:18.862 +0000",1570371438.862415,-2.643648,-0.119982,-0.028316,-0.474187,0.119695,0.872250,0.000000,0.000000,0.000000,-1,-0.000847,0.005115,-0.003523,-0.005748,-0.001744,0.012089
"2019-10-06 14:17:18.885 +0000",1570371438.884714,-2.643466,-0.119994,-0.028377,-0.474345,0.119707,0.872162,0.000000,0.000000,0.000000,-1,-0.003307,0.007520,0.003844,-0.004354,0.000395,0.010208
"2019-10-06 14:17:18.907 +0000",1570371438.907037,-2.643284,-0.120009,-0.028427,-0.474503,0.119721,0.872074,0.000000,0.000000,0.000000,-1,-0.000802,0.009976,0.002583,-0.006561,0.001357,0.010021
"2019-10-06 14:17:18.929 +0000",1570371438.929329,-2.643178,-0.119865,-0.028496,-0.474604,0.119578,0.872039,0.000000,0.000000,0.000000,-1,0.004218,0.006293,0.003858,-0.006292,0.000020,0.011658
"2019-10-06 14:17:18.952 +0000",1570371438.951607,-2.643079,-0.119940,-0.028555,-0.474686,0.119652,0.871984,0.000000,0.000000,0.000000,-1,-0.000807,0.002596,0.002648,-0.005081,-0.000558,0.013941
"2019-10-06 14:17:18.974 +0000",1570371438.973912,-2.643033,-0.119894,-0.028631,-0.474728,0.119607,0.871967,0.000000,0.000000,0.000000,-1,0.000458,0.011212,0.003813,-0.004108,0.000342,0.010372
"2019-10-06 14:17:18.996 +0000",1570371438.996222,-2.643117,-0.120066,-0.028669,-0.474645,0.119778,0.871989,0.000000,0.000000,0.000000,-1,0.005451,0.005044,-0.001093,-0.004878,0.002445,0.011571
"2019-10-06 14:17:19.018 +0000",1570371439.018499,-2.643062,-0.120200,-0.028609,-0.474686,0.119911,0.871949,0.000000,0.000000,0.000000,-1,0.005461,0.003824,0.001399,-0.005005,0.001091,0.011199
"2019-10-06 14:17:19.041 +0000",1570371439.040806,-2.642975,-0.120299,-0.028535,-0.474756,0.120009,0.871897,0.000000,0.000000,0.000000,-1,0.006702,0.006270,-0.002343,-0.002874,0.003496,0.011587
"2019-10-06 14:17:19.063 +0000",1570371439.063108,-2.643312,-0.120180,-0.028546,-0.474469,0.119891,0.872069,0.000000,0.000000,0.000000,-1,0.002958,0.002512,0.000126,-0.001666,0.000363,0.013276
"2019-10-06 14:17:19.085 +0000",1570371439.085420,-2.643202,-0.120230,-0.028498,-0.474562,0.119940,0.872012,0.000000,0.000000,0.000000,-1,0.001700,0.004967,-0.001137,-0.001131,0.000665,0.013181
"2019-10-06 14:17:19.108 +0000",1570371439.107697,-2.643012,-0.120287,-0.028524,-0.474724,0.119997,0.871916,0.000000,0.000000,0.000000,-1,-0.000800,0.009892,0.000058,-0.001487,0.002134,0.012087
"2019-10-06 14:17:19.130 +0000",1570371439.130075,-2.642885,-0.120264,-0.028563,-0.474836,0.119974,0.871858,0.000000,0.000000,0.000000,-1,-0.004566,0.004970,0.000100,-0.001345,0.000524,0.014250
"2019-10-06 14:17:19.152 +0000",1570371439.152314,-2.643242,-0.120407,-0.028654,-0.474517,0.120116,0.872012,0.000000,0.000000,0.000000,-1,0.000463,0.007441,0.002562,-0.002488,0.002091,0.013562
"2019-10-06 14:17:19.175 +0000",1570371439.174604,-2.643133,-0.120420,-0.028729,-0.474611,0.120129,0.871959,0.000000,0.000000,0.000000,-1,-0.002047,0.004980,0.002583,-0.003660,0.003223,0.011372
"2019-10-06 14:17:19.197 +0000",1570371439.196898,-2.643190,-0.120450,-0.028770,-0.474560,0.120159,0.871983,0.000000,0.000000,0.000000,-1,-0.000792,0.006211,0.002572,-0.002827,0.001393,0.010768
"2019-10-06 14:17:19.219 +0000",1570371439.219207,-2.643563,-0.120368,-0.028864,-0.474239,0.120078,0.872169,0.000000,0.000000,0.000000,-1,-0.002057,0.004970,0.000102,-0.003117,0.001428,0.013741
"2019-10-06 14:17:19.242 +0000",1570371439.241513,-2.643574,-0.120246,-0.028905,-0.474236,0.119956,0.872187,0.000000,0.000000,0.000000,-1,-0.002050,0.007342,-0.001204,-0.004829,0.001610,0.012044
"2019-10-06 14:17:19.264 +0000",1570371439.263791,-2.643422,-0.120224,-0.028887,-0.474370,0.119934,0.872117,0.000000,0.000000,0.000000,-1,-0.002049,0.008572,-0.001215,-0.005381,0.002136,0.010085
"2019-10-06 14:17:19.286 +0000",1570371439.286096,-2.643264,-0.119920,-0.028922,-0.474526,0.119633,0.872074,0.000000,0.000000,0.000000,-1,-0.003317,0.003642,-0.003653,-0.006508,-0.001423,0.009899
"2019-10-06 14:17:19.308 +0000",1570371439.308406,-2.643205,-0.119893,-0.028902,-0.474579,0.119606,0.872049,0.000000,0.000000,0.000000,-1,0.004227,-0.000026,0.001345,-0.006836,0.000908,0.015097
"2019-10-06 14:17:19.331 +0000",1570371439.330681,-2.643025,-0.120038,-0.028768,-0.474727,0.119750,0.871948,0.000000,0.000000,0.000000,-1,0.009247,0.012273,-0.000003,-0.005695,0.002823,0.014908
"2019-10-06 14:17:19.353 +0000",1570371439.352990,-2.642688,-0.120224,-0.028705,-0.475010,0.119934,0.871769,0.000000,0.000000,0.000000,-1,0.005488,0.011046,0.001247,-0.003811,0.003067,0.011288
"2019-10-06 14:17:19.375 +0000",1570371439.375298,-2.643150,-0.120229,-0.028775,-0.474607,0.119940,0.871988,0.000000,0.000000,0.000000,-1,-0.000794,-0.004949,0.001386,-0.001909,0.000513,0.011893
"2019-10-06 14:17:19.398 +0000",1570371439.397605,-2.643541,-0.120060,-0.028890,-0.474276,0.119772,0.872191,0.000000,0.000000,0.000000,-1,-0.003269,-0.000001,0.008785,-0.001767,-0.001532,0.013429
"2019-10-06 14:17:19.420 +0000",1570371439.419882,-2.643453,-0.120100,-0.028940,-0.474350,0.119811,0.872145,0.000000,0.000000,0.000000,-1,0.001735,0.006044,0.002488,-0.004943,0.001222,0.010896
"2019-10-06 14:17:19.442 +0000",1570371439.442190,-2.643729,-0.119848,-0.029026,-0.474124,0.119561,0.872303,0.000000,0.000000,0.000000,-1,-0.000771,0.003587,0.003749,-0.002027,-0.001443,0.012509
"2019-10-06 14:17:19.464 +0000",1570371439.464498,-2.643766,-0.119754,-0.029198,-0.474097,0.119468,0.872330,0.000000,0.000000,0.000000,-1,-0.007037,-0.002557,0.006282,-0.002969,-0.000816,0.014664
"2019-10-06 14:17:19.487 +0000",1570371439.486796,-2.643732,-0.119763,-0.029353,-0.474127,0.119477,0.872313,0.000000,0.000000,0.000000,-1,0.001743,0.003593,0.004991,-0.005396,0.000885,0.013018
"2019-10-06 14:17:19.509 +0000",1570371439.509086,-2.643338,-0.120243,-0.029323,-0.474443,0.119953,0.872075,0.000000,0.000000,0.000000,-1,0.005486,0.010952,-0.001275,-0.004714,0.002758,0.006449
"2019-10-06 14:17:19.531 +0000",1570371439.531390,-2.643168,-0.120394,-0.029262,-0.474582,0.120103,0.871979,0.000000,0.000000,0.000000,-1,0.001726,0.007264,-0.000004,-0.003842,0.002440,0.008224
"2019-10-06 14:17:19.554 +0000",1570371439.553698,-2.643032,-0.120417,-0.029195,-0.474699,0.120126,0.871912,0.000000,0.000000,0.000000,-1,0.004213,0.006016,-0.004954,-0.006029,0.001136,0.014181
"2019-10-06 14:17:19.576 +0000",1570371439.575975,-2.642808,-0.120465,-0.029072,-0.474892,0.120174,0.871800,0.000000,0.000000,0.000000,-1,0.004237,0.010956,-0.000035,-0.002098,-0.000637,0.013927
"2019-10-06 14:17:19.598 +0000",1570371439.598282,-2.643008,-0.120442,-0.029104,-0.474719,0.120151,0.871898,0.000000,0.000000,0.000000,-1,0.002992,0.001038,0.002494,-0.004636,0.000958,0.012853
"2019-10-06 14:17:19.621 +0000",1570371439.620589,-2.643009,-0.120529,-0.029145,-0.474713,0.120238,0.871889,0.000000,0.000000,0.000000,-1,-0.000778,0.005948,-0.000033,-0.005008,0.003725,0.012648
"2019-10-06 14:17:19.643 +0000",1570371439.642867,-2.642984,-0.120514,-0.029241,-0.474736,0.120222,0.871879,0.000000,0.000000,0.000000,-1,-0.003275,0.001041,0.003731,-0.003627,-0.000746,0.011086
"2019-10-06 14:17:19.665 +0000",1570371439.665178,-2.643401,-0.119988,-0.029419,-0.474402,0.119700,0.872132,0.000000,0.000000,0.000000,-1,-0.004519,0.002279,0.006201,-0.004037,-0.004054,0.011657
"2019-10-06 14:17:19.687 +0000",1570371439.687483,-2.643274,-0.119936,-0.029581,-0.474516,0.119649,0.872077,0.000000,0.000000,0.000000,-1,-0.008273,0.007203,0.007396,-0.003679,-0.002370,0.014001
"2019-10-06 14:17:19.710 +0000",1570371439.709783,-2.643354,-0.119898,-0.029708,-0.474448,0.119611,0.872119,0.000000,0.000000,0.000000,-1,0.001759,0.003517,0.007433,-0.003381,0.000399,0.012158
"2019-10-06 14:17:19.732 +0000",1570371439.732063,-2.643197,-0.120048,-0.029777,-0.474577,0.119760,0.872029,0.000000,0.000000,0.000000,-1,0.000501,0.005972,0.006170,-0.006136,0.002631,0.010463
"2019-10-06 14:17:19.754 +0000",1570371439.754374,-2.643204,-0.120271,-0.029762,-0.474558,0.119981,0.872009,0.000000,0.000000,0.000000,-1,0.001720,0.004709,-0.002502,-0.005224,0.002288,0.010376
"2019-10-06 14:17:19.777 +0000",1570371439.776683,-2.643053,-0.120344,-0.029712,-0.474685,0.120053,0.871930,0.000000,0.000000,0.000000,-1,0.004238,0.005857,-0.001308,-0.002763,0.002826,0.013599
"2019-10-06 14:17:19.799 +0000",1570371439.798959,-2.642938,-0.120453,-0.029611,-0.474779,0.120161,0.871864,0.000000,0.000000,0.000000,-1,0.004233,0.005852,-0.002549,-0.003492,0.000932,0.014184
"2019-10-06 14:17:19.821 +0000",1570371439.821267,-2.643100,-0.120438,-0.029628,-0.474639,0.120147,0.871942,0.000000,0.000000,0.000000,-1,-0.000769,0.005864,0.001170,-0.003220,0.000718,0.011481
"2019-10-06 14:17:19.844 +0000",1570371439.843573,-2.643084,-0.120361,-0.029670,-0.474657,0.120071,0.871942,0.000000,0.000000,0.000000,-1,0.000470,-0.001525,-0.001245,-0.004560,0.000580,0.011435
"2019-10-06 14:17:19.866 +0000",1570371439.865882,-2.643123,-0.120280,-0.029777,-0.474627,0.119991,0.871970,0.000000,0.000000,0.000000,-1,-0.007031,-0.001505,0.004955,-0.005902,0.000203,0.012048
"2019-10-06 14:17:19.888 +0000",1570371439.888157,-2.643298,-0.120038,-0.029965,-0.474489,0.119750,0.872078,0.000000,0.000000,0.000000,-1,-0.005774,0.002186,0.004922,-0.004881,0.000581,0.012734
"2019-10-06 14:17:19.910 +0000",1570371439.910468,-2.643216,-0.119990,-0.030148,-0.474563,0.119703,0.872044,0.000000,0.000000,0.000000,-1,-0.005767,0.005881,0.006130,-0.004746,0.001162,0.013561
"2019-10-06 14:17:19.933 +0000",1570371439.932756,-2.643305,-0.120058,-0.030373,-0.474481,0.119770,0.872079,0.000000,0.000000,0.000000,-1,-0.001999,0.004658,0.007383,-0.001806,0.002392,0.010230
"2019-10-06 14:17:19.955 +0000",1570371439.955050,-2.643258,-0.119988,-0.030544,-0.474527,0.119700,0.872064,0.000000,0.000000,0.000000,-1,-0.003267,0.003318,0.003635,-0.000937,0.000524,0.010519
"2019-10-06 14:17:19.977 +0000",1570371439.977359,-2.643755,-0.119948,-0.030656,-0.474096,0.119660,0.872304,0.000000,0.000000,0.000000,-1,-0.000761,0.007004,0.002363,-0.001566,0.000381,0.013987
"2019-10-06 14:17:20.000 +0000",1570371439.999667,-2.643595,-0.119927,-0.030625,-0.474237,0.119640,0.872231,0.000000,0.000000,0.000000,-1,0.000474,0.008216,-0.002610,-0.003531,0.000005,0.012947
"2019-10-06 14:17:20.022 +0000",1570371440.021975,-2.643374,-0.119907,-0.030537,-0.474431,0.119620,0.872128,0.000000,0.000000,0.000000,-1,-0.000791,0.008205,-0.005091,-0.002605,-0.001395,0.009678
"2019-10-06 14:17:20.044 +0000",1570371440.044251,-2.643667,-0.119570,-0.030530,-0.474194,0.119285,0.872302,0.000000,0.000000,0.000000,-1,0.004229,0.004522,-0.003816,-0.005405,0.000145,0.015363
"2019-10-06 14:17:20.067 +0000",1570371440.066558,-2.643610,-0.119421,-0.030485,-0.474252,0.119137,0.872291,0.000000,0.000000,0.000000,-1,0.005497,0.010682,-0.001389,-0.005683,-0.001553,0.014840
"2019-10-06 14:17:20.089 +0000",1570371440.088867,-2.643327,-0.119649,-0.030340,-0.474486,0.119364,0.872133,0.000000,0.000000,0.000000,-1,0.005513,0.010697,0.002332,-0.005098,0.001196,0.012236
"2019-10-06 14:17:20.111 +0000",1570371440.111162,-2.642977,-0.119797,-0.030273,-0.474783,0.119510,0.871951,0.000000,0.000000,0.000000,-1,0.004243,0.003307,-0.000084,-0.008616,0.001766,0.010220
"2019-10-06 14:17:20.133 +0000",1570371440.133464,-2.642944,-0.119841,-0.030317,-0.474809,0.119555,0.871931,0.000000,0.000000,0.000000,-1,-0.002007,0.003233,0.004842,-0.008879,0.000929,0.012072
"2019-10-06 14:17:20.156 +0000",1570371440.155758,-2.642839,-0.119842,-0.030385,-0.474901,0.119556,0.871881,0.000000,0.000000,0.000000,-1,0.000492,0.004455,0.002351,-0.008010,0.004758,0.011191
"2019-10-06 14:17:20.178 +0000",1570371440.178066,-2.642728,-0.119879,-0.030401,-0.474995,0.119592,0.871824,0.000000,0.000000,0.000000,-1,-0.000770,0.000759,0.001143,-0.004710,0.002722,0.008669
"2019-10-06 14:17:20.200 +0000",1570371440.200342,-2.643099,-0.119860,-0.030510,-0.474672,0.119573,0.872002,0.000000,0.000000,0.000000,-1,-0.003271,-0.002923,0.003656,-0.003691,0.002055,0.012290
"2019-10-06 14:17:20.223 +0000",1570371440.222650,-2.643187,-0.119928,-0.030582,-0.474592,0.119640,0.872037,0.000000,0.000000,0.000000,-1,0.000507,-0.004137,0.007390,-0.002458,0.000248,0.015872
"2019-10-06 14:17:20.245 +0000",1570371440.244959,-2.643114,-0.119908,-0.030685,-0.474657,0.119621,0.872004,0.000000,0.000000,0.000000,-1,-0.002028,0.010590,-0.001426,-0.001600,0.001320,0.014593
"2019-10-06 14:17:20.267 +0000",1570371440.267236,-2.643649,-0.120085,-0.030803,-0.474180,0.119796,0.872240,0.000000,0.000000,0.000000,-1,-0.003276,0.003218,0.001120,-0.001528,0.002945,0.012907
"2019-10-06 14:17:20.290 +0000",1570371440.289537,-2.643815,-0.120026,-0.030894,-0.474039,0.119738,0.872324,0.000000,0.000000,0.000000,-1,0.001743,0.006910,0.001090,-0.003195,0.000776,0.014349
"2019-10-06 14:17:20.312 +0000",1570371440.311851,-2.643659,-0.120070,-0.030865,-0.474172,0.119782,0.872246,0.000000,0.000000,0.000000,-1,-0.000775,0.008045,-0.001433,-0.002299,0.001434,0.012230
"2019-10-06 14:17:20.334 +0000",1570371440.334147,-2.643790,-0.119949,-0.030888,-0.474065,0.119662,0.872321,0.000000,0.000000,0.000000,-1,-0.000781,0.006810,-0.002663,-0.003764,-0.001101,0.010919
"2019-10-06 14:17:20.356 +0000",1570371440.356436,-2.643706,-0.119890,-0.030829,-0.474142,0.119603,0.872287,0.000000,0.000000,0.000000,-1,0.002984,0.001896,-0.001377,-0.003977,0.000362,0.011151
"2019-10-06 14:17:20.379 +0000",1570371440.378743,-2.643601,-0.119879,-0.030815,-0.474234,0.119592,0.872238,0.000000,0.000000,0.000000,-1,0.000478,0.005586,-0.001411,-0.003473,-0.001489,0.011169
"2019-10-06 14:17:20.401 +0000",1570371440.401050,-2.643396,-0.119901,-0.030774,-0.474412,0.119613,0.872139,0.000000,0.000000,0.000000,-1,0.004254,0.010517,0.001028,-0.003417,-0.003784,0.012871
"2019-10-06 14:17:20.423 +0000",1570371440.423328,-2.643223,-0.119454,-0.030772,-0.474587,0.119170,0.872104,0.000000,0.000000,0.000000,-1,0.004269,0.010532,0.004749,-0.005698,-0.002532,0.011014
"2019-10-06 14:17:20.446 +0000",1570371440.445633,-2.643095,-0.119563,-0.030803,-0.474693,0.119278,0.872032,0.000000,0.000000,0.000000,-1,0.003017,0.006846,0.006022,-0.007698,-0.000580,0.011803
"2019-10-06 14:17:20.468 +0000",1570371440.467943,-2.642907,-0.119573,-0.030901,-0.474857,0.119288,0.871941,0.000000,0.000000,0.000000,-1,-0.000747,0.005615,0.006031,-0.007977,0.000982,0.011116
"2019-10-06 14:17:20.490 +0000",1570371440.490249,-2.642907,-0.119829,-0.030922,-0.474842,0.119543,0.871915,0.000000,0.000000,0.000000,-1,-0.000771,0.001815,0.001070,-0.004010,0.002497,0.008807
"2019-10-06 14:17:20.513 +0000",1570371440.512527,-2.642891,-0.119888,-0.030949,-0.474853,0.119601,0.871900,0.000000,0.000000,0.000000,-1,0.001737,-0.000644,0.001093,-0.003373,0.001370,0.010988
"2019-10-06 14:17:20.535 +0000",1570371440.534837,-2.642896,-0.119914,-0.030931,-0.474847,0.119627,0.871900,0.000000,0.000000,0.000000,-1,0.004234,-0.001883,-0.001376,-0.003761,0.002825,0.013384
"2019-10-06 14:17:20.557 +0000",1570371440.557125,-2.643119,-0.119887,-0.030957,-0.474654,0.119600,0.872009,0.000000,0.000000,0.000000,-1,0.000470,-0.003115,-0.001367,-0.002656,0.000639,0.010636
"2019-10-06 14:17:20.579 +0000",1570371440.579421,-2.643348,-0.119902,-0.030966,-0.474454,0.119615,0.872116,0.000000,0.000000,0.000000,-1,0.002997,0.001821,0.002312,-0.001850,-0.000749,0.013123
"2019-10-06 14:17:20.602 +0000",1570371440.601727,-2.643242,-0.119945,-0.030993,-0.474543,0.119657,0.872061,0.000000,0.000000,0.000000,-1,0.001745,0.004281,0.002290,-0.003530,0.000567,0.013971
"2019-10-06 14:17:20.624 +0000",1570371440.624035,-2.643113,-0.120016,-0.030940,-0.474652,0.119728,0.871992,0.000000,0.000000,0.000000,-1,0.004249,0.005507,0.001040,-0.002704,0.001533,0.012056
"2019-10-06 14:17:20.646 +0000",1570371440.646344,-2.643418,-0.120090,-0.031051,-0.474381,0.119802,0.872129,0.000000,0.000000,0.000000,-1,-0.005781,0.004278,0.002287,-0.003066,0.001704,0.012300
"2019-10-06 14:17:20.669 +0000",1570371440.668620,-2.643364,-0.120052,-0.031090,-0.474431,0.119764,0.872108,0.000000,0.000000,0.000000,-1,-0.004529,0.002959,0.002266,-0.002483,0.002490,0.013528
"2019-10-06 14:17:20.691 +0000",1570371440.690929,-2.643271,-0.119980,-0.031155,-0.474516,0.119692,0.872072,0.000000,0.000000,0.000000,-1,-0.002023,0.005415,0.001005,-0.003008,0.001996,0.013594
"2019-10-06 14:17:20.713 +0000",1570371440.713226,-2.643628,-0.120169,-0.031283,-0.474194,0.119880,0.872221,0.000000,0.000000,0.000000,-1,0.000500,0.004200,0.004739,-0.002735,0.001763,0.011218
"2019-10-06 14:17:20.736 +0000",1570371440.735543,-2.643523,-0.120144,-0.031244,-0.474287,0.119855,0.872174,0.000000,0.000000,0.000000,-1,-0.002056,0.001696,-0.006405,-0.001467,0.001452,0.010608
"2019-10-06 14:17:20.758 +0000",1570371440.757819,-2.643518,-0.119996,-0.031288,-0.474300,0.119709,0.872187,0.000000,0.000000,0.000000,-1,-0.009553,-0.000739,0.001057,-0.002110,-0.003040,0.009344
"2019-10-06 14:17:20.780 +0000",1570371440.780134,-2.643645,-0.119310,-0.031406,-0.474228,0.119028,0.872319,0.000000,0.000000,0.000000,-1,-0.001999,0.004209,0.007218,-0.006958,-0.006387,0.016246
"2019-10-06 14:17:20.802 +0000",1570371440.802435,-2.643677,-0.118677,-0.031538,-0.474236,0.118398,0.872400,0.000000,0.000000,0.000000,-1,0.006790,0.011598,0.008397,-0.006721,-0.003072,0.013037
"2019-10-06 14:17:20.825 +0000",1570371440.824713,-2.643280,-0.118980,-0.031530,-0.474565,0.118699,0.872180,0.000000,0.000000,0.000000,-1,0.013061,0.017746,0.007104,-0.004088,-0.001756,0.012051
"2019-10-06 14:17:20.847 +0000",1570371440.847020,-2.642966,-0.119324,-0.031626,-0.474820,0.119041,0.871995,0.000000,0.000000,0.000000,-1,0.010569,0.013985,0.012067,-0.006870,0.001885,0.014144
"2019-10-06 14:17:20.869 +0000",1570371440.869328,-2.642624,-0.120215,-0.031677,-0.475067,0.119925,0.871739,0.000000,0.000000,0.000000,-1,0.005513,0.015175,0.002130,-0.005768,0.009103,0.011394
"2019-10-06 14:17:20.892 +0000",1570371440.891635,-2.642251,-0.120259,-0.031619,-0.475389,0.119970,0.871558,0.000000,0.000000,0.000000,-1,0.002977,0.012690,-0.004052,-0.004393,0.007731,0.004739
"2019-10-06 14:17:20.914 +0000",1570371440.913913,-2.642195,-0.120144,-0.031502,-0.475445,0.119855,0.871543,0.000000,0.000000,0.000000,-1,0.000449,-0.002082,-0.006403,-0.003590,0.001864,0.009317
"2019-10-06 14:17:20.936 +0000",1570371440.936219,-2.642636,-0.119695,-0.031404,-0.475086,0.119410,0.871800,0.000000,0.000000,0.000000,-1,0.002964,0.001614,-0.005194,-0.007397,-0.001108,0.016643
"2019-10-06 14:17:20.959 +0000",1570371440.958528,-2.642533,-0.119741,-0.031245,-0.475173,0.119455,0.871746,0.000000,0.000000,0.000000,-1,0.005470,0.005300,-0.006466,-0.006577,-0.001016,0.014988
"2019-10-06 14:17:20.981 +0000",1570371440.980805,-2.642481,-0.119784,-0.031113,-0.475216,0.119498,0.871717,0.000000,0.000000,0.000000,-1,0.001705,0.001608,-0.006435,-0.007023,-0.000021,0.009448
"2019-10-06 14:17:21.003 +0000",1570371441.003112,-2.642497,-0.119753,-0.031092,-0.475204,0.119467,0.871728,0.000000,0.000000,0.000000,-1,-0.000787,-0.003294,-0.001430,-0.008225,-0.001196,0.005790
"2019-10-06 14:17:21.025 +0000",1570371441.025420,-2.642359,-0.119147,-0.030987,-0.475359,0.118865,0.871725,0.000000,0.000000,0.000000,-1,0.005478,-0.003383,-0.002699,-0.007673,-0.002441,0.013254
"2019-10-06 14:17:21.048 +0000",1570371441.047728,-2.642351,-0.119244,-0.030864,-0.475360,0.118961,0.871711,0.000000,0.000000,0.000000,-1,0.007979,0.000299,-0.005212,-0.005246,-0.003803,0.010445
"2019-10-06 14:17:21.070 +0000",1570371441.070034,-2.642389,-0.119428,-0.030726,-0.475316,0.119144,0.871710,0.000000,0.000000,0.000000,-1,0.013015,-0.002140,-0.000226,-0.004359,-0.002445,0.009149
"2019-10-06 14:17:21.092 +0000",1570371441.092320,-2.642511,-0.119437,-0.030587,-0.475209,0.119153,0.871768,0.000000,0.000000,0.000000,-1,0.009243,-0.000921,-0.002719,-0.005549,0.000781,0.012754
"2019-10-06 14:17:21.115 +0000",1570371441.114620,-2.642965,-0.119650,-0.030471,-0.474802,0.119364,0.871961,0.000000,0.000000,0.000000,-1,0.014258,-0.004610,-0.002684,-0.002478,0.002569,0.012469
"2019-10-06 14:17:21.137 +0000",1570371441.136898,-2.643009,-0.119869,-0.030266,-0.474751,0.119582,0.871958,0.000000,0.000000,0.000000,-1,0.016767,-0.003379,-0.002694,-0.003994,0.004579,0.013005
"2019-10-06 14:17:21.159 +0000",1570371441.159188,-2.643953,-0.120648,-0.030141,-0.473883,0.120355,0.872324,0.000000,0.000000,0.000000,-1,0.015519,-0.003375,-0.001454,0.001257,0.006140,0.014516
"2019-10-06 14:17:21.182 +0000",1570371441.181513,-2.643965,-0.120822,-0.029897,-0.473862,0.120528,0.872312,0.000000,0.000000,0.000000,-1,0.009238,-0.000927,-0.003960,0.002350,0.007157,0.014453
"2019-10-06 14:17:21.204 +0000",1570371441.203804,-2.643994,-0.120895,-0.029716,-0.473833,0.120601,0.872317,0.000000,0.000000,0.000000,-1,0.009226,-0.002255,-0.006460,0.001619,0.006307,0.013471
"2019-10-06 14:17:21.226 +0000",1570371441.226098,-2.644005,-0.120903,-0.029562,-0.473823,0.120609,0.872322,0.000000,0.000000,0.000000,-1,0.001716,-0.001014,-0.002752,0.004051,0.004178,0.014153
"2019-10-06 14:17:21.248 +0000",1570371441.248405,-2.645423,-0.120791,-0.029677,-0.472592,0.120498,0.873005,0.000000,0.000000,0.000000,-1,0.002977,0.002681,-0.001544,0.000409,0.000352,0.016125
"2019-10-06 14:17:21.271 +0000",1570371441.270713,-2.645331,-0.120860,-0.029695,-0.472669,0.120566,0.872954,0.000000,0.000000,0.000000,-1,0.003007,0.008855,0.004604,0.003064,-0.001350,0.016191
"2019-10-06 14:17:21.293 +0000",1570371441.292990,-2.645145,-0.120957,-0.029791,-0.472825,0.120662,0.872856,0.000000,0.000000,0.000000,-1,0.000511,0.013784,0.007040,-0.001876,-0.000103,0.014672
"2019-10-06 14:17:21.315 +0000",1570371441.315303,-2.645162,-0.121066,-0.029963,-0.472804,0.120770,0.872853,0.000000,0.000000,0.000000,-1,0.000504,0.010089,0.005832,-0.004507,0.001849,0.012081
"2019-10-06 14:17:21.338 +0000",1570371441.337605,-2.645026,-0.121073,-0.030043,-0.472922,0.120777,0.872787,0.000000,0.000000,0.000000,-1,-0.000757,0.014999,0.003307,-0.004785,0.001171,0.012406
"2019-10-06 14:17:21.360 +0000",1570371441.359912,-2.644763,-0.121071,-0.030121,-0.473152,0.120776,0.872663,0.000000,0.000000,0.000000,-1,-0.003269,0.011308,0.003339,-0.007134,-0.000308,0.009539
"2019-10-06 14:17:21.382 +0000",1570371441.382204,-2.643976,-0.120920,-0.030141,-0.473847,0.120626,0.872306,0.000000,0.000000,0.000000,-1,0.000495,0.007538,0.004584,-0.009200,-0.000356,0.008111
"2019-10-06 14:17:21.404 +0000",1570371441.404486,-2.643850,-0.120951,-0.030147,-0.473955,0.120656,0.872243,0.000000,0.000000,0.000000,-1,0.000479,0.006294,0.000873,-0.009855,0.000941,0.008341
"2019-10-06 14:17:21.427 +0000",1570371441.426806,-2.643732,-0.120987,-0.030102,-0.474056,0.120692,0.872183,0.000000,0.000000,0.000000,-1,0.004232,0.006286,-0.001606,-0.011494,0.001577,0.010507
"2019-10-06 14:17:21.449 +0000",1570371441.449083,-2.643675,-0.121054,-0.030057,-0.474102,0.120759,0.872149,0.000000,0.000000,0.000000,-1,0.001725,0.001369,-0.000323,-0.010777,0.004196,0.011456
"2019-10-06 14:17:21.471 +0000",1570371441.471390,-2.643548,-0.120920,-0.029989,-0.474220,0.120626,0.872104,0.000000,0.000000,0.000000,-1,0.000469,-0.001091,-0.000302,-0.004707,-0.001165,0.008603
"2019-10-06 14:17:21.494 +0000",1570371441.493697,-2.643588,-0.120956,-0.029945,-0.474184,0.120662,0.872118,0.000000,0.000000,0.000000,-1,0.005486,-0.001089,-0.000300,-0.003416,0.000737,0.013990
"2019-10-06 14:17:21.516 +0000",1570371441.516005,-2.643574,-0.121077,-0.029911,-0.474189,0.120782,0.872099,0.000000,0.000000,0.000000,-1,0.004243,0.000150,0.002170,-0.001900,0.001579,0.017260
"2019-10-06 14:17:21.538 +0000",1570371441.538287,-2.644316,-0.121268,-0.029946,-0.473531,0.120971,0.872430,0.000000,0.000000,0.000000,-1,0.002983,-0.001086,0.000940,-0.001399,0.002534,0.012457
"2019-10-06 14:17:21.561 +0000",1570371441.560590,-2.644394,-0.121342,-0.029928,-0.473458,0.121045,0.872459,0.000000,0.000000,0.000000,-1,0.001783,-0.004858,0.004569,-0.000266,-0.001477,0.013939
"2019-10-06 14:17:21.583 +0000",1570371441.582897,-2.644479,-0.121381,-0.030079,-0.473382,0.121083,0.872496,0.000000,0.000000,0.000000,-1,0.000536,-0.001164,0.005776,-0.003333,-0.003179,0.013491
"2019-10-06 14:17:21.605 +0000",1570371441.605187,-2.644703,-0.121163,-0.030266,-0.473199,0.120867,0.872625,0.000000,0.000000,0.000000,-1,-0.000708,0.006221,0.006951,-0.002509,-0.002321,0.011347
"2019-10-06 14:17:21.627 +0000",1570371441.627481,-2.645259,-0.120847,-0.030435,-0.472731,0.120553,0.872922,0.000000,0.000000,0.000000,-1,0.003048,0.004987,0.005722,-0.003679,0.000006,0.010120
"2019-10-06 14:17:21.650 +0000",1570371441.649790,-2.645156,-0.120981,-0.030555,-0.472814,0.120687,0.872858,0.000000,0.000000,0.000000,-1,0.005559,0.007448,0.005702,-0.002207,0.000133,0.012274
"2019-10-06 14:17:21.672 +0000",1570371441.672098,-2.645022,-0.121121,-0.030657,-0.472923,0.120825,0.872780,0.000000,0.000000,0.000000,-1,0.001794,0.004987,0.005722,-0.007607,0.004358,0.013069
"2019-10-06 14:17:21.694 +0000",1570371441.694375,-2.644686,-0.121724,-0.030670,-0.473181,0.121423,0.872557,0.000000,0.000000,0.000000,-1,-0.000731,0.009887,0.000715,-0.008005,0.005667,0.010088
"2019-10-06 14:17:21.717 +0000",1570371441.716682,-2.644553,-0.121688,-0.030654,-0.473300,0.121388,0.872498,0.000000,0.000000,0.000000,-1,-0.000750,0.003722,-0.002951,-0.003904,0.004619,0.012039
"2019-10-06 14:17:21.739 +0000",1570371441.738990,-2.644512,-0.121669,-0.030594,-0.473336,0.121369,0.872481,0.000000,0.000000,0.000000,-1,0.003038,0.001175,-0.004270,-0.005470,0.003249,0.014101
"2019-10-06 14:17:21.761 +0000",1570371441.761281,-2.644678,-0.121612,-0.030454,-0.473195,0.121312,0.872565,0.000000,0.000000,0.000000,-1,0.008058,0.004868,-0.004300,-0.003871,0.000835,0.010186
"2019-10-06 14:17:21.784 +0000",1570371441.783575,-2.644561,-0.121628,-0.030327,-0.473296,0.121329,0.872508,0.000000,0.000000,0.000000,-1,-0.000717,0.006099,-0.003075,-0.003541,-0.000555,0.011129
"2019-10-06 14:17:21.806 +0000",1570371441.805883,-2.644497,-0.121573,-0.030303,-0.473355,0.121274,0.872484,0.000000,0.000000,0.000000,-1,-0.003207,0.003657,0.001908,-0.004489,-0.000043,0.012251
"2019-10-06 14:17:21.828 +0000",1570371441.828188,-2.644442,-0.121541,-0.030409,-0.473405,0.121242,0.872461,0.000000,0.000000,0.000000,-1,-0.001959,0.001192,0.000690,-0.004821,-0.001003,0.010779
"2019-10-06 14:17:21.850 +0000",1570371441.850485,-2.644951,-0.121163,-0.030540,-0.472982,0.120867,0.872742,0.000000,0.000000,0.000000,-1,-0.003202,0.004892,0.003138,-0.003290,0.000059,0.012466
"2019-10-06 14:17:21.873 +0000",1570371441.872775,-2.644814,-0.121151,-0.030595,-0.473102,0.120855,0.872679,0.000000,0.000000,0.000000,-1,-0.003201,0.006122,0.003127,-0.002438,0.001032,0.013170
"2019-10-06 14:17:21.895 +0000",1570371441.895084,-2.644664,-0.121202,-0.030647,-0.473231,0.120905,0.872602,0.000000,0.000000,0.000000,-1,0.000562,0.006123,0.003128,-0.002645,0.001562,0.012850
"2019-10-06 14:17:21.917 +0000",1570371441.917360,-2.644868,-0.121255,-0.030802,-0.473050,0.120958,0.872693,0.000000,0.000000,0.000000,-1,-0.004432,0.003575,0.003049,-0.004474,0.001661,0.011478
"2019-10-06 14:17:21.940 +0000",1570371441.939666,-2.644797,-0.121278,-0.030875,-0.473110,0.120981,0.872657,0.000000,0.000000,0.000000,-1,-0.001933,0.003566,0.000569,-0.007053,0.003150,0.013772
"2019-10-06 14:17:21.962 +0000",1570371441.961975,-2.644583,-0.121450,-0.030809,-0.473287,0.121152,0.872537,0.000000,0.000000,0.000000,-1,0.004336,0.007255,-0.000701,-0.007136,0.003344,0.011496
"2019-10-06 14:17:21.984 +0000",1570371441.984261,-2.644650,-0.121478,-0.030818,-0.473227,0.121179,0.872566,0.000000,0.000000,0.000000,-1,0.004351,0.006039,0.003031,-0.004831,0.001410,0.013634
"2019-10-06 14:17:22.007 +0000",1570371442.006559,-2.644598,-0.121482,-0.030814,-0.473272,0.121184,0.872541,0.000000,0.000000,0.000000,-1,0.003090,0.003573,0.001812,-0.003321,-0.000242,0.011095
"2019-10-06 14:17:22.029 +0000",1570371442.028867,-2.644541,-0.121523,-0.030775,-0.473319,0.121224,0.872510,0.000000,0.000000,0.000000,-1,0.001820,0.003558,-0.001910,-0.007638,-0.000680,0.011523
"2019-10-06 14:17:22.051 +0000",1570371442.051154,-2.644478,-0.121543,-0.030740,-0.473373,0.121243,0.872478,0.000000,0.000000,0.000000,-1,0.001820,0.003558,-0.001910,-0.006042,-0.000043,0.012623
"2019-10-06 14:17:22.073 +0000",1570371442.073451,-2.644864,-0.121348,-0.030827,-0.473047,0.121050,0.872681,0.000000,0.000000,0.000000,-1,0.003089,0.003573,0.001812,-0.004064,-0.001162,0.010650
"2019-10-06 14:17:22.096 +0000",1570371442.095760,-2.644773,-0.121431,-0.030834,-0.473122,0.121132,0.872629,0.000000,0.000000,0.000000,-1,0.003107,0.002253,0.001726,-0.004310,-0.000710,0.012350
"2019-10-06 14:17:22.118 +0000",1570371442.118068,-2.644718,-0.121473,-0.030855,-0.473168,0.121174,0.872599,0.000000,0.000000,0.000000,-1,0.001860,0.005947,0.002933,-0.004402,-0.000081,0.010000
"2019-10-06 14:17:22.140 +0000",1570371442.140370,-2.644946,-0.121503,-0.030960,-0.472967,0.121204,0.872704,0.000000,0.000000,0.000000,-1,-0.001888,0.005960,0.006653,-0.004435,0.001736,0.013878
"2019-10-06 14:17:22.163 +0000",1570371442.162651,-2.644982,-0.121550,-0.031045,-0.472933,0.121251,0.872716,0.000000,0.000000,0.000000,-1,0.003102,0.002248,0.000486,-0.004835,0.002421,0.013301
"2019-10-06 14:17:22.185 +0000",1570371442.184960,-2.644852,-0.121737,-0.031063,-0.473036,0.121436,0.872634,0.000000,0.000000,0.000000,-1,0.000603,0.009632,0.001660,-0.004762,0.004052,0.010362
"2019-10-06 14:17:22.207 +0000",1570371442.207268,-2.645081,-0.121637,-0.031199,-0.472841,0.121337,0.872753,0.000000,0.000000,0.000000,-1,-0.006923,0.002253,0.002962,-0.003309,0.001893,0.013248
"2019-10-06 14:17:22.230 +0000",1570371442.229544,-2.645138,-0.121648,-0.031294,-0.472791,0.121348,0.872779,0.000000,0.000000,0.000000,-1,0.001850,-0.002669,0.001769,-0.006167,0.002065,0.013314
"2019-10-06 14:17:22.252 +0000",1570371442.251852,-2.645075,-0.121763,-0.031244,-0.472839,0.121462,0.872737,0.000000,0.000000,0.000000,-1,0.005608,0.005934,-0.000786,-0.006210,0.002394,0.011769
"2019-10-06 14:17:22.274 +0000",1570371442.274154,-2.644955,-0.121728,-0.031208,-0.472946,0.121428,0.872684,0.000000,0.000000,0.000000,-1,0.000607,0.000944,0.001658,-0.006485,0.000917,0.012235
"2019-10-06 14:17:22.296 +0000",1570371442.296464,-2.645112,-0.121412,-0.031267,-0.472827,0.121114,0.872792,0.000000,0.000000,0.000000,-1,-0.000651,-0.003977,0.001701,-0.007321,-0.000692,0.014003
"2019-10-06 14:17:22.319 +0000",1570371442.318746,-2.645095,-0.121461,-0.031299,-0.472840,0.121162,0.872778,0.000000,0.000000,0.000000,-1,0.004381,0.003416,0.004119,-0.004592,-0.000160,0.012674
"2019-10-06 14:17:22.341 +0000",1570371442.341053,-2.644894,-0.121470,-0.031287,-0.473014,0.121171,0.872683,0.000000,0.000000,0.000000,-1,-0.000659,0.007080,-0.002119,-0.001046,0.001677,0.008955
"2019-10-06 14:17:22.363 +0000",1570371442.363359,-2.645441,-0.121218,-0.031285,-0.472551,0.120921,0.872968,0.000000,0.000000,0.000000,-1,-0.004419,0.004622,-0.000858,-0.000471,0.000783,0.012484
"2019-10-06 14:17:22.386 +0000",1570371442.385636,-2.645468,-0.121136,-0.031271,-0.472533,0.120840,0.872989,0.000000,0.000000,0.000000,-1,0.000591,0.000929,-0.002064,-0.004777,0.000803,0.012371
"2019-10-06 14:17:22.408 +0000",1570371442.407945,-2.645405,-0.121149,-0.031266,-0.472587,0.120853,0.872958,0.000000,0.000000,0.000000,-1,-0.000645,0.005864,0.001614,-0.002603,0.002774,0.013592
"2019-10-06 14:17:22.430 +0000",1570371442.430231,-2.645539,-0.121121,-0.031297,-0.472471,0.120825,0.873025,0.000000,0.000000,0.000000,-1,-0.000648,0.008319,0.000351,-0.000505,0.000360,0.009727
"2019-10-06 14:17:22.453 +0000",1570371442.452554,-2.645287,-0.121149,-0.031306,-0.472690,0.120853,0.872902,0.000000,0.000000,0.000000,-1,0.000574,0.010697,0.000340,-0.001660,-0.000079,0.011054
"2019-10-06 14:17:22.475 +0000",1570371442.474846,-2.645363,-0.121220,-0.031323,-0.472620,0.120924,0.872931,0.000000,0.000000,0.000000,-1,-0.001942,-0.000375,0.000438,-0.007895,0.003756,0.016763
"2019-10-06 14:17:22.497 +0000",1570371442.497145,-2.645279,-0.121188,-0.031296,-0.472695,0.120892,0.872895,0.000000,0.000000,0.000000,-1,-0.001949,0.003306,-0.002076,-0.007881,0.005070,0.015655
"2019-10-06 14:17:22.519 +0000",1570371442.519453,-2.644926,-0.121187,-0.031311,-0.473002,0.120891,0.872728,0.000000,0.000000,0.000000,-1,-0.004448,0.010691,-0.000902,-0.006551,0.002828,0.011427
"2019-10-06 14:17:22.542 +0000",1570371442.541730,-2.644728,-0.120941,-0.031359,-0.473189,0.120646,0.872660,0.000000,0.000000,0.000000,-1,-0.013248,0.004522,-0.004573,-0.004746,0.001287,0.008031
"2019-10-06 14:17:22.564 +0000",1570371442.564038,-2.644834,-0.120681,-0.031426,-0.473112,0.120388,0.872738,0.000000,0.000000,0.000000,-1,-0.009477,-0.006533,-0.000751,-0.001497,-0.000179,0.011799
"2019-10-06 14:17:22.586 +0000",1570371442.586325,-2.645532,-0.120243,-0.031489,-0.472528,0.119953,0.873114,0.000000,0.000000,0.000000,-1,-0.001942,-0.000375,0.000438,-0.000967,-0.002064,0.011987
"2019-10-06 14:17:22.609 +0000",1570371442.608652,-2.645750,-0.120172,-0.031589,-0.472342,0.119883,0.873225,0.000000,0.000000,0.000000,-1,-0.000673,-0.001590,0.004170,-0.003015,0.000295,0.012106
"2019-10-06 14:17:22.631 +0000",1570371442.630929,-2.645785,-0.120037,-0.031800,-0.472319,0.119749,0.873255,0.000000,0.000000,0.000000,-1,-0.010719,-0.001642,0.010376,-0.003816,0.001924,0.014318
"2019-10-06 14:17:22.653 +0000",1570371442.653226,-2.645907,-0.120019,-0.032173,-0.472214,0.119731,0.873315,0.000000,0.000000,0.000000,-1,-0.020769,-0.002891,0.006662,-0.005997,0.005452,0.012443
"2019-10-06 14:17:22.676 +0000",1570371442.675545,-2.646045,-0.119907,-0.032459,-0.472100,0.119620,0.873392,0.000000,0.000000,0.000000,-1,-0.008221,0.004495,0.006602,-0.004081,0.002771,0.010870
"2019-10-06 14:17:22.698 +0000",1570371442.697822,-2.645822,-0.119611,-0.032581,-0.472310,0.119326,0.873318,0.000000,0.000000,0.000000,-1,0.009363,0.018048,0.010210,-0.000941,-0.008058,0.004642
"2019-10-06 14:17:22.720 +0000",1570371442.720128,-2.645277,-0.120196,-0.032593,-0.472753,0.119907,0.872999,0.000000,0.000000,0.000000,-1,0.029453,0.025452,0.013875,-0.001642,-0.010242,0.003466
"2019-10-06 14:17:22.742 +0000",1570371442.742438,-2.644891,-0.120823,-0.032617,-0.473055,0.120529,0.872750,0.000000,0.000000,0.000000,-1,0.033227,0.011941,0.018958,-0.004820,0.000961,0.010277
"2019-10-06 14:17:22.765 +0000",1570371442.764739,-2.644718,-0.121403,-0.032706,-0.473172,0.121105,0.872606,0.000000,0.000000,0.000000,-1,0.014397,0.011919,0.015229,-0.007541,0.004169,0.019041
"2019-10-06 14:17:22.787 +0000",1570371442.787015,-2.644174,-0.121710,-0.032790,-0.473628,0.121410,0.872316,0.000000,0.000000,0.000000,-1,0.005614,0.031583,0.011329,-0.002370,0.003941,0.016325
"2019-10-06 14:17:22.809 +0000",1570371442.809329,-2.644004,-0.122280,-0.033169,-0.473744,0.121976,0.872175,0.000000,0.000000,0.000000,-1,-0.010740,0.017967,0.011449,-0.002849,0.004733,0.009738
"2019-10-06 14:17:22.832 +0000",1570371442.831639,-2.643975,-0.122455,-0.033542,-0.473759,0.122150,0.872142,0.000000,0.000000,0.000000,-1,-0.008240,0.003206,0.011581,-0.003902,0.006039,0.011311
"2019-10-06 14:17:22.854 +0000",1570371442.853914,-2.643859,-0.122494,-0.033737,-0.473858,0.122188,0.872083,0.000000,0.000000,0.000000,-1,0.003043,0.009352,0.009050,-0.004597,0.002568,0.012118
"2019-10-06 14:17:22.876 +0000",1570371442.876224,-2.643475,-0.122602,-0.033868,-0.474187,0.122295,0.871889,0.000000,0.000000,0.000000,-1,0.000537,0.021647,0.007699,-0.004252,0.002567,0.009748
"2019-10-06 14:17:22.899 +0000",1570371442.898518,-2.643463,-0.122509,-0.034094,-0.474202,0.122202,0.871894,0.000000,0.000000,0.000000,-1,0.000528,0.015492,0.006513,-0.004878,-0.001353,0.014825
"2019-10-06 14:17:22.921 +0000",1570371442.920837,-2.643185,-0.122671,-0.034426,-0.474436,0.122363,0.871744,0.000000,0.000000,0.000000,-1,-0.001928,0.011853,0.020191,-0.005591,0.002057,0.011541
"2019-10-06 14:17:22.943 +0000",1570371442.943115,-2.642911,-0.122675,-0.034733,-0.474674,0.122368,0.871614,0.000000,0.000000,0.000000,-1,-0.005731,0.013043,0.010254,-0.006939,0.001503,0.008452
"2019-10-06 14:17:22.965 +0000",1570371442.965422,-2.642133,-0.122799,-0.034946,-0.475344,0.122491,0.871231,0.000000,0.000000,0.000000,-1,-0.010773,0.004412,0.005367,-0.012525,0.005210,0.013794
"2019-10-06 14:17:22.988 +0000",1570371442.987730,-2.642048,-0.122715,-0.035034,-0.475424,0.122407,0.871200,0.000000,0.000000,0.000000,-1,-0.003303,0.005553,0.000401,-0.010904,0.005888,0.014970
"2019-10-06 14:17:23.010 +0000",1570371443.010007,-2.641964,-0.122681,-0.035024,-0.475499,0.122374,0.871163,0.000000,0.000000,0.000000,-1,-0.000801,0.003090,-0.000817,-0.007747,0.001573,0.010841
"2019-10-06 14:17:23.032 +0000",1570371443.032329,-2.642563,-0.122171,-0.035094,-0.475007,0.121868,0.871503,0.000000,0.000000,0.000000,-1,-0.000804,-0.009207,0.000533,-0.002227,-0.001995,0.014804
"2019-10-06 14:17:23.055 +0000",1570371443.054622,-2.642531,-0.122206,-0.035063,-0.475032,0.121902,0.871484,0.000000,0.000000,0.000000,-1,0.001714,0.005555,0.000403,-0.004109,-0.002990,0.011954
