timestamp,timeIntervalSince1970,attitude.roll,attitude.pitch,attitude.yaw,gravity.x,gravity.y,gravity.z,magneticField.x,magneticField.y,magneticField.z,magneticField.accuracy,rotationRate.x,rotationRate.y,rotationRate.z,userAcceleration.x,userAcceleration.y,userAcceleration.z
"2019-05-06 15:54:21.639 +0000",1557158061.638695,0.331909,0.462238,-0.151233,0.291653,-0.445953,-0.846206,0.000000,0.000000,0.000000,-1,0.051879,0.024047,0.229344,-0.003292,-0.003053,0.040603
"2019-05-06 15:54:21.659 +0000",1557158061.658652,0.325455,0.463469,-0.144910,0.286009,-0.447054,-0.847550,0.000000,0.000000,0.000000,-1,-0.067741,-0.147489,0.283024,0.064317,-0.061995,-0.036941
"2019-05-06 15:54:21.679 +0000",1557158061.678640,0.319818,0.463833,-0.144464,0.281176,-0.447380,-0.848994,0.000000,0.000000,0.000000,-1,0.053846,-0.548090,-0.152626,-0.033541,0.108894,-0.064076
"2019-05-06 15:54:21.699 +0000",1557158061.698597,0.305051,0.460901,-0.151004,0.269002,-0.444755,-0.854302,0.000000,0.000000,0.000000,-1,-0.225979,-1.269549,-0.459767,-0.057332,0.099098,-0.207558
"2019-05-06 15:54:21.719 +0000",1557158061.718555,0.278175,0.447846,-0.158386,0.247520,-0.433025,-0.866731,0.000000,0.000000,0.000000,-1,-0.800653,-1.662680,-0.513600,-0.075569,0.010600,-0.281020
"2019-05-06 15:54:21.739 +0000",1557158061.738515,0.249914,0.428849,-0.163759,0.224925,-0.415824,-0.881192,0.000000,0.000000,0.000000,-1,-0.787440,-1.225734,-0.461857,-0.089259,-0.022424,-0.167041
"2019-05-06 15:54:21.759 +0000",1557158061.758503,0.234698,0.415952,-0.168856,0.212720,-0.404061,-0.889654,0.000000,0.000000,0.000000,-1,-0.356269,-0.558053,-0.286033,-0.074979,-0.009254,-0.008753
"2019-05-06 15:54:21.778 +0000",1557158061.778460,0.232425,0.410656,-0.174168,0.211187,-0.399211,-0.892206,0.000000,0.000000,0.000000,-1,-0.092828,0.055802,-0.301944,0.034678,-0.120122,-0.051810
"2019-05-06 15:54:21.798 +0000",1557158061.798418,0.231401,0.406983,-0.185027,0.210609,-0.395841,-0.893842,0.000000,0.000000,0.000000,-1,0.026026,-0.605868,-0.634862,-0.082710,0.058179,-0.075350
"2019-05-06 15:54:21.818 +0000",1557158061.818407,0.219647,0.406274,-0.201813,0.200149,-0.395190,-0.896530,0.000000,0.000000,0.000000,-1,0.204581,-1.215425,-0.927701,-0.120132,0.080401,-0.107224
"2019-05-06 15:54:21.838 +0000",1557158061.838370,0.197883,0.405599,-0.227860,0.180643,-0.394569,-0.900934,0.000000,0.000000,0.000000,-1,0.158174,-2.002108,-1.484872,-0.116495,0.034020,-0.121481
"2019-05-06 15:54:21.858 +0000",1557158061.858327,0.167002,0.399604,-0.264065,0.153131,-0.389053,-0.908399,0.000000,0.000000,0.000000,-1,-0.109560,-2.445914,-1.804311,-0.037469,0.004150,-0.085971
"2019-05-06 15:54:21.878 +0000",1557158061.878316,0.135222,0.391924,-0.303372,0.124588,-0.381968,-0.915739,0.000000,0.000000,0.000000,-1,-0.047948,-2.115315,-1.842234,0.066864,-0.096868,-0.023317
"2019-05-06 15:54:21.898 +0000",1557158061.898273,0.116053,0.388900,-0.341485,0.107146,-0.379171,-0.919102,0.000000,0.000000,0.000000,-1,0.192196,-1.260897,-1.703359,0.070192,0.003195,0.098942
"2019-05-06 15:54:21.918 +0000",1557158061.918231,0.109070,0.391760,-0.379666,0.100607,-0.381815,-0.918747,0.000000,0.000000,0.000000,-1,0.432702,-1.220998,-1.905375,-0.093344,-0.010397,0.132080
"2019-05-06 15:54:21.938 +0000",1557158061.938220,0.086176,0.393413,-0.425178,0.079494,-0.383343,-0.920179,0.000000,0.000000,0.000000,-1,0.081948,-2.875270,-2.210871,-0.203289,-0.138568,0.114225
"2019-05-06 15:54:21.958 +0000",1557158061.958178,0.037596,0.394652,-0.473895,0.034698,-0.384487,-0.922478,0.000000,0.000000,0.000000,-1,-0.560234,-3.526747,-2.169360,-0.242080,-0.062412,0.126045
"2019-05-06 15:54:21.978 +0000",1557158061.978136,-0.013736,0.383610,-0.513876,-0.012738,-0.374271,-0.927232,0.000000,0.000000,0.000000,-1,-0.411128,-3.171430,-1.510251,-0.276660,-0.052594,0.380494
"2019-05-06 15:54:21.998 +0000",1557158061.998125,-0.065614,0.381382,-0.541363,-0.060856,-0.372204,-0.926154,0.000000,0.000000,0.000000,-1,-0.216997,-2.958780,-1.101615,-0.233013,0.044338,0.392691
"2019-05-06 15:54:22.018 +0000",1557158062.018083,-0.112599,0.376112,-0.562120,-0.104507,-0.367307,-0.924210,0.000000,0.000000,0.000000,-1,-0.413376,-2.817551,-0.781832,-0.096284,0.194821,0.165955
"2019-05-06 15:54:22.038 +0000",1557158062.038041,-0.171103,0.367565,-0.581718,-0.158896,-0.359345,-0.919578,0.000000,0.000000,0.000000,-1,-0.893317,-3.867075,-0.966713,-0.048425,0.066696,-0.054055
"2019-05-06 15:54:22.058 +0000",1557158062.058030,-0.250562,0.346417,-0.612294,-0.233219,-0.339530,-0.911224,0.000000,0.000000,0.000000,-1,-1.725536,-5.241284,-1.342115,0.136814,0.104667,-0.194276
"2019-05-06 15:54:22.078 +0000",1557158062.077988,-0.357144,0.319957,-0.649911,-0.331858,-0.314526,-0.889350,0.000000,0.000000,0.000000,-1,-1.849253,-6.316700,-1.198006,0.037958,-0.108265,0.039207
"2019-05-06 15:54:22.098 +0000",1557158062.097946,-0.466342,0.293910,-0.682944,-0.430341,-0.289697,-0.854916,0.000000,0.000000,0.000000,-1,-1.675332,-5.377312,-0.605460,0.051786,0.028818,0.297803
"2019-05-06 15:54:22.118 +0000",1557158062.117904,-0.553458,0.275469,-0.701279,-0.505815,-0.271998,-0.818638,0.000000,0.000000,0.000000,-1,-0.738714,-3.937886,-0.083809,-0.002165,0.039729,0.416783
"2019-05-06 15:54:22.138 +0000",1557158062.137893,-0.622948,0.271568,-0.704593,-0.562050,-0.268243,-0.782397,0.000000,0.000000,0.000000,-1,0.170109,-3.264420,-0.090652,0.087410,0.066491,0.355166
"2019-05-06 15:54:22.158 +0000",1557158062.157851,-0.689630,0.281440,-0.704529,-0.611219,-0.277739,-0.741129,0.000000,0.000000,0.000000,-1,0.519035,-3.512655,-0.546452,0.184797,0.099226,0.176386
"2019-05-06 15:54:22.178 +0000",1557158062.177809,-0.762959,0.299142,-0.710881,-0.660373,-0.294701,-0.690695,0.000000,0.000000,0.000000,-1,0.309874,-3.972729,-1.051007,0.204547,0.154289,-0.006494
"2019-05-06 15:54:22.198 +0000",1557158062.197797,-0.835817,0.315816,-0.727758,-0.705155,-0.310592,-0.637408,0.000000,0.000000,0.000000,-1,-0.338484,-3.642843,-1.249880,0.149903,0.107314,-0.053114
"2019-05-06 15:54:22.218 +0000",1557158062.217757,-0.893898,0.328899,-0.754791,-0.737736,-0.323001,-0.592804,0.000000,0.000000,0.000000,-1,-0.657901,-3.128746,-1.401584,0.034962,0.118289,0.071014
"2019-05-06 15:54:22.238 +0000",1557158062.237714,-0.948172,0.345393,-0.783837,-0.764375,-0.338566,-0.548729,0.000000,0.000000,0.000000,-1,-0.504548,-3.423635,-1.591307,-0.073836,0.148793,0.104912
"2019-05-06 15:54:22.258 +0000",1557158062.257702,-1.015190,0.368273,-0.810794,-0.792617,-0.360005,-0.492093,0.000000,0.000000,0.000000,-1,-0.326443,-4.285865,-1.675642,-0.148271,0.188114,0.072339
"2019-05-06 15:54:22.278 +0000",1557158062.277661,-1.100101,0.394815,-0.833784,-0.822687,-0.384637,-0.418617,0.000000,0.000000,0.000000,-1,-0.252709,-4.969639,-1.708375,-0.170187,0.191553,0.051734
"2019-05-06 15:54:22.298 +0000",1557158062.297619,-1.192028,0.425364,-0.853462,-0.846325,-0.412653,-0.336825,0.000000,0.000000,0.000000,-1,-0.097378,-4.967221,-1.881383,-0.097126,0.133127,0.122302
"2019-05-06 15:54:22.318 +0000",1557158062.317606,-1.283991,0.464786,-0.867496,-0.857403,-0.448232,-0.252880,0.000000,0.000000,0.000000,-1,0.179089,-4.733846,-2.263055,-0.070667,0.026967,0.173351
"2019-05-06 15:54:22.338 +0000",1557158062.337564,-1.367486,0.513641,-0.873063,-0.853023,-0.491352,-0.175858,0.000000,0.000000,0.000000,-1,0.521950,-3.824492,-2.542448,-0.130818,0.023594,0.267365
"2019-05-06 15:54:22.358 +0000",1557158062.357523,-1.434698,0.564253,-0.866165,-0.837174,-0.534785,-0.114647,0.000000,0.000000,0.000000,-1,0.959221,-2.552351,-2.294728,-0.209945,0.045283,0.321938
"2019-05-06 15:54:22.378 +0000",1557158062.377511,-1.492377,0.609455,-0.839567,-0.817440,-0.572421,-0.064235,0.000000,0.000000,0.000000,-1,1.798393,-1.830263,-2.061780,-0.225437,0.024325,0.285914
"2019-05-06 15:54:22.397 +0000",1557158062.397470,-1.555182,0.651714,-0.787889,-0.794949,-0.606550,-0.012413,0.000000,0.000000,0.000000,-1,2.339103,-1.817921,-1.995140,-0.109959,-0.026400,0.174858
"2019-05-06 15:54:22.417 +0000",1557158062.417428,-1.634025,0.696133,-0.727692,-0.765794,-0.641255,0.048485,0.000000,0.000000,0.000000,-1,2.192187,-2.345762,-2.527834,-0.013853,0.006444,0.002281
"2019-05-06 15:54:22.437 +0000",1557158062.437416,-1.724232,0.742869,-0.669163,-0.727878,-0.676404,0.112567,0.000000,0.000000,0.000000,-1,1.632984,-2.777916,-2.487972,-0.242626,-0.014102,-0.094516
"2019-05-06 15:54:22.457 +0000",1557158062.457374,-1.813523,0.782704,-0.621573,-0.688225,-0.705199,0.170410,0.000000,0.000000,0.000000,-1,1.036928,-2.730606,-2.115313,-0.339393,-0.001893,-0.077026
"2019-05-06 15:54:22.477 +0000",1557158062.477331,-1.895947,0.815040,-0.577495,-0.649903,-0.727753,0.219092,0.000000,0.000000,0.000000,-1,1.076327,-2.242873,-1.887549,-0.195922,-0.092758,0.002343
"2019-05-06 15:54:22.497 +0000",1557158062.497290,-1.961531,0.842133,-0.526371,-0.615686,-0.746065,0.253610,0.000000,0.000000,0.000000,-1,1.204369,-0.489847,-1.846312,-0.048026,-0.084181,0.144584
"2019-05-06 15:54:22.517 +0000",1557158062.517279,-2.000172,0.865492,-0.468739,-0.589420,-0.761414,0.269875,0.000000,0.000000,0.000000,-1,1.336792,0.830363,-1.837229,-0.033993,-0.214401,0.176047
"2019-05-06 15:54:22.537 +0000",1557158062.537236,-2.025414,0.886531,-0.405760,-0.567901,-0.774883,0.277569,0.000000,0.000000,0.000000,-1,1.396371,1.433824,-1.763329,-0.068085,-0.235889,0.148624
"2019-05-06 15:54:22.557 +0000",1557158062.557195,-2.046999,0.903446,-0.341763,-0.550049,-0.785464,0.283712,0.000000,0.000000,0.000000,-1,1.444306,1.317484,-1.564278,-0.154434,-0.236234,0.105128
"2019-05-06 15:54:22.577 +0000",1557158062.577183,-2.079762,0.914916,-0.275106,-0.532557,-0.792511,0.297168,0.000000,0.000000,0.000000,-1,1.611208,0.579846,-1.359853,-0.269612,-0.171005,-0.057315
"2019-05-06 15:54:22.597 +0000",1557158062.597140,-2.125263,0.921356,-0.210989,-0.514139,-0.796423,0.318390,0.000000,0.000000,0.000000,-1,1.337219,0.072865,-1.217082,-0.230612,-0.088679,-0.217422
"2019-05-06 15:54:22.617 +0000",1557158062.617100,-2.164035,0.929994,-0.159061,-0.495689,-0.801616,0.334221,0.000000,0.000000,0.000000,-1,0.810073,0.368591,-1.179140,-0.039513,-0.040943,-0.240212
"2019-05-06 15:54:22.637 +0000",1557158062.637088,-2.176124,0.942051,-0.121534,-0.483629,-0.808766,0.334664,0.000000,0.000000,0.000000,-1,0.379591,1.482405,-1.117853,0.109667,0.075627,-0.165521
"2019-05-06 15:54:22.657 +0000",1557158062.657045,-2.160618,0.960738,-0.091192,-0.476115,-0.819615,0.318663,0.000000,0.000000,0.000000,-1,0.038290,2.388208,-1.462239,0.315059,0.159794,-0.148939
"2019-05-06 15:54:22.677 +0000",1557158062.677004,-2.135879,0.990861,-0.059429,-0.462785,-0.836498,0.293430,0.000000,0.000000,0.000000,-1,-0.211972,2.715637,-2.068894,0.421937,0.255459,-0.224155
"2019-05-06 15:54:22.697 +0000",1557158062.696993,-2.109748,1.034148,-0.026996,-0.438786,-0.859427,0.262396,0.000000,0.000000,0.000000,-1,-0.663004,2.564759,-2.482596,0.373783,0.243857,-0.339865
"2019-05-06 15:54:22.717 +0000",1557158062.716950,-2.075800,1.089955,-0.009771,-0.404790,-0.886606,0.223775,0.000000,0.000000,0.000000,-1,-1.351626,2.400941,-2.780048,0.279469,0.219599,-0.391804
"2019-05-06 15:54:22.737 +0000",1557158062.736909,-2.024069,1.154841,-0.011921,-0.363262,-0.914731,0.176944,0.000000,0.000000,0.000000,-1,-1.660955,2.606678,-2.904048,0.106471,0.193524,-0.261630
"2019-05-06 15:54:22.757 +0000",1557158062.756897,-1.955466,1.216898,-0.034073,-0.321232,-0.938029,0.130047,0.000000,0.000000,0.000000,-1,-1.623342,2.151216,-2.411220,-0.262341,0.000880,-0.096355
"2019-05-06 15:54:22.777 +0000",1557158062.776855,-1.887413,1.269503,-0.072000,-0.282005,-0.954953,0.092396,0.000000,0.000000,0.000000,-1,-1.250082,1.075940,-2.217010,-0.458413,-0.213031,0.086193
"2019-05-06 15:54:22.797 +0000",1557158062.796813,-1.842639,1.318603,-0.094798,-0.240365,-0.968368,0.067000,0.000000,0.000000,0.000000,-1,-0.766689,1.448190,-2.216047,-0.169898,-0.176133,0.108934
"2019-05-06 15:54:22.817 +0000",1557158062.816803,-1.796340,1.363628,-0.100239,-0.200480,-0.978617,0.046000,0.000000,0.000000,0.000000,-1,-0.535264,2.599999,-2.136779,-0.050390,-0.106023,0.118704
"2019-05-06 15:54:22.837 +0000",1557158062.836766,-1.724449,1.408758,-0.117929,-0.159429,-0.986901,0.024691,0.000000,0.000000,0.000000,-1,-0.660658,2.672984,-2.316776,0.041174,-0.100624,0.071576
"2019-05-06 15:54:22.857 +0000",1557158062.856725,-1.611170,1.458440,-0.188741,-0.112029,-0.993695,0.004525,0.000000,0.000000,0.000000,-1,-0.682110,1.501171,-2.477553,-0.115739,-0.188343,0.122275
"2019-05-06 15:54:22.877 +0000",1557158062.876683,-1.416898,1.507809,-0.362041,-0.062203,-0.998017,-0.009649,0.000000,0.000000,0.000000,-1,-0.581191,0.838297,-2.479422,-0.131324,-0.084045,0.081808
"2019-05-06 15:54:22.897 +0000",1557158062.896671,-0.530067,1.545286,-1.225730,-0.012899,-0.999675,-0.022011,0.000000,0.000000,0.000000,-1,-0.629366,1.524223,-2.477305,-0.022792,0.075831,-0.099037
"2019-05-06 15:54:22.917 +0000",1557158062.916630,0.787998,1.517347,-2.517920,0.037876,-0.998572,-0.037680,0.000000,0.000000,0.000000,-1,-0.946538,1.134886,-2.528392,-0.056462,0.021369,-0.269724
"2019-05-06 15:54:22.937 +0000",1557158062.936587,1.027467,1.470635,-2.743061,0.085595,-0.994988,-0.051696,0.000000,0.000000,0.000000,-1,-0.404682,0.373899,-2.166264,-0.295922,-0.210166,0.058624
"2019-05-06 15:54:22.957 +0000",1557158062.956576,1.179238,1.435506,-2.891735,0.124670,-0.990862,-0.051473,0.000000,0.000000,0.000000,-1,0.274141,0.194972,-1.888418,-0.234106,-0.173750,0.142873
"2019-05-06 15:54:22.977 +0000",1557158062.976534,1.293267,1.400164,-3.002872,0.163309,-0.985478,-0.046524,0.000000,0.000000,0.000000,-1,0.004714,0.177536,-1.994705,0.038961,-0.047100,-0.102784
"2019-05-06 15:54:22.996 +0000",1557158062.996491,1.306175,1.360535,-3.015757,0.201451,-0.977976,-0.054588,0.000000,0.000000,0.000000,-1,-0.856636,-0.185433,-1.830989,-0.123906,-0.036108,-0.226799
"2019-05-06 15:54:23.016 +0000",1557158063.016480,1.261965,1.323523,-2.975587,0.233181,-0.969583,-0.074394,0.000000,0.000000,0.000000,-1,-0.926565,-0.277950,-1.445646,-0.384854,-0.091314,0.155082
"2019-05-06 15:54:23.036 +0000",1557158063.036438,1.223716,1.293891,-2.939020,0.257079,-0.961906,-0.092991,0.000000,0.000000,0.000000,-1,-1.033691,0.027223,-1.133032,-0.125685,0.059333,0.260701
"2019-05-06 15:54:23.056 +0000",1557158063.056397,1.163970,1.261738,-2.872083,0.279336,-0.952621,-0.120356,0.000000,0.000000,0.000000,-1,-2.022512,0.524002,-1.166558,0.061499,0.189681,-0.008779
"2019-05-06 15:54:23.076 +0000",1557158063.076385,1.084789,1.221744,-2.770922,0.302404,-0.939697,-0.159751,0.000000,0.000000,0.000000,-1,-2.511533,1.074598,-0.979166,-0.184790,0.097931,0.132285
"2019-05-06 15:54:23.096 +0000",1557158063.096344,1.022549,1.183275,-2.680145,0.322510,-0.925849,-0.196956,0.000000,0.000000,0.000000,-1,-2.005751,1.465001,-0.827487,-0.368683,0.125617,0.132151
"2019-05-06 15:54:23.116 +0000",1557158063.116301,1.016960,1.152027,-2.634672,0.345849,-0.913590,-0.213872,0.000000,0.000000,0.000000,-1,-1.382268,1.629608,-0.858182,-0.073968,0.097672,-0.107524
"2019-05-06 15:54:23.136 +0000",1557158063.136290,1.014255,1.119243,-2.594018,0.370511,-0.899770,-0.230510,0.000000,0.000000,0.000000,-1,-1.591017,1.854433,-1.125402,0.143603,-0.371226,-0.483479
"2019-05-06 15:54:23.156 +0000",1557158063.156248,1.013671,1.087159,-2.564847,0.394684,-0.885309,-0.245870,0.000000,0.000000,0.000000,-1,-1.259066,1.224171,-0.813359,-0.250931,-0.387411,-0.128093
"2019-05-06 15:54:23.176 +0000",1557158063.176206,1.019117,1.065156,-2.537841,0.412510,-0.874864,-0.253866,0.000000,0.000000,0.000000,-1,-0.987018,1.310882,-0.530989,0.021587,-0.053572,0.037191
"2019-05-06 15:54:23.196 +0000",1557158063.196194,1.027477,1.046230,-2.522529,0.428716,-0.865541,-0.258923,0.000000,0.000000,0.000000,-1,-0.623665,0.956760,-0.668592,0.215816,-0.043516,0.019711
"2019-05-06 15:54:23.216 +0000",1557158063.216153,1.042573,1.029802,-2.519984,0.444797,-0.857197,-0.259554,0.000000,0.000000,0.000000,-1,-0.354356,0.808002,-0.627644,0.162533,-0.138118,0.035952
"2019-05-06 15:54:23.236 +0000",1557158063.236110,1.059593,1.015740,-2.519413,0.459619,-0.849871,-0.257818,0.000000,0.000000,0.000000,-1,-0.384251,1.009827,-0.614186,-0.076821,-0.027464,0.079412
"2019-05-06 15:54:23.256 +0000",1557158063.256099,1.079329,1.004403,-2.517998,0.473082,-0.843842,-0.253229,0.000000,0.000000,0.000000,-1,-0.278444,1.074301,-0.336251,-0.173491,0.178680,0.067712
"2019-05-06 15:54:23.276 +0000",1557158063.276057,1.098744,0.990191,-2.513919,0.488541,-0.836131,-0.249425,0.000000,0.000000,0.000000,-1,-0.616368,1.135864,-0.748610,0.152725,0.180735,-0.130656
"2019-05-06 15:54:23.296 +0000",1557158063.296015,1.120326,0.971160,-2.509550,0.508045,-0.825541,-0.245709,0.000000,0.000000,0.000000,-1,-0.377092,1.368310,-0.734458,-0.093265,-0.229666,0.160534
"2019-05-06 15:54:23.316 +0000",1557158063.315974,1.148619,0.954956,-2.511235,0.526927,-0.816288,-0.236688,0.000000,0.000000,0.000000,-1,-0.304319,1.302005,-0.896608,-0.162013,-0.210948,0.188119
"2019-05-06 15:54:23.336 +0000",1557158063.335962,1.178318,0.932343,-2.512872,0.550640,-0.803019,-0.227940,0.000000,0.000000,0.000000,-1,-0.462918,1.639959,-1.258971,0.028187,-0.043264,0.053151
"2019-05-06 15:54:23.356 +0000",1557158063.355920,1.236296,0.903883,-2.523492,0.584279,-0.785735,-0.203073,0.000000,0.000000,0.000000,-1,0.353538,3.643101,-1.578488,0.102458,0.225478,0.246621
"2019-05-06 15:54:23.376 +0000",1557158063.375878,1.367576,0.887874,-2.564453,0.618077,-0.775732,-0.127364,0.000000,0.000000,0.000000,-1,1.129016,5.104032,-0.148325,0.127391,0.054037,0.542510
"2019-05-06 15:54:23.396 +0000",1557158063.395867,1.345734,0.866192,-2.545091,0.631397,-0.761868,-0.144552,0.000000,0.000000,0.000000,-1,-2.580131,-4.021361,-0.496796,0.007123,0.096203,-0.911188
"2019-05-06 15:54:23.416 +0000",1557158063.415824,1.240899,0.828089,-2.469299,0.639817,-0.736640,-0.219079,0.000000,0.000000,0.000000,-1,-2.148669,-0.771879,-1.823769,0.391403,-0.578988,-0.041998
"2019-05-06 15:54:23.436 +0000",1557158063.435783,1.245035,0.802186,-2.460560,0.658578,-0.718877,-0.222465,0.000000,0.000000,0.000000,-1,0.049806,1.094699,-0.414350,-0.649026,-0.361140,0.151008
"2019-05-06 15:54:23.456 +0000",1557158063.455772,1.251913,0.802538,-2.463530,0.659852,-0.719122,-0.217850,0.000000,0.000000,0.000000,-1,0.044762,-0.405949,0.245518,-0.362504,-0.283304,0.009782
"2019-05-06 15:54:23.476 +0000",1557158063.475729,1.242892,0.807850,-2.459366,0.654234,-0.722803,-0.222560,0.000000,0.000000,0.000000,-1,-0.164100,-0.012206,0.216580,-0.051573,-0.207602,-0.055012
"2019-05-06 15:54:23.496 +0000",1557158063.495687,1.247115,0.804312,-2.455538,0.657589,-0.720354,-0.220608,0.000000,0.000000,0.000000,-1,-0.224975,0.693712,-0.443491,-0.092724,0.056932,-0.080082
"2019-05-06 15:54:23.516 +0000",1557158063.515676,1.261030,0.790802,-2.453438,0.669803,-0.710918,-0.214384,0.000000,0.000000,0.000000,-1,-0.336736,0.652700,-0.657933,-0.420825,0.140941,-0.125933
"2019-05-06 15:54:23.536 +0000",1557158063.535634,1.256686,0.781540,-2.450195,0.675099,-0.704373,-0.219316,0.000000,0.000000,0.000000,-1,-0.158155,-1.304269,-0.061778,-0.484532,0.049848,-0.142302
"2019-05-06 15:54:23.556 +0000",1557158063.555592,1.225610,0.798672,-2.444504,0.656505,-0.716430,-0.236068,0.000000,0.000000,0.000000,-1,0.051727,-1.151371,0.819297,-0.334850,0.000656,-0.031128
"2019-05-06 15:54:23.576 +0000",1557158063.575581,1.200281,0.812911,-2.439338,0.640742,-0.726291,-0.248900,0.000000,0.000000,0.000000,-1,0.095864,-0.707918,0.545631,0.213353,-0.308575,-0.208314
"2019-05-06 15:54:23.596 +0000",1557158063.595538,1.187563,0.821291,-2.432572,0.631857,-0.732026,-0.254744,0.000000,0.000000,0.000000,-1,-0.157218,-0.493322,0.599539,0.377405,-0.064163,-0.145036
"2019-05-06 15:54:23.615 +0000",1557158063.615497,1.156869,0.834222,-2.419100,0.615024,-0.740774,-0.270185,0.000000,0.000000,0.000000,-1,-0.242743,-1.542802,0.858404,0.321515,0.049429,-0.158023
"2019-05-06 15:54:23.635 +0000",1557158063.635486,1.113086,0.845450,-2.400385,0.595110,-0.748269,-0.293151,0.000000,0.000000,0.000000,-1,-0.406052,-1.116827,0.716043,0.561934,-0.109259,0.101302
"2019-05-06 15:54:23.655 +0000",1557158063.655443,1.084848,0.857627,-2.381650,0.578495,-0.756292,-0.305558,0.000000,0.000000,0.000000,-1,-0.053474,-0.271564,1.024491,0.340206,-0.411585,0.165620
"2019-05-06 15:54:23.675 +0000",1557158063.675402,1.077638,0.881807,-2.369198,0.560002,-0.771889,-0.300974,0.000000,0.000000,0.000000,-1,0.423437,0.534748,1.502079,0.118251,-0.540382,0.014551
"2019-05-06 15:54:23.695 +0000",1557158063.695359,1.074945,0.915880,-2.356849,0.535736,-0.793099,-0.289795,0.000000,0.000000,0.000000,-1,0.538227,-0.025039,1.762343,-0.003052,-0.417213,-0.164551
"2019-05-06 15:54:23.715 +0000",1557158063.715347,1.062737,0.956387,-2.349042,0.503662,-0.817114,-0.280446,0.000000,0.000000,0.000000,-1,0.980806,-0.276747,2.126647,-0.167831,-0.049067,0.039952
"2019-05-06 15:54:23.735 +0000",1557158063.735306,1.058988,1.002831,-2.349850,0.468989,-0.842997,-0.263448,0.000000,0.000000,0.000000,-1,1.347923,-0.185735,1.813548,0.012380,0.005137,0.017018
"2019-05-06 15:54:23.755 +0000",1557158063.755265,1.071104,1.045209,-2.381112,0.440375,-0.865030,-0.240402,0.000000,0.000000,0.000000,-1,1.615899,-1.852728,0.276998,0.116174,0.354226,-0.169281
"2019-05-06 15:54:23.775 +0000",1557158063.775253,1.069257,1.047681,-2.449421,0.438055,-0.866267,-0.240186,0.000000,0.000000,0.000000,-1,0.151641,-0.016777,-0.670108,-0.480489,0.711345,-0.776217
"2019-05-06 15:54:23.795 +0000",1557158063.795211,1.111237,1.045649,-2.451173,0.449325,-0.865250,-0.222371,0.000000,0.000000,0.000000,-1,-0.279252,0.702553,-0.571534,-0.159546,0.901581,0.449636
"2019-05-06 15:54:23.815 +0000",1557158063.815169,1.117298,1.030688,-2.443426,0.462250,-0.857653,-0.225290,0.000000,0.000000,0.000000,-1,-0.551126,0.168364,-0.622333,-0.233689,0.268404,-0.318716
"2019-05-06 15:54:23.835 +0000",1557158063.835134,1.124691,1.027522,-2.454953,0.466351,-0.856020,-0.223038,0.000000,0.000000,0.000000,-1,0.766836,-0.369668,-0.162675,0.316165,0.179568,0.340912
"2019-05-06 15:54:23.855 +0000",1557158063.855095,1.138814,1.038426,-2.488492,0.460950,-0.861606,-0.212508,0.000000,0.000000,0.000000,-1,1.032211,-0.920925,0.269788,0.722278,0.397327,-0.143861
"2019-05-06 15:54:23.875 +0000",1557158063.875051,1.142812,1.048986,-2.512748,0.453492,-0.866918,-0.206876,0.000000,0.000000,0.000000,-1,0.539069,-0.777595,0.240743,0.469420,0.325430,-0.297000
"2019-05-06 15:54:23.895 +0000",1557158063.895040,1.138201,1.054774,-2.522332,0.447971,-0.869789,-0.206858,0.000000,0.000000,0.000000,-1,0.136875,-0.460326,-0.075350,0.305051,0.189781,-0.146261
"2019-05-06 15:54:23.915 +0000",1557158063.914998,1.147631,1.036865,-2.532413,0.464031,-0.860813,-0.208988,0.000000,0.000000,0.000000,-1,-0.221499,0.268927,-0.828956,0.101490,0.865436,0.018375
"2019-05-06 15:54:23.935 +0000",1557158063.934956,1.158928,1.027737,-2.545783,0.473544,-0.856132,-0.206869,0.000000,0.000000,0.000000,-1,0.399396,-0.203309,-0.308380,-0.137301,-0.238717,0.120001
"2019-05-06 15:54:23.955 +0000",1557158063.954945,1.160071,1.032139,-2.564619,0.470320,-0.858398,-0.204821,0.000000,0.000000,0.000000,-1,0.714634,-1.395824,0.118531,-0.066557,0.055633,-0.124753
"2019-05-06 15:54:23.975 +0000",1557158063.974904,1.141813,1.040781,-2.588090,0.459739,-0.862799,-0.210280,0.000000,0.000000,0.000000,-1,0.755471,-2.332459,0.125348,0.182183,0.203726,-0.146073
"2019-05-06 15:54:23.995 +0000",1557158063.994863,1.114062,1.048824,-2.617604,0.447484,-0.866837,-0.219889,0.000000,0.000000,0.000000,-1,1.053858,-2.909809,-0.074811,0.134974,0.022080,-0.008413
"2019-05-06 15:54:24.015 +0000",1557158064.014849,1.093120,1.060441,-2.678508,0.433809,-0.872571,-0.224566,0.000000,0.000000,0.000000,-1,2.161250,-4.565169,-0.033695,0.169066,-0.478961,0.089678
"2019-05-06 15:54:24.035 +0000",1557158064.034836,1.073786,1.091684,-2.760683,0.405217,-0.887405,-0.219801,0.000000,0.000000,0.000000,-1,2.531587,-3.913541,1.028564,-0.202855,-1.006822,0.228941
"2019-05-06 15:54:24.055 +0000",1557158064.054794,1.057481,1.145578,-2.817377,0.359355,-0.910949,-0.202575,0.000000,0.000000,0.000000,-1,2.167166,-3.187530,2.387535,-0.408244,-0.723893,-0.106186
"2019-05-06 15:54:24.075 +0000",1557158064.074752,0.987247,1.211430,-2.805433,0.293482,-0.936120,-0.193773,0.000000,0.000000,0.000000,-1,0.906309,-2.586065,3.130578,-0.334971,-0.048332,-0.549178
"2019-05-06 15:54:24.095 +0000",1557158064.094740,0.887539,1.260749,-2.738737,0.236614,-0.952319,-0.192619,0.000000,0.000000,0.000000,-1,0.407685,-1.448580,1.927607,0.454365,0.352435,0.002388
"2019-05-06 15:54:24.115 +0000",1557158064.114700,0.836965,1.284110,-2.705756,0.209993,-0.959186,-0.189380,0.000000,0.000000,0.000000,-1,0.438080,-0.121984,0.633512,0.346052,0.369937,0.462604
"2019-05-06 15:54:24.135 +0000",1557158064.134657,0.836908,1.292020,-2.687684,0.204342,-0.961393,-0.184305,0.000000,0.000000,0.000000,-1,-0.566690,2.065488,0.276532,0.183567,0.412107,0.430704
"2019-05-06 15:54:24.155 +0000",1557158064.154615,0.869938,1.281983,-2.637986,0.217681,-0.958583,-0.183669,0.000000,0.000000,0.000000,-1,-0.590260,6.029736,0.024291,0.041139,-0.355306,0.769347
"2019-05-06 15:54:24.175 +0000",1557158064.174604,0.991786,1.283855,-2.648900,0.236889,-0.959114,-0.154867,0.000000,0.000000,0.000000,-1,0.852980,2.666351,-0.208849,-0.348553,-0.192863,0.058096
"2019-05-06 15:54:24.195 +0000",1557158064.194562,1.043313,1.286960,-2.698067,0.241977,-0.959988,-0.140962,0.000000,0.000000,0.000000,-1,0.601506,-0.671116,-0.078667,0.191998,0.177563,-0.808455
"2019-05-06 15:54:24.215 +0000",1557158064.214520,1.084920,1.293607,-2.762213,0.241983,-0.961828,-0.127792,0.000000,0.000000,0.000000,-1,1.329699,-1.468749,-0.254781,0.330405,0.654669,0.257751
"2019-05-06 15:54:24.235 +0000",1557158064.234509,1.161365,1.297610,-2.873957,0.247501,-0.962916,-0.107405,0.000000,0.000000,0.000000,-1,1.563951,-1.538943,-0.828116,0.235088,0.866267,0.157835
"2019-05-06 15:54:24.254 +0000",1557158064.254466,1.271804,1.290343,-3.029292,0.264511,-0.960930,-0.081531,0.000000,0.000000,0.000000,-1,2.220268,-2.448867,-1.327586,-0.088013,1.105003,-0.081677
"2019-05-06 15:54:24.274 +0000",1557158064.274425,1.413332,1.274716,3.047766,0.288164,-0.956487,-0.045754,0.000000,0.000000,0.000000,-1,3.164186,-3.134907,-1.369203,-0.021989,0.519735,0.618050
"2019-05-06 15:54:24.294 +0000",1557158064.294414,1.529283,1.249555,2.857300,0.315473,-0.948844,-0.013104,0.000000,0.000000,0.000000,-1,2.080420,-2.887059,-1.709384,0.289279,-1.080453,0.181866
"2019-05-06 15:54:24.314 +0000",1557158064.314372,1.578094,1.215560,2.781176,0.347803,-0.937564,0.002538,0.000000,0.000000,0.000000,-1,0.169411,-0.196009,-1.109036,-0.110132,-1.070126,-0.152654
"2019-05-06 15:54:24.334 +0000",1557158064.334330,1.580343,1.204710,2.783602,0.357947,-0.933735,0.003417,0.000000,0.000000,0.000000,-1,-0.004086,1.100439,-0.139131,-0.439796,-0.731288,-0.120071
"2019-05-06 15:54:24.354 +0000",1557158064.354320,1.603684,1.206584,2.792639,0.356020,-0.934405,0.011713,0.000000,0.000000,0.000000,-1,-0.379898,1.926767,0.168269,-0.099917,-0.359754,-0.312235
"2019-05-06 15:54:24.374 +0000",1557158064.374277,1.621884,1.207565,2.823834,0.354833,-0.934753,0.018143,0.000000,0.000000,0.000000,-1,-0.764092,2.704256,-0.469252,0.105860,-0.148605,-0.207581
"2019-05-06 15:54:24.394 +0000",1557158064.394236,1.643152,1.179996,2.887363,0.379931,-0.924605,0.027538,0.000000,0.000000,0.000000,-1,-1.493162,5.025573,-2.097491,-0.134326,0.251295,-0.254589
"2019-05-06 15:54:24.414 +0000",1557158064.414223,1.650769,1.136934,2.967439,0.419035,-0.907349,0.033583,0.000000,0.000000,0.000000,-1,-0.889678,2.847719,-2.183269,-0.509413,0.278275,-0.255751
"2019-05-06 15:54:24.434 +0000",1557158064.434181,1.664910,1.109931,2.981423,0.442755,-0.895668,0.041793,0.000000,0.000000,0.000000,-1,0.595411,0.130163,-0.596257,-0.488760,0.442909,-0.068252
"2019-05-06 15:54:24.454 +0000",1557158064.454140,1.704551,1.107024,2.939245,0.443330,-0.894371,0.059654,0.000000,0.000000,0.000000,-1,0.956897,0.354023,0.318992,0.180205,0.535408,-0.173744
"2019-05-06 15:54:24.474 +0000",1557158064.474128,1.738103,1.114132,2.914343,0.434799,-0.897528,0.073431,0.000000,0.000000,0.000000,-1,0.234559,0.698990,0.446173,0.438690,0.338812,-0.249838
"2019-05-06 15:54:24.494 +0000",1557158064.494087,1.767184,1.118788,2.899196,0.428377,-0.899572,0.085226,0.000000,0.000000,0.000000,-1,0.384625,0.770772,0.194777,0.196516,0.000951,-0.239874
"2019-05-06 15:54:24.514 +0000",1557158064.514044,1.797562,1.122161,2.877568,0.422632,-0.901040,0.097516,0.000000,0.000000,0.000000,-1,0.516553,0.436485,0.272420,0.125998,-0.221992,-0.300549
"2019-05-06 15:54:24.534 +0000",1557158064.534033,1.826887,1.121991,2.856798,0.419740,-0.900966,0.109905,0.000000,0.000000,0.000000,-1,0.321523,0.668207,-0.091828,0.370467,-0.073094,-0.299129
"2019-05-06 15:54:24.554 +0000",1557158064.553990,1.843347,1.117383,2.854235,0.421867,-0.898957,0.117914,0.000000,0.000000,0.000000,-1,0.043523,0.603659,-0.263877,0.491082,-0.026183,-0.361964
"2019-05-06 15:54:24.574 +0000",1557158064.573949,1.852350,1.113102,2.855650,0.424482,-0.897074,0.122776,0.000000,0.000000,0.000000,-1,0.053668,0.534166,-0.129806,0.518709,-0.015326,-0.288257
"2019-05-06 15:54:24.594 +0000",1557158064.593906,1.860907,1.111583,2.853777,0.424721,-0.896401,0.126793,0.000000,0.000000,0.000000,-1,0.142058,0.176781,-0.017006,0.655159,0.116860,-0.359032
"2019-05-06 15:54:24.614 +0000",1557158064.613895,1.860603,1.110752,2.852230,0.425473,-0.896033,0.126877,0.000000,0.000000,0.000000,-1,-0.071763,-0.437953,0.042874,0.760974,0.245185,-0.446289
"2019-05-06 15:54:24.634 +0000",1557158064.633854,1.834537,1.114012,2.866799,0.425813,-0.897476,0.114983,0.000000,0.000000,0.000000,-1,-0.557339,-0.881798,0.082605,0.782775,0.234222,-0.241203
"2019-05-06 15:54:24.654 +0000",1557158064.653813,1.776178,1.117490,2.911895,0.428736,-0.899004,0.089314,0.000000,0.000000,0.000000,-1,-1.572389,-0.579944,-0.332852,0.556173,0.230639,-0.121800
"2019-05-06 15:54:24.674 +0000",1557158064.673801,1.686526,1.108360,3.001146,0.443146,-0.894968,0.051515,0.000000,0.000000,0.000000,-1,-1.936024,-0.246152,-0.900124,0.147751,0.023752,-0.040453
"2019-05-06 15:54:24.694 +0000",1557158064.693759,1.601281,1.089898,3.090965,0.462361,-0.886580,0.014099,0.000000,0.000000,0.000000,-1,-2.028100,-0.744866,-1.315820,-0.238560,-0.060411,-0.093033
"2019-05-06 15:54:24.714 +0000",1557158064.713717,1.491361,1.056774,-3.107256,0.490133,-0.870774,-0.039016,0.000000,0.000000,0.000000,-1,-1.926462,-2.430045,-1.443422,-0.138494,0.083192,-0.281159
"2019-05-06 15:54:24.734 +0000",1557158064.733706,1.379088,1.033289,-3.039963,0.502616,-0.858988,-0.097554,0.000000,0.000000,0.000000,-1,-1.734391,-3.126435,-0.469095,-0.105445,-0.365698,0.051640
"2019-05-06 15:54:24.754 +0000",1557158064.753664,1.254767,1.016651,-2.979520,0.500157,-0.850351,-0.163546,0.000000,0.000000,0.000000,-1,-1.572359,-3.928632,-0.261718,-0.001911,-0.586234,0.038118
"2019-05-06 15:54:24.774 +0000",1557158064.773622,1.136441,0.999539,-2.924440,0.490482,-0.841222,-0.227536,0.000000,0.000000,0.000000,-1,-1.985767,-2.829071,-0.225916,0.336361,-0.980006,-0.491443
"2019-05-06 15:54:24.794 +0000",1557158064.793611,1.036871,0.967681,-2.843657,0.488264,-0.823573,-0.288663,0.000000,0.000000,0.000000,-1,-3.259748,-0.510539,-0.207096,0.426699,-0.808400,-0.722476
"2019-05-06 15:54:24.814 +0000",1557158064.813570,0.961703,0.926034,-2.742717,0.492928,-0.799242,-0.343852,0.000000,0.000000,0.000000,-1,-3.705330,0.865146,-0.066221,0.216270,-0.549345,-0.380330
"2019-05-06 15:54:24.834 +0000",1557158064.833537,0.914440,0.884524,-2.657748,0.501997,-0.773613,-0.386680,0.000000,0.000000,0.000000,-1,-2.828268,1.100130,-0.244250,0.297793,-0.588401,-0.119530
"2019-05-06 15:54:24.854 +0000",1557158064.853525,0.900669,0.851258,-2.616089,0.516515,-0.752110,-0.409319,0.000000,0.000000,0.000000,-1,-1.329064,0.537274,-0.687431,0.448603,-0.320613,-0.144545
"2019-05-06 15:54:24.873 +0000",1557158064.873482,0.900937,0.829625,-2.609801,0.529259,-0.737678,-0.419186,0.000000,0.000000,0.000000,-1,-0.361632,-0.011948,-0.676093,0.276360,-0.102471,-0.323460
"2019-05-06 15:54:24.893 +0000",1557158064.893440,0.901083,0.819740,-2.623360,0.535010,-0.730969,-0.423614,0.000000,0.000000,0.000000,-1,0.474368,-0.938868,-0.695510,0.181710,-0.087162,-0.330460
"2019-05-06 15:54:24.913 +0000",1557158064.913429,0.894350,0.814828,-2.653909,0.534939,-0.727608,-0.429449,0.000000,0.000000,0.000000,-1,1.184068,-1.937845,-0.644913,0.127338,0.285088,-0.117746
"2019-05-06 15:54:24.933 +0000",1557158064.933387,0.887644,0.826455,-2.701900,0.525450,-0.735534,-0.427658,0.000000,0.000000,0.000000,-1,2.004459,-1.930529,-0.476099,0.050431,0.793594,0.160385
"2019-05-06 15:54:24.953 +0000",1557158064.953345,0.895426,0.840748,-2.754068,0.520503,-0.745143,-0.416940,0.000000,0.000000,0.000000,-1,1.818043,-1.018332,-0.298818,-0.091075,0.991953,0.164972
"2019-05-06 15:54:24.973 +0000",1557158064.973303,0.912386,0.854483,-2.792388,0.519355,-0.754232,-0.401752,0.000000,0.000000,0.000000,-1,0.921002,-0.357391,-0.214135,-0.306723,0.911992,0.093494
"2019-05-06 15:54:24.993 +0000",1557158064.993292,0.921365,0.854291,-2.807664,0.523057,-0.754105,-0.397161,0.000000,0.000000,0.000000,-1,0.315161,0.205567,-0.055561,-0.433518,0.598191,0.365224
"2019-05-06 15:54:25.013 +0000",1557158065.013250,0.929975,0.858429,-2.811972,0.523951,-0.756817,-0.390774,0.000000,0.000000,0.000000,-1,0.129402,0.227019,0.194706,-0.527201,0.429073,0.543774
"2019-05-06 15:54:25.033 +0000",1557158065.033208,0.927101,0.856108,-2.803383,0.524229,-0.755298,-0.393331,0.000000,0.000000,0.000000,-1,-0.590280,0.242591,0.054706,-0.613081,0.390933,0.375814
"2019-05-06 15:54:25.053 +0000",1557158065.053196,0.931657,0.840834,-2.792154,0.535214,-0.745199,-0.397774,0.000000,0.000000,0.000000,-1,-0.608797,1.196644,-0.801876,-0.567074,0.463019,0.274056
"2019-05-06 15:54:25.073 +0000",1557158065.073155,0.960822,0.821342,-2.797258,0.558387,-0.732060,-0.390246,0.000000,0.000000,0.000000,-1,-0.305081,1.099370,-0.577787,-0.375037,0.180287,0.685442
"2019-05-06 15:54:25.093 +0000",1557158065.093112,0.939062,0.807541,-2.770932,0.557864,-0.722590,-0.408231,0.000000,0.000000,0.000000,-1,-2.101429,-1.524142,0.730239,-0.281878,-0.423056,0.130933
"2019-05-06 15:54:25.113 +0000",1557158065.113101,0.901660,0.818956,-2.720019,0.535704,-0.730433,-0.423661,0.000000,0.000000,0.000000,-1,0.716332,2.048454,1.787712,-0.605894,-1.464803,0.589600
"2019-05-06 15:54:25.133 +0000",1557158065.133059,0.928913,0.850613,-2.704478,0.528257,-0.751685,-0.394859,0.000000,0.000000,0.000000,-1,0.208088,1.398610,1.149252,-0.036772,-1.246118,-0.208366
"2019-05-06 15:54:25.153 +0000",1557158065.153017,0.947084,0.868044,-2.708249,0.524629,-0.763066,-0.377485,0.000000,0.000000,0.000000,-1,1.398699,0.554005,0.273942,0.131972,0.505971,0.247694
"2019-05-06 15:54:25.173 +0000",1557158065.173006,0.988782,0.893045,-2.746073,0.523805,-0.778985,-0.344691,0.000000,0.000000,0.000000,-1,1.685190,0.567725,0.609083,0.037505,0.689446,-0.201696
"2019-05-06 15:54:25.193 +0000",1557158065.192964,1.028339,0.927741,-2.771855,0.513560,-0.800267,-0.309561,0.000000,0.000000,0.000000,-1,1.687688,1.507046,1.517923,0.002904,0.446294,-0.450754
"2019-05-06 15:54:25.213 +0000",1557158065.212922,1.088207,0.973624,-2.805977,0.498089,-0.826929,-0.260952,0.000000,0.000000,0.000000,-1,2.280746,1.584501,1.140559,0.182789,0.188959,-0.190159
"2019-05-06 15:54:25.233 +0000",1557158065.232911,1.203562,0.991283,-2.899546,0.511104,-0.836729,-0.196614,0.000000,0.000000,0.000000,-1,3.458634,2.475279,-1.639903,1.311558,-0.912050,0.092412
"2019-05-06 15:54:25.253 +0000",1557158065.252869,1.351165,0.981957,-3.036938,0.542055,-0.831586,-0.121004,0.000000,0.000000,0.000000,-1,3.019961,0.810700,-0.942356,1.282881,-1.159168,-1.224546
"2019-05-06 15:54:25.273 +0000",1557158065.272826,1.459365,0.977400,-3.119811,0.555712,-0.829046,-0.062181,0.000000,0.000000,0.000000,-1,2.158770,2.751177,-0.367710,0.963972,-0.332178,-0.711973
"2019-05-06 15:54:25.293 +0000",1557158065.292816,1.576436,0.976273,3.063218,0.560105,-0.828415,0.003159,0.000000,0.000000,0.000000,-1,2.964429,0.499377,-0.017672,0.719451,-0.116577,-0.162674
"2019-05-06 15:54:25.313 +0000",1557158065.312773,1.631077,0.976484,2.991274,0.558922,-0.828534,0.033733,0.000000,0.000000,0.000000,-1,1.036252,-0.898728,0.233039,0.135384,0.203976,-0.298229
"2019-05-06 15:54:25.333 +0000",1557158065.332731,1.631554,0.983726,2.962538,0.552902,-0.832567,0.033634,0.000000,0.000000,0.000000,-1,0.909410,-1.201666,0.665008,-0.357071,0.345720,-0.034718
"2019-05-06 15:54:25.353 +0000",1557158065.352689,1.642595,0.998798,2.916011,0.539919,-0.840821,0.038832,0.000000,0.000000,0.000000,-1,1.409206,-1.639223,1.041187,-0.312197,0.291230,0.451830
"2019-05-06 15:54:25.373 +0000",1557158065.372678,1.647042,1.019104,2.867670,0.522606,-0.851639,0.039924,0.000000,0.000000,0.000000,-1,0.834947,-1.873658,1.020009,-0.500863,0.612534,0.394204
"2019-05-06 15:54:25.393 +0000",1557158065.392636,1.607155,1.025848,2.874794,0.518031,-0.855154,0.018843,0.000000,0.000000,0.000000,-1,-1.450244,-1.396288,-0.459093,-0.573818,1.036062,0.029420
"2019-05-06 15:54:25.413 +0000",1557158065.412594,1.500662,1.004379,2.970665,0.535294,-0.843829,-0.037604,0.000000,0.000000,0.000000,-1,-3.295800,-1.378239,-1.233959,-0.491257,0.592913,-0.169885
"2019-05-06 15:54:25.433 +0000",1557158065.432582,1.367918,0.971355,3.087168,0.552611,-0.825651,-0.113677,0.000000,0.000000,0.000000,-1,-3.212034,-1.951080,-1.140394,-0.612593,0.721906,0.072936
"2019-05-06 15:54:25.453 +0000",1557158065.452542,1.262325,0.932482,-3.114574,0.567719,-0.803101,-0.180899,0.000000,0.000000,0.000000,-1,-2.285357,-2.177838,-1.511211,-0.543503,0.785721,0.465338
"2019-05-06 15:54:25.472 +0000",1557158065.472498,1.177982,0.882353,-3.079528,0.586946,-0.772236,-0.243200,0.000000,0.000000,0.000000,-1,-1.497285,-3.337551,-2.338515,-0.215806,0.435139,0.517584
"2019-05-06 15:54:25.492 +0000",1557158065.492487,1.109451,0.827085,-3.057195,0.606244,-0.735961,-0.301379,0.000000,0.000000,0.000000,-1,-2.446482,-1.252290,-1.715023,-0.092465,-0.434785,0.486346
"2019-05-06 15:54:25.512 +0000",1557158065.512445,1.062876,0.783619,-2.982544,0.618938,-0.705848,-0.344520,0.000000,0.000000,0.000000,-1,-3.899282,1.356350,0.099570,-0.068065,-2.186303,-0.057060
"2019-05-06 15:54:25.532 +0000",1557158065.532403,1.033655,0.747379,-2.899035,0.630181,-0.679719,-0.375305,0.000000,0.000000,0.000000,-1,-3.310694,1.494883,-0.236869,0.302192,-2.094878,-0.843552
"2019-05-06 15:54:25.552 +0000",1557158065.552391,1.009319,0.706559,-2.819739,0.643825,-0.649220,-0.404972,0.000000,0.000000,0.000000,-1,-3.667187,1.228221,-0.091003,0.276738,-0.736644,-0.469250
"2019-05-06 15:54:25.572 +0000",1557158065.572351,0.984770,0.674608,-2.747492,0.650646,-0.624591,-0.431909,0.000000,0.000000,0.000000,-1,-2.599451,0.616907,0.390301,0.527637,-0.009228,-0.395392
"2019-05-06 15:54:25.592 +0000",1557158065.592307,0.941838,0.661812,-2.714522,0.637920,-0.614547,-0.464100,0.000000,0.000000,0.000000,-1,-0.296669,-2.692823,-0.126915,0.664982,0.035980,-0.268032
"2019-05-06 15:54:25.612 +0000",1557158065.612296,0.902220,0.653939,-2.724952,0.622816,-0.608318,-0.491986,0.000000,0.000000,0.000000,-1,0.362344,-1.445803,-0.743950,0.634188,-0.173573,0.351087
"2019-05-06 15:54:25.632 +0000",1557158065.632255,0.902796,0.656956,-2.751784,0.621655,-0.610710,-0.490488,0.000000,0.000000,0.000000,-1,1.171981,0.688355,-0.234860,0.295719,0.146446,0.175135
"2019-05-06 15:54:25.652 +0000",1557158065.652211,0.994816,0.673736,-2.760454,0.655409,-0.623910,-0.425648,0.000000,0.000000,0.000000,-1,2.311776,4.021199,0.924504,-0.387159,-1.475150,2.211887
"2019-05-06 15:54:25.672 +0000",1557158065.672200,1.126132,0.678041,-2.727862,0.703068,-0.627268,-0.335006,0.000000,0.000000,0.000000,-1,-2.838706,6.868195,1.017984,0.280590,2.142787,-2.294038
"2019-05-06 15:54:25.692 +0000",1557158065.692159,1.168759,0.672798,-2.666329,0.719722,-0.623177,-0.306024,0.000000,0.000000,0.000000,-1,-1.513181,2.205855,0.331449,-0.335628,0.654442,-0.293876
"2019-05-06 15:54:25.712 +0000",1557158065.712117,1.183564,0.667799,-2.645351,0.727049,-0.619260,-0.296508,0.000000,0.000000,0.000000,-1,-0.233283,0.546331,-0.155055,-0.367964,0.806744,0.160643
"2019-05-06 15:54:25.732 +0000",1557158065.732075,1.185252,0.668635,-2.658325,0.727069,-0.619915,-0.295085,0.000000,0.000000,0.000000,-1,1.046956,-1.061945,-0.024327,-0.931720,0.284756,0.612208
"2019-05-06 15:54:25.752 +0000",1557158065.752065,1.168434,0.677416,-2.683053,0.716968,-0.626781,-0.305127,0.000000,0.000000,0.000000,-1,0.854768,-1.932844,0.009746,-1.037631,0.188015,0.282803
"2019-05-06 15:54:25.772 +0000",1557158065.772022,1.153362,0.683187,-2.697686,0.708969,-0.631268,-0.314427,0.000000,0.000000,0.000000,-1,0.449246,-0.206961,0.063154,-1.028579,0.037884,0.568776
"2019-05-06 15:54:25.792 +0000",1557158065.791981,1.123683,0.675073,-2.680593,0.703922,-0.624954,-0.337530,0.000000,0.000000,0.000000,-1,-2.182365,-2.297186,-0.268572,-0.629840,-0.411041,-0.052057
"2019-05-06 15:54:25.812 +0000",1557158065.811969,1.082624,0.664828,-2.655327,0.695092,-0.616924,-0.369123,0.000000,0.000000,0.000000,-1,0.106966,0.704148,0.569464,-0.438988,-1.200459,0.250578
"2019-05-06 15:54:25.832 +0000",1557158065.831910,1.106736,0.686465,-2.649156,0.691689,-0.633806,-0.346202,0.000000,0.000000,0.000000,-1,0.472036,1.170372,1.193645,0.549888,-0.686857,0.378673
"2019-05-06 15:54:25.852 +0000",1557158065.851867,1.121081,0.711442,-2.665028,0.682112,-0.652926,-0.329258,0.000000,0.000000,0.000000,-1,1.870475,-0.597486,0.611011,0.383440,0.047717,0.320347
"2019-05-06 15:54:25.872 +0000",1557158065.871856,1.139843,0.752068,-2.721840,0.663507,-0.683150,-0.305064,0.000000,0.000000,0.000000,-1,3.512142,-1.456006,1.217108,-0.026635,-0.023286,0.241313
"2019-05-06 15:54:25.892 +0000",1557158065.891814,1.156783,0.808571,-2.800088,0.632192,-0.723301,-0.277792,0.000000,0.000000,0.000000,-1,3.721838,-1.968134,1.662785,0.174159,0.012654,-0.257670
"2019-05-06 15:54:25.912 +0000",1557158065.911772,1.194302,0.862976,-2.879688,0.604640,-0.759781,-0.239047,0.000000,0.000000,0.000000,-1,3.294582,0.248404,1.029043,0.581578,-0.326752,-0.340848
"2019-05-06 15:54:25.932 +0000",1557158065.931760,1.293667,0.892871,-2.972991,0.603249,-0.778875,-0.171593,0.000000,0.000000,0.000000,-1,3.407302,1.794461,0.010264,0.697242,-0.380335,-0.127601
"2019-05-06 15:54:25.952 +0000",1557158065.951719,1.400179,0.905534,-3.077865,0.608303,-0.786755,-0.104806,0.000000,0.000000,0.000000,-1,3.080662,0.996902,-0.050092,0.492268,-0.663929,-0.670981
"2019-05-06 15:54:25.972 +0000",1557158065.971677,1.508988,0.915916,3.112026,0.607901,-0.793121,-0.037621,0.000000,0.000000,0.000000,-1,2.934312,2.414119,0.415569,0.782754,-0.670640,-0.641746
"2019-05-06 15:54:25.992 +0000",1557158065.991666,1.627424,0.929204,3.014740,0.597513,-0.801144,0.033872,0.000000,0.000000,0.000000,-1,2.538254,1.649433,0.737030,0.617026,-0.593021,-0.512983
"2019-05-06 15:54:26.012 +0000",1557158066.011623,1.681149,0.937986,2.980072,0.587816,-0.806369,0.065132,0.000000,0.000000,0.000000,-1,-0.640957,0.729155,0.282533,0.027449,0.098773,-0.398216
"2019-05-06 15:54:26.032 +0000",1557158066.031581,1.664600,0.948614,3.004049,0.580248,-0.812608,0.054590,0.000000,0.000000,0.000000,-1,-0.228921,-0.219455,0.684614,-0.187868,0.458803,-0.127969
"2019-05-06 15:54:26.052 +0000",1557158066.051570,1.667029,0.966080,2.979978,0.565898,-0.822664,0.054627,0.000000,0.000000,0.000000,-1,1.274717,-1.454261,1.052096,-0.193416,0.597368,0.375580
"2019-05-06 15:54:26.072 +0000",1557158066.071528,1.682858,0.981712,2.920310,0.552115,-0.831450,0.062131,0.000000,0.000000,0.000000,-1,1.770822,-1.627945,0.947852,-0.377249,1.018171,0.625613
"2019-05-06 15:54:26.091 +0000",1557158066.091488,1.686542,0.989155,2.883107,0.545720,-0.835562,0.063448,0.000000,0.000000,0.000000,-1,-0.342425,-1.190227,-0.282433,-0.541112,0.882879,0.096113
"2019-05-06 15:54:26.111 +0000",1557158066.111445,1.617974,0.974255,2.941974,0.561160,-0.827284,0.026494,0.000000,0.000000,0.000000,-1,-2.324176,-0.926199,-1.244414,-0.757617,0.532743,-0.321233
"2019-05-06 15:54:26.131 +0000",1557158066.131433,1.523261,0.944527,3.028797,0.585464,-0.810220,-0.027851,0.000000,0.000000,0.000000,-1,-2.478525,-1.154265,-1.618291,-0.753036,0.594216,-0.086803
"2019-05-06 15:54:26.151 +0000",1557158066.151391,1.447617,0.912521,3.097498,0.607118,-0.791048,-0.075165,0.000000,0.000000,0.000000,-1,-1.767283,-1.412955,-1.096907,-0.740618,0.364352,0.404160
"2019-05-06 15:54:26.171 +0000",1557158066.171350,1.358062,0.889224,3.135216,0.615813,-0.776583,-0.133017,0.000000,0.000000,0.000000,-1,-1.129354,-4.229724,-0.976922,-0.222670,-0.025129,0.233542
"2019-05-06 15:54:26.191 +0000",1557158066.191338,1.254563,0.868294,-3.098529,0.614090,-0.763228,-0.200939,0.000000,0.000000,0.000000,-1,-2.807219,-1.880932,0.083654,0.056930,-0.592180,0.632290
"2019-05-06 15:54:26.211 +0000",1557158066.211297,1.134967,0.855500,-2.966066,0.594533,-0.754899,-0.276872,0.000000,0.000000,0.000000,-1,-5.661738,-0.351825,1.971363,0.586207,-1.234023,0.390107
"2019-05-06 15:54:26.231 +0000",1557158066.231254,1.087072,0.818879,-2.827430,0.604675,-0.730380,-0.317668,0.000000,0.000000,0.000000,-1,-3.304317,6.291699,-1.757560,0.187058,-1.652050,-0.049672
"2019-05-06 15:54:26.251 +0000",1557158066.251243,1.129688,0.766948,-2.755702,0.651110,-0.693941,-0.307412,0.000000,0.000000,0.000000,-1,-3.900141,2.584116,-0.307246,-0.364046,-1.194624,-1.263496
"2019-05-06 15:54:26.271 +0000",1557158066.271201,1.083586,0.744551,-2.673963,0.649823,-0.677642,-0.344283,0.000000,0.000000,0.000000,-1,-2.253749,-0.721748,0.510930,0.312747,-0.642686,-0.923295
"2019-05-06 15:54:26.291 +0000",1557158066.291161,1.034782,0.724447,-2.627232,0.643838,-0.662722,-0.382456,0.000000,0.000000,0.000000,-1,-1.870050,-0.932966,-0.469105,0.967200,-0.147322,-0.010107
"2019-05-06 15:54:26.311 +0000",1557158066.311118,1.007358,0.700227,-2.610439,0.646492,-0.644392,-0.408421,0.000000,0.000000,0.000000,-1,-0.440564,-0.599321,-0.781659,0.978722,0.019651,0.203633
"2019-05-06 15:54:26.331 +0000",1557158066.331075,1.005464,0.689511,-2.619168,0.651511,-0.636160,-0.413321,0.000000,0.000000,0.000000,-1,0.270361,-0.293024,-0.453856,0.548043,0.378408,0.004187
"2019-05-06 15:54:26.351 +0000",1557158066.351062,1.008701,0.689048,-2.629696,0.653095,-0.635803,-0.411366,0.000000,0.000000,0.000000,-1,0.303251,0.335478,0.039903,0.142681,0.569259,0.021474
"2019-05-06 15:54:26.371 +0000",1557158066.371020,1.025063,0.697505,-2.632867,0.655118,-0.642307,-0.397821,0.000000,0.000000,0.000000,-1,0.384165,0.908275,0.484086,-0.366666,0.749332,0.139993
"2019-05-06 15:54:26.391 +0000",1557158066.390978,1.042659,0.710641,-2.639478,0.654672,-0.652320,-0.381947,0.000000,0.000000,0.000000,-1,0.824593,0.338617,0.283391,-0.540566,0.802345,0.359639
"2019-05-06 15:54:26.411 +0000",1557158066.410967,1.064473,0.726116,-2.662501,0.653940,-0.663970,-0.362637,0.000000,0.000000,0.000000,-1,1.396232,0.743105,0.373216,-0.547190,0.528884,0.734127
"2019-05-06 15:54:26.431 +0000",1557158066.430924,1.116345,0.750663,-2.687736,0.657018,-0.682124,-0.320990,0.000000,0.000000,0.000000,-1,1.229053,2.504949,0.884309,-0.750401,0.436320,0.941779
"2019-05-06 15:54:26.451 +0000",1557158066.450884,1.161104,0.771274,-2.694559,0.657685,-0.697050,-0.285610,0.000000,0.000000,0.000000,-1,-0.074427,1.026740,0.606247,-0.916413,0.567228,0.285228
"2019-05-06 15:54:26.471 +0000",1557158066.470841,1.163945,0.773320,-2.682434,0.657182,-0.698515,-0.283175,0.000000,0.000000,0.000000,-1,0.015527,1.048050,-0.438353,-0.997941,0.341627,0.045474
"2019-05-06 15:54:26.491 +0000",1557158066.490830,1.156489,0.747263,-2.678976,0.671490,-0.679634,-0.295295,0.000000,0.000000,0.000000,-1,-2.269012,-3.005428,-1.681259,-0.827160,-0.231377,-0.821266
"2019-05-06 15:54:26.511 +0000",1557158066.510788,1.082270,0.699592,-2.647635,0.675607,-0.643905,-0.359083,0.000000,0.000000,0.000000,-1,-0.932911,-1.163558,-1.286719,-0.474893,-0.885849,-0.091448
"2019-05-06 15:54:26.531 +0000",1557158066.530746,1.095590,0.693121,-2.651595,0.684021,-0.638941,-0.351951,0.000000,0.000000,0.000000,-1,0.638471,1.717915,0.773203,-0.400894,-0.486349,0.904075
"2019-05-06 15:54:26.551 +0000",1557158066.550735,1.131194,0.731084,-2.666482,0.673670,-0.667677,-0.316823,0.000000,0.000000,0.000000,-1,2.070488,0.257564,1.781882,-0.098978,-0.122439,0.744741
"2019-05-06 15:54:26.571 +0000",1557158066.570694,1.153416,0.783447,-2.716675,0.647664,-0.705726,-0.287197,0.000000,0.000000,0.000000,-1,3.259809,-1.338563,1.283630,0.745616,-0.134454,-0.399907
"2019-05-06 15:54:26.591 +0000",1557158066.590652,1.169537,0.832779,-2.790288,0.619380,-0.739804,-0.262790,0.000000,0.000000,0.000000,-1,3.324792,-1.966933,1.386240,0.971593,-0.547229,-0.687680
"2019-05-06 15:54:26.611 +0000",1557158066.610641,1.220112,0.875037,-2.879888,0.601958,-0.767567,-0.220198,0.000000,0.000000,0.000000,-1,3.644500,0.267306,0.172239,1.316759,-0.414577,-0.050431
"2019-05-06 15:54:26.631 +0000",1557158066.630598,1.323854,0.899203,-2.986912,0.603358,-0.782832,-0.152099,0.000000,0.000000,0.000000,-1,3.764399,1.754558,0.326039,0.824239,-0.136999,-0.471146
"2019-05-06 15:54:26.651 +0000",1557158066.650556,1.464192,0.924887,-3.118814,0.598508,-0.798552,-0.064047,0.000000,0.000000,0.000000,-1,4.395158,1.788427,0.685428,0.371493,-0.765000,-0.729822
"2019-05-06 15:54:26.671 +0000",1557158066.670545,1.601759,0.939081,3.039599,0.590247,-0.807016,0.018281,0.000000,0.000000,0.000000,-1,2.491039,2.348532,0.202408,0.105966,-0.818228,-0.750612
"2019-05-06 15:54:26.691 +0000",1557158066.690502,1.661744,0.950752,3.017011,0.578670,-0.813853,0.052775,0.000000,0.000000,0.000000,-1,-0.096143,0.644234,0.549141,0.730412,-0.228033,-0.673166
"2019-05-06 15:54:26.710 +0000",1557158066.710461,1.684098,0.956295,3.008633,0.572854,-0.817061,0.065184,0.000000,0.000000,0.000000,-1,0.485109,0.677013,0.288404,-0.202051,0.172133,-0.174239
"2019-05-06 15:54:26.730 +0000",1557158066.730450,1.703878,0.966260,2.977019,0.563355,-0.822766,0.075418,0.000000,0.000000,0.000000,-1,1.244172,-1.196757,0.993756,-0.704697,0.479779,0.307273
"2019-05-06 15:54:26.750 +0000",1557158066.750408,1.715563,0.986391,2.920638,0.545932,-0.834040,0.079590,0.000000,0.000000,0.000000,-1,1.658014,-2.274036,1.116023,-0.696460,0.775447,0.451279
"2019-05-06 15:54:26.770 +0000",1557158066.770366,1.725281,0.996651,2.848036,0.536650,-0.839657,0.083570,0.000000,0.000000,0.000000,-1,2.126440,-2.522533,0.541366,-0.310759,0.674068,0.475604
"2019-05-06 15:54:26.790 +0000",1557158066.790354,1.725261,0.995006,2.799056,0.538015,-0.838762,0.083771,0.000000,0.000000,0.000000,-1,-0.173218,-1.451873,-0.369851,-0.409628,0.507418,0.000594
"2019-05-06 15:54:26.810 +0000",1557158066.810311,1.650585,0.989057,2.871070,0.547730,-0.835508,0.043796,0.000000,0.000000,0.000000,-1,-3.173227,-0.095448,-0.385136,-0.649139,0.389051,-0.367755
"2019-05-06 15:54:26.830 +0000",1557158066.830277,1.547741,0.990877,2.995545,0.547811,-0.836507,-0.012632,0.000000,0.000000,0.000000,-1,-3.195420,0.589097,0.238740,-0.508138,0.533116,0.082487
"2019-05-06 15:54:26.850 +0000",1557158066.850234,1.493059,0.991244,3.081514,0.545995,-0.836708,-0.042530,0.000000,0.000000,0.000000,-1,-1.594290,1.167754,-0.013637,-0.403005,0.448509,0.682834
"2019-05-06 15:54:26.870 +0000",1557158066.870223,1.463116,0.974573,-3.138490,0.558269,-0.827462,-0.060348,0.000000,0.000000,0.000000,-1,-2.477423,0.500308,-1.722254,-0.253276,-0.004172,0.573135
"2019-05-06 15:54:26.890 +0000",1557158066.890182,1.367479,0.920521,-3.029405,0.592935,-0.795917,-0.122243,0.000000,0.000000,0.000000,-1,-4.670751,-0.683914,-1.925978,-0.254770,-0.810742,0.173345
"2019-05-06 15:54:26.910 +0000",1557158066.910139,1.213329,0.879685,-2.870888,0.597102,-0.770538,-0.223026,0.000000,0.000000,0.000000,-1,-5.448119,-3.191171,0.611345,-0.257365,-2.488617,0.189533
"2019-05-06 15:54:26.930 +0000",1557158066.930128,1.117690,0.848996,-2.772002,0.594063,-0.750617,-0.289245,0.000000,0.000000,0.000000,-1,-2.087313,1.618059,-1.104691,1.005470,-1.087304,-0.372880
"2019-05-06 15:54:26.950 +0000",1557158066.950085,1.100369,0.808397,-2.707027,0.615636,-0.723181,-0.313053,0.000000,0.000000,0.000000,-1,-3.675013,0.833484,-0.371880,0.132976,-1.328943,-1.095730
"2019-05-06 15:54:26.970 +0000",1557158066.970045,1.037661,0.768108,-2.607342,0.619411,-0.694775,-0.365537,0.000000,0.000000,0.000000,-1,-4.265716,0.345946,0.012894,0.211857,-0.997348,-0.447604
"2019-05-06 15:54:26.990 +0000",1557158066.990034,0.989252,0.725500,-2.517289,0.625181,-0.663509,-0.410980,0.000000,0.000000,0.000000,-1,-3.356673,0.812854,-0.169316,0.541933,-0.344471,0.211471
"2019-05-06 15:54:27.010 +0000",1557158067.009992,0.964252,0.693750,-2.472122,0.631708,-0.639425,-0.438271,0.000000,0.000000,0.000000,-1,-1.377726,-0.196091,-0.534734,0.743612,0.107030,0.421669
"2019-05-06 15:54:27.030 +0000",1557158067.029949,0.961924,0.673252,-2.457569,0.641304,-0.623532,-0.447144,0.000000,0.000000,0.000000,-1,-0.790583,1.098721,-0.307946,0.407875,0.519528,0.474320
"2019-05-06 15:54:27.050 +0000",1557158067.049937,0.984268,0.670175,-2.449940,0.652729,-0.621123,-0.433764,0.000000,0.000000,0.000000,-1,0.124198,1.398774,0.346777,0.093762,0.875960,0.160326
"2019-05-06 15:54:27.070 +0000",1557158067.069895,1.006250,0.688072,-2.455663,0.652608,-0.635049,-0.413297,0.000000,0.000000,0.000000,-1,1.086471,0.495443,0.609417,-0.324926,0.907541,-0.011431
"2019-05-06 15:54:27.090 +0000",1557158067.089854,1.028084,0.714709,-2.477654,0.646758,-0.655398,-0.390074,0.000000,0.000000,0.000000,-1,1.719117,0.523127,0.722791,-0.725783,0.754260,0.259261
"2019-05-06 15:54:27.110 +0000",1557158067.109841,1.072894,0.744210,-2.515009,0.646309,-0.677391,-0.351322,0.000000,0.000000,0.000000,-1,2.008045,1.548446,0.469707,-0.688179,0.753120,0.743442
"2019-05-06 15:54:27.130 +0000",1557158067.129800,1.132823,0.773569,-2.549818,0.647895,-0.698693,-0.303414,0.000000,0.000000,0.000000,-1,1.518475,1.778953,0.965104,-0.829749,0.633858,0.770546
"2019-05-06 15:54:27.150 +0000",1557158067.149758,1.176350,0.799445,-2.574302,0.643574,-0.716969,-0.267895,0.000000,0.000000,0.000000,-1,0.993219,0.629166,0.459058,-0.803501,0.851796,0.500073
"2019-05-06 15:54:27.170 +0000",1557158067.169747,1.174874,0.798083,-2.584115,0.644078,-0.716019,-0.269221,0.000000,0.000000,0.000000,-1,-0.040713,-0.720804,-0.989825,-0.733159,0.735688,-0.090581
"2019-05-06 15:54:27.190 +0000",1557158067.189704,1.207017,0.778578,-2.616285,0.665325,-0.702268,-0.253305,0.000000,0.000000,0.000000,-1,0.980917,0.989469,-1.306435,-0.709056,-0.006320,-0.277151
"2019-05-06 15:54:27.210 +0000",1557158067.209664,1.209506,0.761187,-2.627481,0.677276,-0.689781,-0.255927,0.000000,0.000000,0.000000,-1,-1.603823,-2.611946,-0.755922,-0.539093,-0.162361,-0.427942
"2019-05-06 15:54:27.230 +0000",1557158067.229620,1.102464,0.731898,-2.568293,0.663805,-0.668283,-0.335799,0.000000,0.000000,0.000000,-1,-1.502761,-0.804557,-0.294646,-0.722796,-0.981528,-0.081910
"2019-05-06 15:54:27.250 +0000",1557158067.249610,1.155271,0.746556,-2.563347,0.671569,-0.679115,-0.296307,0.000000,0.000000,0.000000,-1,0.389523,4.628140,1.894859,-1.071487,-1.595269,0.964276
"2019-05-06 15:54:27.270 +0000",1557158067.269568,1.188552,0.768863,-2.540006,0.666833,-0.695319,-0.268078,0.000000,0.000000,0.000000,-1,-0.841708,-0.313214,-0.040139,0.436545,-0.485132,-0.167224
"2019-05-06 15:54:27.290 +0000",1557158067.289526,1.184033,0.770615,-2.558776,0.664486,-0.696577,-0.270629,0.000000,0.000000,0.000000,-1,2.193619,-0.626095,0.612559,1.262272,-0.249621,-0.381410
"2019-05-06 15:54:27.310 +0000",1557158067.309514,1.197698,0.810977,-2.609160,0.641403,-0.724961,-0.251066,0.000000,0.000000,0.000000,-1,2.873982,-1.763881,1.274171,1.234161,0.297669,-0.168765
"2019-05-06 15:54:27.329 +0000",1557158067.329472,1.239065,0.847328,-2.696812,0.625896,-0.749514,-0.215597,0.000000,0.000000,0.000000,-1,3.557648,-0.123068,0.319753,1.258518,-0.443891,-0.087885
"2019-05-06 15:54:27.349 +0000",1557158067.349431,1.325708,0.879093,-2.794501,0.618789,-0.770160,-0.154770,0.000000,0.000000,0.000000,-1,3.996779,1.426321,0.623331,0.351808,-0.261959,-0.594574
"2019-05-06 15:54:27.369 +0000",1557158067.369419,1.453955,0.910072,-2.922369,0.609504,-0.789548,-0.071541,0.000000,0.000000,0.000000,-1,3.642562,1.297250,1.196976,0.199959,-1.093936,-0.425697
"2019-05-06 15:54:27.389 +0000",1557158067.389378,1.538077,0.929408,-3.001578,0.597989,-0.801266,-0.019573,0.000000,0.000000,0.000000,-1,1.771907,1.457609,0.117898,0.439869,-0.619236,-1.034077
"2019-05-06 15:54:27.409 +0000",1557158067.409334,1.611326,0.926047,-3.052309,0.600505,-0.799250,0.024351,0.000000,0.000000,0.000000,-1,1.454937,1.376403,-0.235154,0.290273,-0.138769,-0.807646
"2019-05-06 15:54:27.429 +0000",1557158067.429323,1.664431,0.923792,-3.099236,0.600159,-0.797893,0.056360,0.000000,0.000000,0.000000,-1,1.415682,0.145646,0.162880,-0.523788,-0.106160,-0.211741
"2019-05-06 15:54:27.449 +0000",1557158067.449282,1.696481,0.932939,3.133057,0.590778,-0.803374,0.074645,0.000000,0.000000,0.000000,-1,1.612624,-0.941917,1.127182,-0.777470,0.236723,0.108262
"2019-05-06 15:54:27.469 +0000",1557158067.469239,1.714675,0.958968,3.070340,0.568431,-0.818599,0.082354,0.000000,0.000000,0.000000,-1,1.757185,-2.351811,1.680741,-0.638056,0.608943,0.435575
"2019-05-06 15:54:27.489 +0000",1557158067.489229,1.721841,0.982136,2.993460,0.548926,-0.831685,0.083549,0.000000,0.000000,0.000000,-1,2.219916,-2.866189,1.220146,-0.200812,0.721913,0.709237
"2019-05-06 15:54:27.509 +0000",1557158067.509217,1.738082,0.990834,2.931696,0.540342,-0.836483,0.091244,0.000000,0.000000,0.000000,-1,0.126024,-0.744931,-0.083633,-0.254469,1.008358,0.376086
"2019-05-06 15:54:27.529 +0000",1557158067.529176,1.668138,0.980488,3.010086,0.553982,-0.830769,0.054097,0.000000,0.000000,0.000000,-1,-3.721486,0.152690,-1.193897,-0.461559,0.617451,-0.531590
"2019-05-06 15:54:27.549 +0000",1557158067.549133,1.556705,0.958633,-3.132552,0.574583,-0.818407,-0.008097,0.000000,0.000000,0.000000,-1,-3.705271,0.318776,-1.442400,-0.769132,0.422884,0.056803
"2019-05-06 15:54:27.569 +0000",1557158067.569122,1.470209,0.921320,-3.033675,0.601713,-0.796400,-0.060730,0.000000,0.000000,0.000000,-1,-2.419742,-0.836027,-1.939662,-0.658964,0.497298,0.480758
"2019-05-06 15:54:27.589 +0000",1557158067.589081,1.397570,0.873260,-2.970561,0.632718,-0.766427,-0.110713,0.000000,0.000000,0.000000,-1,-2.640425,-1.374786,-2.381759,-0.451047,0.179986,0.577129
"2019-05-06 15:54:27.609 +0000",1557158067.609038,1.299390,0.814475,-2.872063,0.661130,-0.727365,-0.183974,0.000000,0.000000,0.000000,-1,-5.069995,-0.560602,-1.263666,-0.175961,-0.883001,0.134093
"2019-05-06 15:54:27.629 +0000",1557158067.629027,1.209932,0.788808,-2.712132,0.659304,-0.709514,-0.248815,0.000000,0.000000,0.000000,-1,-5.230464,2.698690,1.422556,-0.236819,-3.418324,0.125600
"2019-05-06 15:54:27.649 +0000",1557158067.648986,1.183405,0.767371,-2.599801,0.666404,-0.694245,-0.271899,0.000000,0.000000,0.000000,-1,-3.686653,1.836466,-0.212699,0.398522,-1.810180,-1.276472
"2019-05-06 15:54:27.669 +0000",1557158067.668943,1.143056,0.734134,-2.506193,0.675524,-0.669945,-0.307964,0.000000,0.000000,0.000000,-1,-3.821783,0.998894,0.442763,0.789274,0.029686,-0.485966
"2019-05-06 15:54:27.689 +0000",1557158067.688902,1.105303,0.716106,-2.418835,0.674103,-0.656452,-0.338609,0.000000,0.000000,0.000000,-1,-2.828200,0.343177,0.322358,0.849960,-0.174542,-0.312957
"2019-05-06 15:54:27.709 +0000",1557158067.708890,1.069635,0.692439,-2.362217,0.675038,-0.638416,-0.369794,0.000000,0.000000,0.000000,-1,-2.143272,0.201920,-0.153309,0.778544,-0.126461,-0.012301
"2019-05-06 15:54:27.729 +0000",1557158067.728848,1.051959,0.676294,-2.333992,0.677260,-0.625907,-0.386728,0.000000,0.000000,0.000000,-1,-0.615794,-0.340744,-0.268166,0.657212,-0.164987,-0.288855
"2019-05-06 15:54:27.749 +0000",1557158067.748806,1.036332,0.669064,-2.338855,0.675011,-0.620252,-0.399559,0.000000,0.000000,0.000000,-1,0.476137,-1.336406,-0.550787,0.371727,0.135969,-0.189812
"2019-05-06 15:54:27.769 +0000",1557158067.768794,1.039682,0.660747,-2.354472,0.680770,-0.613707,-0.399895,0.000000,0.000000,0.000000,-1,-0.177058,1.022670,-0.748883,-0.064880,0.437041,0.415825
"2019-05-06 15:54:27.789 +0000",1557158067.788752,1.067407,0.650539,-2.350770,0.697046,-0.605615,-0.383871,0.000000,0.000000,0.000000,-1,-0.763570,0.775304,-0.327245,-0.455713,0.729135,0.570196
"2019-05-06 15:54:27.809 +0000",1557158067.808710,1.131496,0.650992,-2.357079,0.719952,-0.605976,-0.338324,0.000000,0.000000,0.000000,-1,0.703334,5.199754,0.304346,-0.980312,0.943561,0.516409
"2019-05-06 15:54:27.829 +0000",1557158067.828687,1.175102,0.677038,-2.388227,0.719205,-0.626487,-0.300431,0.000000,0.000000,0.000000,-1,2.500278,-1.878070,0.749076,-0.672528,1.013144,-0.325622
"2019-05-06 15:54:27.849 +0000",1557158067.848644,1.193175,0.702203,-2.441318,0.709634,-0.645901,-0.281481,0.000000,0.000000,0.000000,-1,2.168801,0.843474,0.006611,-0.803201,0.395199,0.871355
"2019-05-06 15:54:27.869 +0000",1557158067.868603,1.257068,0.713091,-2.480528,0.719426,-0.654175,-0.233413,0.000000,0.000000,0.000000,-1,0.977983,2.359612,-0.007816,-0.759312,0.453598,0.426254
"2019-05-06 15:54:27.889 +0000",1557158067.888591,1.293374,0.715515,-2.487854,0.725897,-0.656006,-0.206711,0.000000,0.000000,0.000000,-1,-0.223121,0.463411,-0.090328,-0.655096,0.358124,-0.126770
"2019-05-06 15:54:27.909 +0000",1557158067.908549,1.292857,0.706302,-2.490315,0.731571,-0.649025,-0.208736,0.000000,0.000000,0.000000,-1,0.596593,0.202361,-0.825415,-0.364674,0.034645,-0.464070
"2019-05-06 15:54:27.929 +0000",1557158067.928507,1.308693,0.693807,-2.514629,0.742560,-0.639469,-0.199210,0.000000,0.000000,0.000000,-1,-0.066854,-1.369234,-0.890365,-0.410788,-0.171734,-0.274743
"2019-05-06 15:54:27.948 +0000",1557158067.948497,1.232594,0.663247,-2.491099,0.743359,-0.615679,-0.261451,0.000000,0.000000,0.000000,-1,-0.899165,-2.150674,-1.358951,-0.342984,-0.608122,-0.567285
"2019-05-06 15:54:27.968 +0000",1557158067.968453,1.275916,0.672880,-2.518054,0.748275,-0.623241,-0.227278,0.000000,0.000000,0.000000,-1,2.019454,4.052155,2.021901,-0.921508,-1.495274,1.040678
"2019-05-06 15:54:27.988 +0000",1557158067.988412,1.354296,0.727467,-2.544997,0.729426,-0.664980,-0.160436,0.000000,0.000000,0.000000,-1,1.189751,1.053933,2.118245,0.319997,-0.742903,-0.222346
"2019-05-06 15:54:28.008 +0000",1557158068.008401,1.343089,0.769919,-2.550136,0.699434,-0.696077,-0.162078,0.000000,0.000000,0.000000,-1,0.623802,-2.816503,2.017405,0.404906,-0.575850,-0.337434
"2019-05-06 15:54:28.028 +0000",1557158068.028358,1.283791,0.826396,-2.575956,0.649817,-0.735494,-0.191796,0.000000,0.000000,0.000000,-1,2.949059,-3.205495,2.870572,0.232324,-0.257975,-0.220389
"2019-05-06 15:54:28.048 +0000",1557158068.048317,1.342948,0.898524,-2.680249,0.606670,-0.782409,-0.140672,0.000000,0.000000,0.000000,-1,4.820502,1.048449,1.745956,0.608037,-0.294007,0.202134
"2019-05-06 15:54:28.068 +0000",1557158068.068274,1.473835,0.923144,-2.790319,0.600482,-0.797503,-0.058406,0.000000,0.000000,0.000000,-1,2.821561,3.409353,-0.288900,0.826429,-0.264265,-0.840565
"2019-05-06 15:54:28.088 +0000",1557158068.088263,1.643807,0.920147,-2.906510,0.604090,-0.795691,0.044184,0.000000,0.000000,0.000000,-1,4.036830,3.426379,0.282254,0.500906,-0.796045,-0.494974
"2019-05-06 15:54:28.108 +0000",1557158068.108221,1.792165,0.920079,-3.038720,0.590975,-0.795650,0.133003,0.000000,0.000000,0.000000,-1,3.502504,1.434804,0.552465,0.014432,-0.942708,-0.893761
"2019-05-06 15:54:28.128 +0000",1557158068.128179,1.894298,0.906538,-3.126682,0.584498,-0.787374,0.195970,0.000000,0.000000,0.000000,-1,2.087694,1.868609,-0.237561,0.621603,-0.313349,-0.830858
"2019-05-06 15:54:28.148 +0000",1557158068.148167,1.963392,0.894905,3.117004,0.577998,-0.780150,0.239345,0.000000,0.000000,0.000000,-1,0.647063,1.571740,0.062162,-0.177424,-0.335070,-0.745829
"2019-05-06 15:54:28.168 +0000",1557158068.168125,1.984800,0.904394,3.103195,0.565938,-0.786051,0.248673,0.000000,0.000000,0.000000,-1,-0.180517,-0.805250,1.187797,-0.980489,-0.016684,-0.304246
"2019-05-06 15:54:28.188 +0000",1557158068.188083,1.983406,0.928163,3.080751,0.549011,-0.800520,0.240322,0.000000,0.000000,0.000000,-1,0.545837,-0.917415,1.461453,-0.687408,0.947539,-0.105969
"2019-05-06 15:54:28.208 +0000",1557158068.208071,1.987575,0.947025,3.039084,0.534100,-0.811681,0.236453,0.000000,0.000000,0.000000,-1,1.027266,-1.892716,1.286685,0.097721,0.722219,0.663571
"2019-05-06 15:54:28.228 +0000",1557158068.228031,1.986178,0.955047,3.004069,0.528455,-0.816341,0.233072,0.000000,0.000000,0.000000,-1,0.015178,-0.795459,-0.007453,0.064242,1.041713,0.271688
"2019-05-06 15:54:28.248 +0000",1557158068.247988,1.931049,0.954555,3.064026,0.540870,-0.816057,0.203741,0.000000,0.000000,0.000000,-1,-2.871498,0.023784,-0.971631,-0.322273,0.788179,-0.695197
"2019-05-06 15:54:28.268 +0000",1557158068.267977,1.837285,0.956644,-3.109060,0.555925,-0.817262,0.151757,0.000000,0.000000,0.000000,-1,-2.877406,-0.485317,-0.897172,-0.864961,0.318819,-0.227456
"2019-05-06 15:54:28.288 +0000",1557158068.287935,1.754254,0.952000,-3.013446,0.570321,-0.814577,0.105820,0.000000,0.000000,0.000000,-1,-2.399671,0.181174,-0.830268,-1.066552,0.271883,0.199432
"2019-05-06 15:54:28.308 +0000",1557158068.307893,1.693261,0.939736,-2.935861,0.585583,-0.807402,0.072074,0.000000,0.000000,0.000000,-1,-2.019710,-0.329375,-1.281355,-0.736645,0.398772,0.668664
"2019-05-06 15:54:28.328 +0000",1557158068.327881,1.573035,0.903884,-2.823354,0.618561,-0.785735,0.001385,0.000000,0.000000,0.000000,-1,-4.861088,-2.236891,-2.564655,-0.009461,-0.075547,0.016132
"2019-05-06 15:54:28.348 +0000",1557158068.347840,1.387476,0.859519,-2.633420,0.641864,-0.757528,-0.119003,0.000000,0.000000,0.000000,-1,-7.374406,-1.577479,-0.003414,0.042859,-1.469293,0.248092
"2019-05-06 15:54:28.368 +0000",1557158068.367798,1.254888,0.843164,-2.439595,0.632191,-0.746751,-0.206635,0.000000,0.000000,0.000000,-1,-4.845591,3.705153,0.004496,0.492779,-3.344314,-0.170425
"2019-05-06 15:54:28.388 +0000",1557158068.387787,1.253207,0.792674,-2.321422,0.666840,-0.712233,-0.219201,0.000000,0.000000,0.000000,-1,-4.620646,3.353209,-1.580353,0.530914,-1.380815,-1.056403
"2019-05-06 15:54:28.408 +0000",1557158068.407745,1.215046,0.748860,-2.220634,0.686602,-0.680804,-0.255113,0.000000,0.000000,0.000000,-1,-3.526945,0.189041,-0.239882,0.350583,-0.906750,-0.929046
"2019-05-06 15:54:28.428 +0000",1557158068.427704,1.146228,0.722668,-2.145483,0.683452,-0.661388,-0.308964,0.000000,0.000000,0.000000,-1,-2.794005,-1.761854,-0.338110,0.681111,-0.122318,-0.221966
"2019-05-06 15:54:28.448 +0000",1557158068.447692,1.083094,0.694586,-2.094925,0.678742,-0.640067,-0.360032,0.000000,0.000000,0.000000,-1,-1.719086,-1.038886,-0.450880,0.832443,-0.005059,0.008210
"2019-05-06 15:54:28.468 +0000",1557158068.467652,1.057672,0.674084,-2.078193,0.680662,-0.624182,-0.383531,0.000000,0.000000,0.000000,-1,-0.475475,-0.617001,-0.668383,0.627703,0.205878,0.145051
"2019-05-06 15:54:28.488 +0000",1557158068.487608,1.044977,0.666257,-2.086792,0.679943,-0.618048,-0.394581,0.000000,0.000000,0.000000,-1,0.648149,-1.270155,-0.303319,0.186009,0.472388,0.025532
"2019-05-06 15:54:28.508 +0000",1557158068.507566,1.030693,0.676607,-2.108184,0.668716,-0.626151,-0.400941,0.000000,0.000000,0.000000,-1,1.218427,-1.166810,0.373293,-0.296401,0.615912,0.059618
"2019-05-06 15:54:28.528 +0000",1557158068.527556,1.037386,0.698632,-2.127624,0.659347,-0.643171,-0.389349,0.000000,0.000000,0.000000,-1,1.132040,0.687322,0.598697,-0.737472,0.703000,0.340521
"2019-05-06 15:54:28.548 +0000",1557158068.547513,1.064681,0.721289,-2.139223,0.656811,-0.660353,-0.364050,0.000000,0.000000,0.000000,-1,0.812396,1.372535,0.484215,-0.875317,1.027312,0.468130
"2019-05-06 15:54:28.567 +0000",1557158068.567471,1.129878,0.731724,-2.160166,0.672865,-0.668153,-0.317527,0.000000,0.000000,0.000000,-1,1.170387,2.395139,-0.369199,-0.939848,1.074693,1.107902
"2019-05-06 15:54:28.587 +0000",1557158068.587459,1.195181,0.735580,-2.196560,0.689750,-0.671017,-0.271995,0.000000,0.000000,0.000000,-1,1.246022,2.140695,-0.443062,-0.948768,0.627651,0.645011
"2019-05-06 15:54:28.607 +0000",1557158068.607416,1.250088,0.737686,-2.223998,0.702295,-0.672577,-0.233285,0.000000,0.000000,0.000000,-1,0.660749,1.187824,-0.007096,-0.902094,0.592484,0.354532
"2019-05-06 15:54:28.627 +0000",1557158068.627374,1.254945,0.740056,-2.225399,0.701902,-0.674329,-0.229376,0.000000,0.000000,0.000000,-1,-0.306040,-0.515255,-0.201435,-0.822096,0.502423,-0.443537
"2019-05-06 15:54:28.647 +0000",1557158068.647363,1.259791,0.731392,-2.225762,0.708541,-0.667906,-0.227751,0.000000,0.000000,0.000000,-1,0.397291,1.663774,-0.463953,-0.098571,-0.046434,-0.644365
"2019-05-06 15:54:28.667 +0000",1557158068.667321,1.316163,0.734947,-2.249363,0.717946,-0.670548,-0.186869,0.000000,0.000000,0.000000,-1,0.691128,1.187771,0.156929,-0.000981,0.073670,0.170450
"2019-05-06 15:54:28.687 +0000",1557158068.687279,1.279038,0.730497,-2.234526,0.713365,-0.667240,-0.214244,0.000000,0.000000,0.000000,-1,-2.108775,-4.584706,-0.328736,-0.397066,0.056980,0.041285
"2019-05-06 15:54:28.707 +0000",1557158068.707268,1.241091,0.749014,-2.205486,0.692914,-0.680917,-0.237112,0.000000,0.000000,0.000000,-1,0.797136,4.454279,3.924347,-1.570447,-1.807258,1.445318
"2019-05-06 15:54:28.727 +0000",1557158068.727226,1.328832,0.832518,-2.167252,0.653410,-0.739628,-0.161261,0.000000,0.000000,0.000000,-1,-0.652815,3.568814,2.945862,-0.217299,-2.463375,-0.265237
"2019-05-06 15:54:28.747 +0000",1557158068.747184,1.336213,0.851166,-2.145928,0.641055,-0.752049,-0.153201,0.000000,0.000000,0.000000,-1,0.639514,-0.122498,-0.377738,0.364682,-0.986553,-0.630505
"2019-05-06 15:54:28.767 +0000",1557158068.767173,1.340882,0.853057,-2.191599,0.640377,-0.753295,-0.149882,0.000000,0.000000,0.000000,-1,2.029085,-3.471595,0.101046,0.422230,0.204238,-0.371587
"2019-05-06 15:54:28.787 +0000",1557158068.787130,1.327794,0.888912,-2.272591,0.611741,-0.776386,-0.151651,0.000000,0.000000,0.000000,-1,4.149531,-1.606768,2.147227,0.705108,0.107807,0.426264
"2019-05-06 15:54:28.807 +0000",1557158068.807089,1.460839,0.938550,-2.397908,0.587389,-0.806702,-0.064849,0.000000,0.000000,0.000000,-1,3.258038,4.017477,0.766583,0.785963,-0.388000,0.180282
"2019-05-06 15:54:28.827 +0000",1557158068.827049,1.640403,0.950434,-2.498905,0.579923,-0.813668,0.040432,0.000000,0.000000,0.000000,-1,2.894496,3.592849,1.130377,0.424899,-1.448707,-0.759151
"2019-05-06 15:54:28.847 +0000",1557158068.847007,1.770014,0.963153,-2.603022,0.559642,-0.820996,0.112989,0.000000,0.000000,0.000000,-1,2.580159,2.124687,0.282807,-0.447871,-1.249790,-1.113447
"2019-05-06 15:54:28.867 +0000",1557158068.866966,1.887661,0.956030,-2.685992,0.548054,-0.816908,0.179714,0.000000,0.000000,0.000000,-1,2.465668,2.588547,0.501691,1.014339,-0.242921,-0.656262
"2019-05-06 15:54:28.887 +0000",1557158068.886923,1.989915,0.948735,-2.752396,0.532276,-0.812679,0.237138,0.000000,0.000000,0.000000,-1,1.174727,2.498532,-0.065678,0.969143,0.182338,-0.765107
"2019-05-06 15:54:28.907 +0000",1557158068.906912,2.052469,0.939542,-2.776058,0.523010,-0.807288,0.273397,0.000000,0.000000,0.000000,-1,0.742785,1.477734,0.316276,-0.508301,-0.063821,-0.851431
"2019-05-06 15:54:28.927 +0000",1557158068.926871,2.095896,0.947710,-2.816808,0.504926,-0.812081,0.292530,0.000000,0.000000,0.000000,-1,0.864392,-0.320298,1.320017,-0.950406,0.262323,-0.462223
"2019-05-06 15:54:28.947 +0000",1557158068.946828,2.116578,0.962340,-2.863300,0.488560,-0.820531,0.296710,0.000000,0.000000,0.000000,-1,0.860352,-1.394476,1.195518,-0.130360,0.967611,0.025570
"2019-05-06 15:54:28.967 +0000",1557158068.966816,2.125876,0.965452,-2.913736,0.483608,-0.822306,0.299893,0.000000,0.000000,0.000000,-1,1.236528,-1.771669,0.511199,0.163106,0.978984,0.682163
"2019-05-06 15:54:28.987 +0000",1557158068.986775,2.111372,0.959411,-2.938004,0.492157,-0.818853,0.295399,0.000000,0.000000,0.000000,-1,0.043866,-1.343196,-0.413549,-0.080978,1.126806,-0.107670
"2019-05-06 15:54:29.007 +0000",1557158069.006733,2.056946,0.956591,-2.893505,0.509537,-0.817232,0.269266,0.000000,0.000000,0.000000,-1,-1.966251,-0.664202,-0.911981,-0.461976,0.576219,-0.525705
"2019-05-06 15:54:29.027 +0000",1557158069.026721,1.974940,0.960103,-2.807426,0.527240,-0.819250,0.225493,0.000000,0.000000,0.000000,-1,-2.317998,-0.408384,-0.972116,-0.917117,0.268393,-0.364150
"2019-05-06 15:54:29.047 +0000",1557158069.046680,1.906945,0.958153,-2.725399,0.542849,-0.818131,0.189677,0.000000,0.000000,0.000000,-1,-1.984592,0.128867,-0.912661,-1.067369,0.266114,0.290899
"2019-05-06 15:54:29.067 +0000",1557158069.066637,1.826625,0.948687,-2.651581,0.563784,-0.812651,0.147464,0.000000,0.000000,0.000000,-1,-2.054827,-2.755495,-1.538976,-0.695086,0.377989,0.410627
"2019-05-06 15:54:29.087 +0000",1557158069.086626,1.635834,0.913567,-2.523695,0.609634,-0.791688,0.039705,0.000000,0.000000,0.000000,-1,-5.047809,-4.840600,-2.912444,0.161362,-0.165786,-0.223024
"2019-05-06 15:54:29.107 +0000",1557158069.106585,1.425276,0.861997,-2.336112,0.644043,-0.759144,-0.094389,0.000000,0.000000,0.000000,-1,-6.402413,-0.968744,-1.182512,0.179367,-1.135052,0.355314
"2019-05-06 15:54:29.127 +0000",1557158069.126543,1.345539,0.833406,-2.177286,0.655373,-0.740226,-0.150176,0.000000,0.000000,0.000000,-1,-4.926996,3.191458,-0.363816,0.522041,-2.816674,-0.159120
"2019-05-06 15:54:29.147 +0000",1557158069.146531,1.302178,0.786285,-2.041101,0.681144,-0.707733,-0.187499,0.000000,0.000000,0.000000,-1,-5.033527,1.817483,-1.624589,0.390892,-1.433578,-1.196137
"2019-05-06 15:54:29.166 +0000",1557158069.166489,1.226427,0.739507,-1.936402,0.695425,-0.673924,-0.249421,0.000000,0.000000,0.000000,-1,-3.637402,-1.793444,-0.369492,0.086527,-1.131557,-1.043960
"2019-05-06 15:54:29.186 +0000",1557158069.186447,1.133731,0.707661,-1.853562,0.688454,-0.650058,-0.321646,0.000000,0.000000,0.000000,-1,-3.439848,-1.522464,-0.437590,0.897987,-0.224988,-0.454309
"2019-05-06 15:54:29.206 +0000",1557158069.206435,1.078987,0.669501,-1.793322,0.691196,-0.620595,-0.370284,0.000000,0.000000,0.000000,-1,-2.163236,-0.288204,-0.840660,0.878766,-0.024730,-0.078737
"2019-05-06 15:54:29.226 +0000",1557158069.226394,1.057058,0.641063,-1.780028,0.698003,-0.598048,-0.393867,0.000000,0.000000,0.000000,-1,-0.188481,-1.514785,-1.129088,0.557445,0.062770,-0.044518
"2019-05-06 15:54:29.246 +0000",1557158069.246351,1.026072,0.625308,-1.801788,0.693438,-0.585347,-0.420133,0.000000,0.000000,0.000000,-1,0.807599,-2.788975,-0.969508,0.077924,0.339422,-0.048235
"2019-05-06 15:54:29.266 +0000",1557158069.266310,0.985571,0.627637,-1.831394,0.674720,-0.587234,-0.447112,0.000000,0.000000,0.000000,-1,1.319620,-2.908858,0.037758,-0.304466,0.514465,0.148421
"2019-05-06 15:54:29.286 +0000",1557158069.286299,0.945320,0.656320,-1.854825,0.642259,-0.610205,-0.463846,0.000000,0.000000,0.000000,-1,1.601109,-1.867373,1.014675,-0.603380,0.504736,0.294793
"2019-05-06 15:54:29.306 +0000",1557158069.306256,0.940361,0.689056,-1.864939,0.623475,-0.635809,-0.455001,0.000000,0.000000,0.000000,-1,0.989130,0.720323,1.005918,-0.811341,0.913641,0.730117
"2019-05-06 15:54:29.326 +0000",1557158069.326214,0.977539,0.713018,-1.868746,0.627142,-0.654120,-0.422871,0.000000,0.000000,0.000000,-1,0.710453,2.688554,0.805674,-1.134848,1.209677,0.768086
"2019-05-06 15:54:29.346 +0000",1557158069.346203,1.046639,0.736593,-1.874312,0.641311,-0.671768,-0.370739,0.000000,0.000000,0.000000,-1,0.986654,3.765838,0.648571,-1.096969,0.835251,0.959072
"2019-05-06 15:54:29.366 +0000",1557158069.366161,1.124268,0.756347,-1.889601,0.656032,-0.686269,-0.314096,0.000000,0.000000,0.000000,-1,0.808808,2.847287,0.604026,-0.701092,0.557073,0.696069
"2019-05-06 15:54:29.386 +0000",1557158069.386120,1.167345,0.772456,-1.892607,0.658697,-0.697896,-0.281176,0.000000,0.000000,0.000000,-1,-0.067943,1.348105,0.496888,-0.542409,0.547521,0.116244
"2019-05-06 15:54:29.406 +0000",1557158069.406108,1.154139,0.774028,-1.866562,0.653922,-0.699021,-0.289406,0.000000,0.000000,0.000000,-1,-1.139549,-0.453163,0.407767,-0.858283,0.247681,-0.899818
"2019-05-06 15:54:29.426 +0000",1557158069.426066,1.125553,0.759877,-1.829814,0.654245,-0.688833,-0.312207,0.000000,0.000000,0.000000,-1,-2.020823,0.339510,-0.616615,-0.102914,-0.824458,-0.698016
"2019-05-06 15:54:29.446 +0000",1557158069.446024,1.098875,0.735529,-1.773716,0.660430,-0.670980,-0.337074,0.000000,0.000000,0.000000,-1,-2.403641,2.092142,0.490991,-0.056044,-1.236277,0.724189
"2019-05-06 15:54:29.466 +0000",1557158069.466013,1.144040,0.755395,-1.718743,0.662709,-0.685576,-0.301335,0.000000,0.000000,0.000000,-1,-0.786397,4.688499,1.814384,0.226482,-2.690050,0.920536
"2019-05-06 15:54:29.486 +0000",1557158069.485970,1.185757,0.763481,-1.699536,0.669540,-0.691441,-0.271343,0.000000,0.000000,0.000000,-1,-0.531532,0.537107,-0.167124,-0.234954,-0.816998,-0.007283
"2019-05-06 15:54:29.506 +0000",1557158069.505929,1.176222,0.779773,-1.703830,0.656434,-0.703118,-0.273347,0.000000,0.000000,0.000000,-1,1.860828,-0.601400,1.492433,-0.345766,0.558846,-0.573561
"2019-05-06 15:54:29.526 +0000",1557158069.525917,1.179187,0.833987,-1.746801,0.621061,-0.740616,-0.256459,0.000000,0.000000,0.000000,-1,2.568817,-2.758422,2.458326,0.911715,0.442871,-0.135539
"2019-05-06 15:54:29.546 +0000",1557158069.545876,1.143013,0.917080,-1.788535,0.553340,-0.793829,-0.252290,0.000000,0.000000,0.000000,-1,3.681966,-2.960990,3.449829,0.408529,-0.373972,0.546678
"2019-05-06 15:54:29.566 +0000",1557158069.565834,1.263608,1.006957,-1.918822,0.509417,-0.845209,-0.161603,0.000000,0.000000,0.000000,-1,6.229842,4.801824,1.907970,0.340253,-0.242285,0.915860
"2019-05-06 15:54:29.586 +0000",1557158069.585822,1.540465,1.051078,-2.116901,0.496407,-0.867959,-0.015061,0.000000,0.000000,0.000000,-1,3.984185,3.542135,0.824847,0.843284,-1.202475,-1.198638
"2019-05-06 15:54:29.606 +0000",1557158069.605780,1.707957,1.056997,-2.251005,0.486874,-0.870883,0.067202,0.000000,0.000000,0.000000,-1,2.903199,3.336413,0.112792,0.898441,-1.506161,-1.304415
"2019-05-06 15:54:29.626 +0000",1557158069.625738,1.905265,1.050167,-2.391627,0.469862,-0.867506,0.163289,0.000000,0.000000,0.000000,-1,4.001447,3.128086,1.226198,0.667040,-0.676775,-0.198720
"2019-05-06 15:54:29.646 +0000",1557158069.645695,2.066532,1.052130,-2.528072,0.436047,-0.868481,0.235805,0.000000,0.000000,0.000000,-1,1.682853,1.617481,1.349372,0.151234,-0.432773,-1.010295
"2019-05-06 15:54:29.666 +0000",1557158069.665684,2.155420,1.059641,-2.584790,0.407942,-0.872180,0.269975,0.000000,0.000000,0.000000,-1,0.691248,1.878106,0.996686,0.099184,-0.256208,-0.951814
"2019-05-06 15:54:29.686 +0000",1557158069.685642,2.208323,1.075708,-2.633394,0.381784,-0.879927,0.282790,0.000000,0.000000,0.000000,-1,0.272182,-0.715521,1.608595,-0.282373,0.481474,-0.388533
"2019-05-06 15:54:29.706 +0000",1557158069.705601,2.226720,1.098702,-2.684410,0.360385,-0.890618,0.277350,0.000000,0.000000,0.000000,-1,0.379068,-1.802416,1.568568,-0.090472,0.846154,0.282403
"2019-05-06 15:54:29.726 +0000",1557158069.725589,2.238862,1.112343,-2.740276,0.347420,-0.896738,0.274153,0.000000,0.000000,0.000000,-1,0.631216,-1.974295,0.858294,-0.043450,0.981699,0.437990
"2019-05-06 15:54:29.746 +0000",1557158069.745547,2.213776,1.113052,-2.760315,0.353678,-0.897052,0.264971,0.000000,0.000000,0.000000,-1,-0.284843,-2.256365,-0.322928,-0.129740,1.140338,-0.124849
"2019-05-06 15:54:29.766 +0000",1557158069.765505,2.120423,1.115564,-2.694736,0.374916,-0.898159,0.229670,0.000000,0.000000,0.000000,-1,-2.122461,-1.012129,-0.892251,-0.346306,0.728405,-0.487590
"2019-05-06 15:54:29.785 +0000",1557158069.785493,2.001141,1.122125,-2.573844,0.394218,-0.901024,0.180961,0.000000,0.000000,0.000000,-1,-2.567229,-0.284101,-1.140031,-0.665276,0.561913,-0.386787
"2019-05-06 15:54:29.805 +0000",1557158069.805453,1.879005,1.118169,-2.447076,0.416722,-0.899301,0.132665,0.000000,0.000000,0.000000,-1,-2.554874,-0.441838,-1.143246,-0.930730,0.622568,-0.133016
"2019-05-06 15:54:29.825 +0000",1557158069.825409,1.742434,1.111065,-2.302014,0.437187,-0.896172,0.075783,0.000000,0.000000,0.000000,-1,-3.419888,-0.330024,-1.283170,-0.853142,0.677407,0.046501
"2019-05-06 15:54:29.845 +0000",1557158069.845419,1.582506,1.086685,-2.135321,0.465390,-0.885089,0.005450,0.000000,0.000000,0.000000,-1,-3.898939,-0.962716,-1.848580,-0.405545,0.755603,0.674192
"2019-05-06 15:54:29.865 +0000",1557158069.865376,1.383043,1.033531,-1.940953,0.502795,-0.859111,-0.095527,0.000000,0.000000,0.000000,-1,-5.994571,-1.780007,-2.645704,0.026685,0.321544,-0.062097
"2019-05-06 15:54:29.885 +0000",1557158069.885334,1.196701,0.959814,-1.740175,0.533997,-0.819085,-0.209637,0.000000,0.000000,0.000000,-1,-5.849565,0.825999,-0.585740,0.487640,-0.938438,0.330029
"2019-05-06 15:54:29.905 +0000",1557158069.905322,1.117010,0.938613,-1.593867,0.531104,-0.806739,-0.259037,0.000000,0.000000,0.000000,-1,-3.446626,1.118017,0.835955,1.198358,-4.130608,-0.840526
"2019-05-06 15:54:29.925 +0000",1557158069.925281,1.031718,0.895004,-1.500531,0.536807,-0.780211,-0.321106,0.000000,0.000000,0.000000,-1,-3.662299,-1.848789,-1.790470,0.573896,-1.814408,-1.366425
"2019-05-06 15:54:29.945 +0000",1557158069.945238,0.958290,0.825213,-1.453760,0.555074,-0.734692,-0.390026,0.000000,0.000000,0.000000,-1,-2.510520,-1.781536,-2.222243,0.705912,-0.935062,-0.865955
"2019-05-06 15:54:29.965 +0000",1557158069.965227,0.919887,0.769868,-1.431249,0.571195,-0.696040,-0.435045,0.000000,0.000000,0.000000,-1,-2.186823,-0.344435,-1.306939,1.018481,-0.234029,-0.472059
"2019-05-06 15:54:29.985 +0000",1557158069.985186,0.890427,0.726700,-1.410434,0.580961,-0.664407,-0.470156,0.000000,0.000000,0.000000,-1,-1.521467,-1.753304,-1.178785,0.717195,0.205148,-0.062894
"2019-05-06 15:54:30.005 +0000",1557158070.005144,0.857229,0.698703,-1.412127,0.578876,-0.643225,-0.501162,0.000000,0.000000,0.000000,-1,-0.226018,-1.297540,-1.119957,0.297329,0.562537,0.359820
"2019-05-06 15:54:30.025 +0000",1557158070.025101,0.859673,0.684998,-1.432096,0.586723,-0.632672,-0.505453,0.000000,0.000000,0.000000,-1,0.761614,-0.350455,-0.817594,-0.256676,0.879925,0.600072
"2019-05-06 15:54:30.045 +0000",1557158070.045090,0.854714,0.701619,-1.468369,0.576196,-0.645455,-0.501384,0.000000,0.000000,0.000000,-1,1.981926,-1.730462,0.237131,-0.689310,0.587594,-0.054906
"2019-05-06 15:54:30.065 +0000",1557158070.065048,0.843451,0.734403,-1.490255,0.554403,-0.670144,-0.493501,0.000000,0.000000,0.000000,-1,1.531036,-0.643903,0.779539,-0.764502,0.552743,0.466402
"2019-05-06 15:54:30.085 +0000",1557158070.085006,0.866070,0.756462,-1.493933,0.554026,-0.686352,-0.471143,0.000000,0.000000,0.000000,-1,0.162613,3.174954,0.626538,-0.696970,0.975461,1.080045
"2019-05-06 15:54:30.105 +0000",1557158070.104995,0.913097,0.773490,-1.512201,0.566229,-0.698637,-0.437369,0.000000,0.000000,0.000000,-1,1.451509,1.319693,-0.027607,-0.761206,0.716764,0.500006
"2019-05-06 15:54:30.125 +0000",1557158070.124953,0.972243,0.781352,-1.546864,0.586536,-0.704240,-0.400026,0.000000,0.000000,0.000000,-1,1.050875,2.308942,-0.901766,-0.618885,0.575593,0.785036
"2019-05-06 15:54:30.145 +0000",1557158070.144912,1.041076,0.775329,-1.574322,0.616310,-0.699951,-0.360875,0.000000,0.000000,0.000000,-1,0.015529,2.008149,-0.517153,-0.849754,0.586136,0.356160
"2019-05-06 15:54:30.165 +0000",1557158070.164900,1.063880,0.763533,-1.566042,0.631553,-0.691478,-0.350712,0.000000,0.000000,0.000000,-1,-0.426538,1.785264,-0.488317,-0.821754,0.343471,-0.689815
"2019-05-06 15:54:30.185 +0000",1557158070.184857,1.122868,0.762995,-1.583408,0.651466,-0.691089,-0.313031,0.000000,0.000000,0.000000,-1,0.739037,2.065951,0.159571,-0.570838,-0.055417,0.363370
"2019-05-06 15:54:30.205 +0000",1557158070.204816,1.093983,0.765371,-1.548139,0.640692,-0.692805,-0.330961,0.000000,0.000000,0.000000,-1,-2.536333,-2.629236,0.920762,-0.215826,-0.538396,-0.651049
"2019-05-06 15:54:30.225 +0000",1557158070.224804,1.069196,0.800980,-1.517870,0.610266,-0.718039,-0.334659,0.000000,0.000000,0.000000,-1,1.780329,3.433884,3.508595,-0.929708,-1.559977,1.237781
"2019-05-06 15:54:30.245 +0000",1557158070.244762,1.153493,0.861693,-1.506000,0.595275,-0.758946,-0.263910,0.000000,0.000000,0.000000,-1,0.536083,3.164280,1.564710,-0.074080,-1.274684,0.272852
"2019-05-06 15:54:30.265 +0000",1557158070.264721,1.148465,0.883255,-1.501222,0.578877,-0.772808,-0.260131,0.000000,0.000000,0.000000,-1,0.562199,-2.261739,0.836690,0.106639,-0.740970,-0.664017
"2019-05-06 15:54:30.285 +0000",1557158070.284709,1.131520,0.927185,-1.536017,0.543116,-0.799934,-0.255208,0.000000,0.000000,0.000000,-1,2.970437,-1.997252,2.592698,0.348501,-0.036660,-0.432505
"2019-05-06 15:54:30.305 +0000",1557158070.304667,1.125064,1.030904,-1.579158,0.463819,-0.857764,-0.221614,0.000000,0.000000,0.000000,-1,3.824652,-2.140563,4.954977,0.809023,0.203711,0.223308
"2019-05-06 15:54:30.325 +0000",1557158070.324625,1.225485,1.142990,-1.672836,0.390386,-0.909878,-0.140431,0.000000,0.000000,0.000000,-1,4.686674,4.925431,3.393409,0.946956,0.069455,0.499013
"2019-05-06 15:54:30.345 +0000",1557158070.344613,1.603320,1.207937,-1.940312,0.354762,-0.934886,0.011542,0.000000,0.000000,0.000000,-1,6.173218,5.826201,1.574245,1.615255,-1.262380,-0.422080
"2019-05-06 15:54:30.365 +0000",1557158070.364571,1.926785,1.200986,-2.220198,0.338777,-0.932396,0.125968,0.000000,0.000000,0.000000,-1,3.689918,1.408268,-0.026715,0.398741,-1.219047,-1.699713
"2019-05-06 15:54:30.385 +0000",1557158070.384529,2.117475,1.185477,-2.405137,0.321077,-0.926678,0.195390,0.000000,0.000000,0.000000,-1,3.524173,0.643546,1.601057,0.468581,-0.263446,-0.650315
"2019-05-06 15:54:30.404 +0000",1557158070.404488,2.308052,1.170090,-2.585497,0.288774,-0.920786,0.262227,0.000000,0.000000,0.000000,-1,2.601228,1.630989,0.913863,0.665266,-0.284765,-0.470128
"2019-05-06 15:54:30.424 +0000",1557158070.424476,2.401876,1.149951,-2.667061,0.275383,-0.912744,0.301766,0.000000,0.000000,0.000000,-1,1.244186,-0.501296,0.280298,-0.247490,0.233117,-0.829003
"2019-05-06 15:54:30.444 +0000",1557158070.444434,2.430178,1.151655,-2.723777,0.265718,-0.913439,0.308260,0.000000,0.000000,0.000000,-1,0.163678,-1.321929,1.622036,-0.962983,0.504885,-0.532656
"2019-05-06 15:54:30.464 +0000",1557158070.464392,2.435909,1.171676,-2.771943,0.252033,-0.921403,0.295796,0.000000,0.000000,0.000000,-1,-0.163014,-2.230347,1.057946,0.180462,0.640214,0.468013
"2019-05-06 15:54:30.484 +0000",1557158070.484380,2.429221,1.175836,-2.806280,0.251499,-0.923012,0.291201,0.000000,0.000000,0.000000,-1,0.682507,-1.690635,0.188103,0.280117,0.809624,0.345350
"2019-05-06 15:54:30.504 +0000",1557158070.504339,2.397776,1.165596,-2.807735,0.266915,-0.919023,0.290090,0.000000,0.000000,0.000000,-1,-0.244549,-1.493729,-0.735492,0.052161,0.923097,-0.377309
"2019-05-06 15:54:30.524 +0000",1557158070.524297,2.306021,1.172037,-2.731190,0.287976,-0.921543,0.260437,0.000000,0.000000,0.000000,-1,-2.258823,-0.636815,-0.835718,-0.470197,0.705250,-0.693634
"2019-05-06 15:54:30.544 +0000",1557158070.544286,2.158292,1.195201,-2.584010,0.305321,-0.930289,0.203324,0.000000,0.000000,0.000000,-1,-3.257490,-0.804572,-0.838707,-0.746819,0.663337,-0.646470
"2019-05-06 15:54:30.564 +0000",1557158070.564244,1.969532,1.207688,-2.401295,0.327318,-0.934797,0.137901,0.000000,0.000000,0.000000,-1,-3.112317,-0.912207,-1.306161,-0.594851,0.627852,0.308053
"2019-05-06 15:54:30.584 +0000",1557158070.584201,1.754076,1.194706,-2.197029,0.361136,-0.930108,0.066940,0.000000,0.000000,0.000000,-1,-3.839954,-1.975129,-2.128120,-0.200354,0.666619,0.585465
"2019-05-06 15:54:30.604 +0000",1557158070.604191,1.458496,1.149889,-1.942911,0.406015,-0.912719,-0.045788,0.000000,0.000000,0.000000,-1,-5.905514,-3.692122,-2.489202,0.272269,-0.160768,0.318402
"2019-05-06 15:54:30.624 +0000",1557158070.624148,1.157454,1.073680,-1.661000,0.436730,-0.878962,-0.191555,0.000000,0.000000,0.000000,-1,-7.644342,-0.035308,-1.142017,0.470130,-1.892340,0.150249
"2019-05-06 15:54:30.644 +0000",1557158070.644106,1.018243,1.001855,-1.444993,0.458569,-0.842472,-0.282765,0.000000,0.000000,0.000000,-1,-5.438886,3.086518,-0.556961,0.402820,-3.838391,-0.510402
"2019-05-06 15:54:30.664 +0000",1557158070.664095,0.945369,0.930225,-1.309769,0.484525,-0.801755,-0.349893,0.000000,0.000000,0.000000,-1,-5.008534,1.057593,-1.014263,0.197832,-1.236423,-0.943839
"2019-05-06 15:54:30.684 +0000",1557158070.684053,0.897921,0.856131,-1.210378,0.512517,-0.755313,-0.408447,0.000000,0.000000,0.000000,-1,-4.111366,1.009084,-0.785996,0.069957,-0.832013,-0.538986
"2019-05-06 15:54:30.704 +0000",1557158070.704011,0.871239,0.797354,-1.145097,0.534520,-0.715510,-0.449816,0.000000,0.000000,0.000000,-1,-2.995470,1.298474,-1.120790,0.765254,-0.278844,-0.120420
"2019-05-06 15:54:30.724 +0000",1557158070.724000,0.881322,0.744793,-1.126357,0.567288,-0.677820,-0.467702,0.000000,0.000000,0.000000,-1,-1.369442,0.065530,-1.571260,1.100254,0.046304,0.297292
"2019-05-06 15:54:30.744 +0000",1557158070.743958,0.860133,0.718489,-1.137203,0.570570,-0.658248,-0.491080,0.000000,0.000000,0.000000,-1,0.295976,-2.490766,-1.147033,0.509203,0.160674,0.074088
"2019-05-06 15:54:30.764 +0000",1557158070.763916,0.834041,0.717040,-1.175100,0.558270,-0.657156,-0.506439,0.000000,0.000000,0.000000,-1,1.608392,-2.488869,-0.787454,0.144412,0.718603,0.269104
"2019-05-06 15:54:30.784 +0000",1557158070.783874,0.802639,0.737145,-1.212478,0.532483,-0.672177,-0.514432,0.000000,0.000000,0.000000,-1,1.653541,-2.522567,0.466927,-0.346783,0.702435,0.135907
"2019-05-06 15:54:30.804 +0000",1557158070.803863,0.786975,0.767598,-1.225716,0.509622,-0.694409,-0.508017,0.000000,0.000000,0.000000,-1,1.069177,0.099988,0.836531,-0.787760,1.034817,0.720923
"2019-05-06 15:54:30.824 +0000",1557158070.823820,0.804717,0.789368,-1.228482,0.507539,-0.709908,-0.488298,0.000000,0.000000,0.000000,-1,0.790008,1.494451,0.451767,-0.909638,1.317208,0.951219
"2019-05-06 15:54:30.844 +0000",1557158070.843765,0.857035,0.803629,-1.248482,0.524673,-0.719880,-0.454414,0.000000,0.000000,0.000000,-1,1.295829,2.350724,-0.344581,-0.692855,1.073624,1.242668
"2019-05-06 15:54:30.864 +0000",1557158070.863753,0.943259,0.815515,-1.289705,0.554890,-0.728079,-0.402489,0.000000,0.000000,0.000000,-1,1.640716,3.178893,-0.547430,-0.685033,0.709585,1.073037
"2019-05-06 15:54:30.884 +0000",1557158070.883711,1.033145,0.821381,-1.333706,0.585101,-0.732087,-0.348862,0.000000,0.000000,0.000000,-1,0.725200,2.050597,-0.589612,-0.886264,0.748414,0.144882
"2019-05-06 15:54:30.904 +0000",1557158070.903669,1.058520,0.814017,-1.344015,0.598447,-0.727051,-0.336538,0.000000,0.000000,0.000000,-1,0.421026,0.899706,-0.409176,-0.946668,0.625199,-0.843074
"2019-05-06 15:54:30.924 +0000",1557158070.923658,1.090643,0.815482,-1.353365,0.608002,-0.728056,-0.316651,0.000000,0.000000,0.000000,-1,-0.678512,0.537675,0.499035,-0.639725,-0.202577,-0.107955
"2019-05-06 15:54:30.944 +0000",1557158070.943615,1.004673,0.820769,-1.278377,0.575311,-0.731670,-0.365617,0.000000,0.000000,0.000000,-1,-1.968436,-1.934874,2.372913,-0.386941,-1.161351,-1.043288
"2019-05-06 15:54:30.964 +0000",1557158070.963574,1.031347,0.876049,-1.250139,0.549279,-0.768215,-0.328843,0.000000,0.000000,0.000000,-1,2.451816,6.780850,3.244483,-0.329736,-1.426960,1.654603
"2019-05-06 15:54:30.984 +0000",1557158070.983562,1.184296,0.941796,-1.288528,0.544937,-0.808616,-0.221773,0.000000,0.000000,0.000000,-1,2.233525,3.097182,1.345987,0.662414,-1.242623,0.492403
"2019-05-06 15:54:31.004 +0000",1557158071.003520,1.198232,0.977087,-1.318257,0.521060,-0.828871,-0.203639,0.000000,0.000000,0.000000,-1,0.785590,-3.421309,1.731462,0.689252,-1.099077,-0.721929
"2019-05-06 15:54:31.023 +0000",1557158071.023478,1.119079,1.027819,-1.333451,0.464863,-0.856174,-0.225540,0.000000,0.000000,0.000000,-1,2.583606,-5.050459,2.642565,0.609523,0.012668,-0.250900
"2019-05-06 15:54:31.043 +0000",1557158071.043467,1.086387,1.122238,-1.415559,0.383774,-0.901073,-0.201953,0.000000,0.000000,0.000000,-1,4.993157,-4.745256,3.743897,0.774048,-0.167668,0.296725
"2019-05-06 15:54:31.063 +0000",1557158071.063424,1.280555,1.220588,-1.631128,0.328744,-0.939301,-0.098188,0.000000,0.000000,0.000000,-1,6.237031,4.853740,1.386231,1.478111,-0.564132,0.777387
"2019-05-06 15:54:31.083 +0000",1557158071.083383,1.718083,1.242047,-1.985919,0.319365,-0.946447,0.047381,0.000000,0.000000,0.000000,-1,5.125801,2.132185,0.959579,0.600985,-0.748286,-0.798007
"2019-05-06 15:54:31.103 +0000",1557158071.103340,1.988338,1.247542,-2.258903,0.290364,-0.948207,0.128813,0.000000,0.000000,0.000000,-1,3.259166,0.788610,1.371918,-1.154133,-1.149632,-1.261382
"2019-05-06 15:54:31.123 +0000",1557158071.123330,2.221250,1.241224,-2.459762,0.257555,-0.946181,0.195979,0.000000,0.000000,0.000000,-1,2.637376,3.514249,1.398413,0.250075,-0.704469,-0.937830
"2019-05-06 15:54:31.143 +0000",1557158071.143288,2.416836,1.233174,-2.588858,0.219599,-0.943545,0.247989,0.000000,0.000000,0.000000,-1,0.809526,2.911521,0.791935,0.164358,-0.204633,-0.604923
"2019-05-06 15:54:31.163 +0000",1557158071.163245,2.460490,1.241460,-2.617163,0.203638,-0.946257,0.251254,0.000000,0.000000,0.000000,-1,-0.170348,-0.249962,0.702332,-0.029886,1.137694,-0.960651
"2019-05-06 15:54:31.183 +0000",1557158071.183234,2.473774,1.258574,-2.649486,0.190225,-0.951653,0.241185,0.000000,0.000000,0.000000,-1,-0.556787,-2.059321,1.108036,0.044318,0.751778,0.130397
"2019-05-06 15:54:31.203 +0000",1557158071.203193,2.471773,1.270075,-2.699114,0.183900,-0.955123,0.232208,0.000000,0.000000,0.000000,-1,0.627110,-2.242737,0.528466,0.241576,0.459029,0.660461
"2019-05-06 15:54:31.223 +0000",1557158071.223152,2.463660,1.260825,-2.726437,0.191311,-0.952342,0.237580,0.000000,0.000000,0.000000,-1,0.321508,-1.423501,-0.308507,0.403537,1.070094,-0.034272
"2019-05-06 15:54:31.243 +0000",1557158071.243140,2.406462,1.260587,-2.694051,0.204732,-0.952270,0.226423,0.000000,0.000000,0.000000,-1,-1.033811,-1.008222,-0.402665,-0.241566,1.062942,-0.523130
"2019-05-06 15:54:31.263 +0000",1557158071.263097,2.294116,1.280549,-2.587073,0.214530,-0.958173,0.189421,0.000000,0.000000,0.000000,-1,-2.469041,-0.208387,-0.537292,-0.655708,0.816984,-0.490203
"2019-05-06 15:54:31.283 +0000",1557158071.283057,2.102006,1.302480,-2.394027,0.228576,-0.964219,0.134298,0.000000,0.000000,0.000000,-1,-3.044080,-0.572949,-0.783117,-0.726378,0.778870,-0.248541
"2019-05-06 15:54:31.303 +0000",1557158071.303044,1.821817,1.307876,-2.132047,0.251756,-0.965635,0.064558,0.000000,0.000000,0.000000,-1,-3.521818,-2.201483,-1.520949,-0.271394,0.781629,0.314181
"2019-05-06 15:54:31.323 +0000",1557158071.323002,1.461963,1.275086,-1.810892,0.289695,-0.956595,-0.031653,0.000000,0.000000,0.000000,-1,-5.372064,-2.568380,-2.543669,0.102898,0.409247,0.235068
"2019-05-06 15:54:31.343 +0000",1557158071.342959,1.146822,1.196989,-1.514617,0.332831,-0.930944,-0.150223,0.000000,0.000000,0.000000,-1,-5.717171,-0.544495,-2.152464,0.572762,-0.479701,0.566757
"2019-05-06 15:54:31.363 +0000",1557158071.362948,1.010835,1.118827,-1.312911,0.370038,-0.899589,-0.231975,0.000000,0.000000,0.000000,-1,-5.418472,4.677743,-0.658282,0.314502,-2.745660,0.958965
"2019-05-06 15:54:31.383 +0000",1557158071.382906,0.910186,1.048945,-1.138034,0.393614,-0.866898,-0.305870,0.000000,0.000000,0.000000,-1,-5.150034,0.392250,-0.872183,-0.052687,-3.899765,-1.324913
"2019-05-06 15:54:31.403 +0000",1557158071.402864,0.846246,0.966028,-1.042149,0.425745,-0.822634,-0.376849,0.000000,0.000000,0.000000,-1,-3.723877,1.199513,-2.145922,-0.280420,-1.089460,-0.732145
"2019-05-06 15:54:31.423 +0000",1557158071.422853,0.846358,0.887859,-1.010081,0.472594,-0.775723,-0.418222,0.000000,0.000000,0.000000,-1,-3.250844,0.987239,-2.324015,0.760911,-0.145100,-0.394461
"2019-05-06 15:54:31.443 +0000",1557158071.442812,0.842823,0.808871,-0.978786,0.515337,-0.723508,-0.459307,0.000000,0.000000,0.000000,-1,-3.333521,0.834204,-2.073127,0.925825,-0.067034,0.379260
"2019-05-06 15:54:31.463 +0000",1557158071.462769,0.826456,0.749127,-0.956879,0.538620,-0.681000,-0.496113,0.000000,0.000000,0.000000,-1,-1.667124,-0.328565,-1.279885,0.712616,0.407730,0.558277
"2019-05-06 15:54:31.483 +0000",1557158071.482727,0.818817,0.725785,-0.963482,0.546278,-0.663723,-0.510934,0.000000,0.000000,0.000000,-1,0.451879,-1.085315,-0.872484,0.383593,0.679988,0.538628
"2019-05-06 15:54:31.503 +0000",1557158071.502716,0.814483,0.733930,-0.999854,0.540108,-0.669793,-0.509569,0.000000,0.000000,0.000000,-1,1.818506,-1.550407,-0.303492,-0.230049,0.608056,0.300203
"2019-05-06 15:54:31.523 +0000",1557158071.522673,0.811020,0.760197,-1.030136,0.525401,-0.689064,-0.499144,0.000000,0.000000,0.000000,-1,1.466687,-0.761814,0.730648,-0.817606,0.570030,0.319945
"2019-05-06 15:54:31.543 +0000",1557158071.542633,0.813950,0.795189,-1.043469,0.509012,-0.713996,-0.480745,0.000000,0.000000,0.000000,-1,1.865155,0.166539,0.944872,-0.817774,0.931693,0.646593
"2019-05-06 15:54:31.563 +0000",1557158071.562621,0.849683,0.836835,-1.072855,0.503079,-0.742527,-0.442227,0.000000,0.000000,0.000000,-1,2.378895,1.409142,0.821115,-0.502179,0.847706,0.939496
"2019-05-06 15:54:31.583 +0000",1557158071.582579,0.922729,0.881616,-1.110523,0.506976,-0.771767,-0.383862,0.000000,0.000000,0.000000,-1,2.212464,2.982018,0.913382,-0.611255,0.645394,1.030316
"2019-05-06 15:54:31.603 +0000",1557158071.602537,0.983258,0.905924,-1.130465,0.513499,-0.786995,-0.341989,0.000000,0.000000,0.000000,-1,-0.339316,0.330861,0.217126,-0.912334,0.816887,-0.022498
"2019-05-06 15:54:31.623 +0000",1557158071.622526,0.943128,0.885888,-1.107702,0.512028,-0.774477,-0.371501,0.000000,0.000000,0.000000,-1,-0.678563,-0.725764,-1.044515,-0.915470,0.596209,-0.668141
"2019-05-06 15:54:31.642 +0000",1557158071.642483,1.011540,0.878549,-1.149424,0.541028,-0.769814,-0.338637,0.000000,0.000000,0.000000,-1,1.819661,3.508522,-0.916787,-0.476957,0.243858,0.596282
"2019-05-06 15:54:31.662 +0000",1557158071.662441,1.087871,0.881379,-1.180668,0.563345,-0.771617,-0.295381,0.000000,0.000000,0.000000,-1,-0.207345,1.260146,0.329897,-0.479239,0.154109,-0.110228
"2019-05-06 15:54:31.682 +0000",1557158071.682430,1.055651,0.896607,-1.139092,0.543247,-0.781213,-0.307551,0.000000,0.000000,0.000000,-1,0.062056,0.242976,2.460030,-0.339573,-0.558279,-0.376180
"2019-05-06 15:54:31.702 +0000",1557158071.702387,1.140514,0.974452,-1.154086,0.510429,-0.827394,-0.234268,0.000000,0.000000,0.000000,-1,3.008022,6.205883,3.293279,-1.269538,-2.423537,1.379425
"2019-05-06 15:54:31.722 +0000",1557158071.722346,1.249795,1.027794,-1.219588,0.490315,-0.856161,-0.163030,0.000000,0.000000,0.000000,-1,1.783440,-0.401698,0.075704,0.557231,-2.026163,-0.933665
"2019-05-06 15:54:31.742 +0000",1557158071.742335,1.242143,1.036685,-1.268243,0.481829,-0.860722,-0.164314,0.000000,0.000000,0.000000,-1,1.077968,-3.958163,0.662751,0.955335,-0.260983,-0.755715
"2019-05-06 15:54:31.762 +0000",1557158071.762292,1.162693,1.077904,-1.284916,0.434316,-0.880968,-0.187789,0.000000,0.000000,0.000000,-1,1.762024,-5.657885,2.862355,0.799327,0.360491,-0.195726
"2019-05-06 15:54:31.782 +0000",1557158071.782251,1.174996,1.162499,-1.396819,0.366351,-0.917798,-0.153080,0.000000,0.000000,0.000000,-1,5.927321,-0.817111,2.085851,1.442960,-0.677096,0.812977
"2019-05-06 15:54:31.802 +0000",1557158071.802240,1.557299,1.204219,-1.738848,0.358390,-0.933559,-0.004838,0.000000,0.000000,0.000000,-1,7.269124,5.021959,0.008260,1.337929,-0.441563,0.572327
"2019-05-06 15:54:31.822 +0000",1557158071.822198,1.914583,1.207448,-2.077198,0.334609,-0.934712,0.119791,0.000000,0.000000,0.000000,-1,4.547959,-0.030735,1.852994,-0.893508,-1.121516,-1.813029
"2019-05-06 15:54:31.842 +0000",1557158071.842146,2.149269,1.197450,-2.311482,0.305390,-0.931112,0.199416,0.000000,0.000000,0.000000,-1,3.672407,1.798099,0.921523,0.331023,-0.506846,-0.463927
"2019-05-06 15:54:31.862 +0000",1557158071.862102,2.334501,1.166766,-2.475710,0.283947,-0.919484,0.271888,0.000000,0.000000,0.000000,-1,3.105259,0.936821,0.588034,1.088138,-0.168956,-0.555564
"2019-05-06 15:54:31.882 +0000",1557158071.882090,2.425446,1.128720,-2.566523,0.280855,-0.903865,0.322720,0.000000,0.000000,0.000000,-1,2.191654,-0.209342,-0.499769,0.436446,0.316753,-0.414044
"2019-05-06 15:54:31.902 +0000",1557158071.902049,2.439996,1.101766,-2.608684,0.291752,-0.892007,0.345260,0.000000,0.000000,0.000000,-1,1.083657,-1.774993,0.596818,-0.788960,0.514550,-0.674072
"2019-05-06 15:54:31.922 +0000",1557158071.922007,2.445132,1.106472,-2.666076,0.287279,-0.894125,0.343529,0.000000,0.000000,0.000000,-1,0.289573,-2.854991,1.149050,-0.898301,0.663839,-0.360100
"2019-05-06 15:54:31.942 +0000",1557158071.941995,2.433986,1.109432,-2.710245,0.289368,-0.895446,0.338294,0.000000,0.000000,0.000000,-1,0.869985,-1.934145,0.481387,0.028228,0.880081,0.173974
"2019-05-06 15:54:31.962 +0000",1557158071.961954,2.420885,1.095092,-2.725804,0.302218,-0.888971,0.344087,0.000000,0.000000,0.000000,-1,0.319647,-0.889583,-0.904844,0.082700,1.022256,-0.173005
"2019-05-06 15:54:31.982 +0000",1557158071.981911,2.356284,1.088210,-2.661224,0.328119,-0.885798,0.328178,0.000000,0.000000,0.000000,-1,-1.869937,0.177890,-1.598505,-0.096674,0.897287,-0.776267
"2019-05-06 15:54:32.002 +0000",1557158072.001900,2.247634,1.098215,-2.533029,0.354843,-0.890396,0.285097,0.000000,0.000000,0.000000,-1,-2.919477,0.102827,-1.518072,-0.595078,0.530365,-0.663698
"2019-05-06 15:54:32.022 +0000",1557158072.021858,2.111747,1.110848,-2.388844,0.380521,-0.896075,0.228587,0.000000,0.000000,0.000000,-1,-3.128110,-0.688420,-1.258832,-1.115369,0.065295,-0.240169
"2019-05-06 15:54:32.042 +0000",1557158072.041816,1.957637,1.122629,-2.226952,0.401295,-0.901243,0.163474,0.000000,0.000000,0.000000,-1,-3.707238,-0.072153,-0.899848,-1.270710,0.044675,0.050164
"2019-05-06 15:54:32.062 +0000",1557158072.061804,1.789058,1.128717,-2.041562,0.417670,-0.903864,0.092637,0.000000,0.000000,0.000000,-1,-4.337548,-0.229322,-0.945471,-0.322883,0.300562,0.664412
"2019-05-06 15:54:32.082 +0000",1557158072.081764,1.563608,1.114620,-1.807074,0.440507,-0.897744,-0.003167,0.000000,0.000000,0.000000,-1,-5.288136,-1.740651,-1.477583,0.456725,-0.171318,0.337227
"2019-05-06 15:54:32.102 +0000",1557158072.101722,1.316581,1.062594,-1.579000,0.470968,-0.873621,-0.122375,0.000000,0.000000,0.000000,-1,-6.178833,-1.469479,-2.442351,1.189554,-1.522253,0.317092
"2019-05-06 15:54:32.122 +0000",1557158072.121709,1.155305,0.977250,-1.380850,0.511718,-0.828962,-0.225757,0.000000,0.000000,0.000000,-1,-6.044108,2.033321,-1.605561,1.066392,-4.708727,-0.731869
"2019-05-06 15:54:32.142 +0000",1557158072.141668,1.076673,0.900754,-1.211724,0.546736,-0.783796,-0.294524,0.000000,0.000000,0.000000,-1,-6.178195,2.944025,-1.133561,-0.549711,-1.973437,-0.902604
"2019-05-06 15:54:32.162 +0000",1557158072.161625,1.015737,0.824004,-1.083221,0.577306,-0.733872,-0.357980,0.000000,0.000000,0.000000,-1,-4.838995,0.635374,-1.031683,-0.715261,-0.811752,-0.663473
"2019-05-06 15:54:32.182 +0000",1557158072.181583,0.952715,0.768687,-0.996620,0.585835,-0.695192,-0.416539,0.000000,0.000000,0.000000,-1,-3.304985,-0.383790,-0.515752,0.515330,-0.343336,-0.332744
"2019-05-06 15:54:32.202 +0000",1557158072.201573,0.919488,0.727839,-0.955712,0.593775,-0.665258,-0.452618,0.000000,0.000000,0.000000,-1,-1.529235,-0.480408,-0.853732,0.989095,-0.237330,0.311123
"2019-05-06 15:54:32.222 +0000",1557158072.221531,0.898625,0.708289,-0.948335,0.594268,-0.650536,-0.472916,0.000000,0.000000,0.000000,-1,-0.161696,-0.929461,-0.431266,0.510743,0.244957,0.168976
"2019-05-06 15:54:32.241 +0000",1557158072.241489,0.887396,0.708675,-0.965636,0.588726,-0.650828,-0.479400,0.000000,0.000000,0.000000,-1,1.148425,-1.530358,-0.294047,-0.052166,0.623835,0.177368
"2019-05-06 15:54:32.261 +0000",1557158072.261478,0.867487,0.728068,-0.991722,0.569331,-0.665429,-0.482770,0.000000,0.000000,0.000000,-1,1.412321,-1.810671,0.629003,-0.703028,0.665032,0.289152
"2019-05-06 15:54:32.281 +0000",1557158072.281437,0.882723,0.761786,-0.992970,0.558963,-0.690215,-0.459525,0.000000,0.000000,0.000000,-1,0.597924,1.806436,1.461165,-1.508396,0.471480,1.319419
"2019-05-06 15:54:32.301 +0000",1557158072.301395,0.877179,0.788577,-0.987746,0.541990,-0.709351,-0.450630,0.000000,0.000000,0.000000,-1,0.956049,-1.177403,1.157033,-0.888685,1.416901,0.345940
"2019-05-06 15:54:32.321 +0000",1557158072.321383,0.858555,0.825089,-0.989357,0.513549,-0.734608,-0.443416,0.000000,0.000000,0.000000,-1,1.496005,-0.597975,1.427056,-0.434127,0.930730,1.005672
"2019-05-06 15:54:32.341 +0000",1557158072.341340,0.886133,0.862874,-1.010954,0.503710,-0.759714,-0.411231,0.000000,0.000000,0.000000,-1,2.064752,2.166804,0.314879,-0.168001,0.859736,1.269843
"2019-05-06 15:54:32.361 +0000",1557158072.361299,1.000139,0.886075,-1.065913,0.532242,-0.774595,-0.341644,0.000000,0.000000,0.000000,-1,1.548164,4.242651,-0.148302,-0.530090,1.123610,0.639892
"2019-05-06 15:54:32.381 +0000",1557158072.381288,1.045915,0.877860,-1.055943,0.552806,-0.769374,-0.320109,0.000000,0.000000,0.000000,-1,-1.483101,2.598183,-0.572902,-0.539042,0.975276,-1.858404
"2019-05-06 15:54:32.401 +0000",1557158072.401246,1.118913,0.861506,-1.043596,0.585923,-0.758824,-0.284395,0.000000,0.000000,0.000000,-1,0.174500,4.952411,-0.068002,-0.246430,0.086888,0.001192
"2019-05-06 15:54:32.421 +0000",1557158072.421204,1.188283,0.873104,-1.032015,0.596020,-0.766327,-0.239797,0.000000,0.000000,0.000000,-1,-0.642438,2.439059,1.310012,-0.404370,0.197983,0.413884
"2019-05-06 15:54:32.441 +0000",1557158072.441193,1.131768,0.902196,-0.977839,0.561101,-0.784690,-0.263490,0.000000,0.000000,0.000000,-1,-0.405581,-2.979085,3.126934,-0.497075,-0.307824,-0.925810
"2019-05-06 15:54:32.461 +0000",1557158072.461150,1.121107,0.990593,-0.946910,0.493694,-0.836351,-0.238292,0.000000,0.000000,0.000000,-1,1.643038,5.086028,4.785123,-1.751003,-2.961988,1.106349
"2019-05-06 15:54:32.481 +0000",1557158072.481109,1.222258,1.061840,-0.961103,0.457968,-0.873254,-0.166413,0.000000,0.000000,0.000000,-1,1.297231,2.901983,1.128501,0.100092,-2.189521,-0.092391
"2019-05-06 15:54:32.501 +0000",1557158072.501097,1.242660,1.079906,-0.977010,0.446259,-0.881913,-0.151926,0.000000,0.000000,0.000000,-1,0.547897,-2.539335,1.240808,0.670196,-0.391112,-0.445883
"2019-05-06 15:54:32.521 +0000",1557158072.521055,1.199217,1.139702,-1.018054,0.389348,-0.908509,-0.151721,0.000000,0.000000,0.000000,-1,3.870203,-4.335878,2.888843,1.184993,-0.335097,0.200061
"2019-05-06 15:54:32.541 +0000",1557158072.541014,1.360692,1.200942,-1.225602,0.353531,-0.932380,-0.075391,0.000000,0.000000,0.000000,-1,4.841823,2.620438,0.435689,1.899140,-0.355782,0.372953
"2019-05-06 15:54:32.561 +0000",1557158072.560971,1.703443,1.208869,-1.483070,0.350967,-0.935216,0.046830,0.000000,0.000000,0.000000,-1,3.894490,4.531743,0.919769,0.892319,-0.614665,0.055267
"2019-05-06 15:54:32.581 +0000",1557158072.580959,1.918649,1.225318,-1.701359,0.318364,-0.940914,0.115438,0.000000,0.000000,0.000000,-1,3.448280,-1.181235,1.622124,-1.439687,-1.175343,-1.942083
"2019-05-06 15:54:32.601 +0000",1557158072.600918,2.136553,1.216115,-1.922957,0.293178,-0.937757,0.186168,0.000000,0.000000,0.000000,-1,3.469820,2.515967,1.093740,0.016911,-0.625994,-0.910029
"2019-05-06 15:54:32.621 +0000",1557158072.620874,2.342603,1.194985,-2.085023,0.263031,-0.930210,0.255976,0.000000,0.000000,0.000000,-1,2.313069,1.925717,0.777123,0.485550,-0.332577,-0.321192
"2019-05-06 15:54:32.641 +0000",1557158072.640863,2.427848,1.177780,-2.171648,0.250723,-0.923758,0.289498,0.000000,0.000000,0.000000,-1,1.194023,-0.941357,0.411536,0.579325,0.334479,-0.829094
"2019-05-06 15:54:32.661 +0000",1557158072.660822,2.436442,1.172655,-2.207889,0.251291,-0.921783,0.295244,0.000000,0.000000,0.000000,-1,0.044742,-1.472160,0.409739,0.139685,0.999038,-0.546541
"2019-05-06 15:54:32.681 +0000",1557158072.680779,2.411799,1.179845,-2.223305,0.254064,-0.924547,0.284014,0.000000,0.000000,0.000000,-1,0.090503,-2.380922,0.343583,-0.145666,0.908739,0.597593
"2019-05-06 15:54:32.701 +0000",1557158072.700767,2.372968,1.181466,-2.227628,0.263857,-0.925163,0.272860,0.000000,0.000000,0.000000,-1,-0.413129,-1.818071,-0.061924,0.220518,0.994301,-0.017642
"2019-05-06 15:54:32.721 +0000",1557158072.720725,2.292742,1.196506,-2.170184,0.274399,-0.930767,0.241613,0.000000,0.000000,0.000000,-1,-2.180150,-0.902848,-0.206275,-0.134324,0.754452,-0.543173
"2019-05-06 15:54:32.741 +0000",1557158072.740684,2.153746,1.228152,-2.038169,0.280490,-0.941869,0.184953,0.000000,0.000000,0.000000,-1,-3.252000,-0.769733,-0.246179,-0.529452,0.599630,-0.429261
"2019-05-06 15:54:32.761 +0000",1557158072.760673,1.949359,1.253694,-1.841022,0.289737,-0.950143,0.115242,0.000000,0.000000,0.000000,-1,-3.470943,-0.941012,-0.541578,-0.604908,0.601739,-0.107597
"2019-05-06 15:54:32.781 +0000",1557158072.780631,1.710047,1.256116,-1.621176,0.306516,-0.950895,0.042961,0.000000,0.000000,0.000000,-1,-3.231044,-2.259523,-1.168728,-0.329252,0.468046,0.454323
"2019-05-06 15:54:32.801 +0000",1557158072.800589,1.415523,1.220398,-1.367235,0.339142,-0.939236,-0.053087,0.000000,0.000000,0.000000,-1,-5.383367,-2.964319,-2.454666,0.024230,0.199826,0.226152
"2019-05-06 15:54:32.821 +0000",1557158072.820578,1.129932,1.126780,-1.108223,0.388495,-0.903034,-0.183307,0.000000,0.000000,0.000000,-1,-6.583075,-1.126443,-3.167174,0.277612,-0.480221,0.207049
"2019-05-06 15:54:32.841 +0000",1557158072.840533,0.987452,1.022633,-0.923937,0.434940,-0.853483,-0.287043,0.000000,0.000000,0.000000,-1,-6.056736,2.999029,-0.988036,-0.151554,-2.566317,0.221995
"2019-05-06 15:54:32.860 +0000",1557158072.860492,0.921198,0.948669,-0.764854,0.464071,-0.812641,-0.352495,0.000000,0.000000,0.000000,-1,-5.651129,2.696603,-0.778285,-0.445685,-3.167157,-0.544066
"2019-05-06 15:54:32.880 +0000",1557158072.880450,0.877598,0.861992,-0.667183,0.500697,-0.759141,-0.415943,0.000000,0.000000,0.000000,-1,-3.850715,0.005791,-1.720097,-0.543284,-0.893539,-0.677090
"2019-05-06 15:54:32.900 +0000",1557158072.900438,0.823876,0.808084,-0.623701,0.506961,-0.722965,-0.469375,0.000000,0.000000,0.000000,-1,-2.302009,-1.583280,-0.398966,0.238782,-0.264554,-0.468430
"2019-05-06 15:54:32.920 +0000",1557158072.920396,0.768059,0.772885,-0.591381,0.497364,-0.698203,-0.514918,0.000000,0.000000,0.000000,-1,-1.853256,-1.040946,-0.598140,1.007748,-0.230553,0.008693
"2019-05-06 15:54:32.940 +0000",1557158072.940354,0.761557,0.745722,-0.571458,0.506909,-0.678503,-0.531674,0.000000,0.000000,0.000000,-1,-0.859532,1.200828,-0.291303,0.718937,-0.295283,0.362912
"2019-05-06 15:54:32.960 +0000",1557158072.960342,0.780394,0.740723,-0.575460,0.519213,-0.674821,-0.524436,0.000000,0.000000,0.000000,-1,0.562506,0.257279,-0.214267,0.364743,0.235185,0.129966
"2019-05-06 15:54:32.980 +0000",1557158072.980301,0.789952,0.750476,-0.596079,0.519502,-0.681987,-0.514792,0.000000,0.000000,0.000000,-1,1.029828,-0.571105,-0.128615,0.004286,0.532222,0.259497
"2019-05-06 15:54:33.000 +0000",1557158073.000259,0.792611,0.765176,-0.610067,0.513673,-0.692664,-0.506316,0.000000,0.000000,0.000000,-1,0.724334,0.222421,0.518679,-0.428545,0.777716,0.579101
"2019-05-06 15:54:33.020 +0000",1557158073.020247,0.808670,0.787553,-0.612509,0.510396,-0.708629,-0.487177,0.000000,0.000000,0.000000,-1,1.252537,1.193730,0.775066,-0.742482,1.128749,0.642145
"2019-05-06 15:54:33.040 +0000",1557158073.040205,0.861675,0.824498,-0.639602,0.515260,-0.734207,-0.442094,0.000000,0.000000,0.000000,-1,2.585069,2.060084,0.829893,-0.675584,0.909134,1.058152
"2019-05-06 15:54:33.060 +0000",1557158073.060164,0.943832,0.877305,-0.682766,0.517653,-0.769019,-0.375027,0.000000,0.000000,0.000000,-1,2.704709,3.179002,1.366016,-0.794127,0.764334,1.000408
"2019-05-06 15:54:33.080 +0000",1557158073.080152,1.032069,0.922662,-0.716028,0.518194,-0.797211,-0.309725,0.000000,0.000000,0.000000,-1,0.792806,2.128784,1.193735,-0.905615,0.861710,0.262545
"2019-05-06 15:54:33.100 +0000",1557158073.100111,1.009504,0.928594,-0.677425,0.507061,-0.800778,-0.318815,0.000000,0.000000,0.000000,-1,-1.396015,-0.286744,0.257493,-0.896709,0.888699,-0.923845
"2019-05-06 15:54:33.120 +0000",1557158073.120068,1.015109,0.915373,-0.664207,0.517789,-0.792790,-0.321525,0.000000,0.000000,0.000000,-1,0.129600,2.357547,-0.851909,-0.192792,-0.114055,-0.148842
"2019-05-06 15:54:33.140 +0000",1557158073.140056,1.101150,0.900973,-0.697693,0.553628,-0.783931,-0.280978,0.000000,0.000000,0.000000,-1,0.658062,2.863391,-1.312249,0.007697,0.108364,0.497912
"2019-05-06 15:54:33.160 +0000",1557158073.160015,1.146861,0.886653,-0.718009,0.576062,-0.774961,-0.259978,0.000000,0.000000,0.000000,-1,-0.158441,-0.234249,-0.425608,-0.232174,0.163297,0.074827
"2019-05-06 15:54:33.180 +0000",1557158073.179973,1.147752,0.901195,-0.736619,0.565957,-0.784069,-0.254810,0.000000,0.000000,0.000000,-1,2.193589,-0.102454,1.423343,-0.385613,-0.463505,0.349781
"2019-05-06 15:54:33.200 +0000",1557158073.199961,1.222257,0.962271,-0.786063,0.537286,-0.820492,-0.195235,0.000000,0.000000,0.000000,-1,1.492885,2.976589,2.503716,-0.794259,-1.959736,1.263518
"2019-05-06 15:54:33.220 +0000",1557158073.219919,1.226306,0.984678,-0.754526,0.520634,-0.833094,-0.186802,0.000000,0.000000,0.000000,-1,-0.779596,-0.087829,0.256238,0.623348,-1.489477,-1.769497
"2019-05-06 15:54:33.240 +0000",1557158073.239877,1.194324,0.997863,-0.750916,0.504135,-0.840314,-0.199299,0.000000,0.000000,0.000000,-1,0.483228,-3.011079,1.671625,-0.247314,0.054838,-0.197979
"2019-05-06 15:54:33.260 +0000",1557158073.259835,1.109647,1.062735,-0.740438,0.435667,-0.873689,-0.216474,0.000000,0.000000,0.000000,-1,2.355627,-3.795757,3.861228,-0.095655,0.307176,0.364256
"2019-05-06 15:54:33.280 +0000",1557158073.279825,1.181365,1.166794,-0.843891,0.363668,-0.919495,-0.149246,0.000000,0.000000,0.000000,-1,5.146858,3.118894,3.240005,0.754923,-0.762481,0.839233
"2019-05-06 15:54:33.300 +0000",1557158073.299782,1.478979,1.228624,-1.054283,0.334121,-0.942028,-0.030765,0.000000,0.000000,0.000000,-1,3.518309,4.765199,1.052507,0.887223,-1.346974,-0.749204
"2019-05-06 15:54:33.320 +0000",1557158073.319741,1.698230,1.247217,-1.234355,0.315383,-0.948103,0.040409,0.000000,0.000000,0.000000,-1,2.887333,1.303247,1.271668,0.049225,-1.215822,-1.176380
"2019-05-06 15:54:33.340 +0000",1557158073.339729,1.963294,1.254134,-1.467707,0.287717,-0.950280,0.119108,0.000000,0.000000,0.000000,-1,3.817654,2.642120,1.116353,0.737719,-0.537025,-0.771254
"2019-05-06 15:54:33.360 +0000",1557158073.359686,2.214245,1.237966,-1.689884,0.261386,-0.945122,0.196018,0.000000,0.000000,0.000000,-1,3.002238,1.468375,0.994260,0.701810,-0.242821,-0.624424
"2019-05-06 15:54:33.380 +0000",1557158073.379644,2.383061,1.210360,-1.841823,0.242595,-0.935743,0.255994,0.000000,0.000000,0.000000,-1,2.782526,1.084348,0.381965,0.735295,0.047132,-0.786969
"2019-05-06 15:54:33.400 +0000",1557158073.399633,2.466379,1.182224,-1.928470,0.236816,-0.925451,0.295734,0.000000,0.000000,0.000000,-1,1.184768,-0.979705,0.372474,0.480759,0.671407,-0.630527
"2019-05-06 15:54:33.420 +0000",1557158073.419591,2.481606,1.179932,-1.986495,0.233586,-0.924580,0.300980,0.000000,0.000000,0.000000,-1,0.784192,-2.809229,1.188986,-0.045643,0.957387,-0.185746
"2019-05-06 15:54:33.440 +0000",1557158073.439550,2.485916,1.177581,-2.063901,0.233611,-0.923682,0.303706,0.000000,0.000000,0.000000,-1,1.034979,-3.620115,0.821641,-0.391280,1.114951,0.236699
"2019-05-06 15:54:33.460 +0000",1557158073.459538,2.442080,1.173880,-2.085705,0.248895,-0.922258,0.295791,0.000000,0.000000,0.000000,-1,-0.516836,-2.342580,-0.458091,-0.215951,1.292833,-0.395553
"2019-05-06 15:54:33.479 +0000",1557158073.479496,2.358163,1.187524,-2.012465,0.263907,-0.927446,0.264948,0.000000,0.000000,0.000000,-1,-2.233159,0.471652,-0.408086,-0.705527,0.313066,-0.466822
"2019-05-06 15:54:33.499 +0000",1557158073.499455,2.256234,1.219132,-1.889024,0.266661,-0.938801,0.218048,0.000000,0.000000,0.000000,-1,-3.061604,0.533821,-0.470143,-0.984938,0.357136,-0.293762
"2019-05-06 15:54:33.519 +0000",1557158073.519443,2.095498,1.239180,-1.715450,0.281774,-0.945517,0.163097,0.000000,0.000000,0.000000,-1,-2.887839,-0.156550,-1.193191,-0.627965,0.573111,0.439106
"2019-05-06 15:54:33.539 +0000",1557158073.539402,1.873920,1.240945,-1.488910,0.309135,-0.946090,0.096686,0.000000,0.000000,0.000000,-1,-4.021188,-0.677017,-1.981722,-0.041725,0.167419,0.432153
"2019-05-06 15:54:33.559 +0000",1557158073.559359,1.579870,1.201371,-1.190217,0.361065,-0.932535,0.003276,0.000000,0.000000,0.000000,-1,-5.619353,0.019657,-3.078628,0.287403,-0.522482,0.425633
"2019-05-06 15:54:33.579 +0000",1557158073.579317,1.318331,1.136790,-0.879474,0.407179,-0.907288,-0.105040,0.000000,0.000000,0.000000,-1,-6.918427,2.635239,-1.280957,-0.090177,-3.039779,0.174788
"2019-05-06 15:54:33.599 +0000",1557158073.599305,1.135082,1.077472,-0.593949,0.429311,-0.880763,-0.199868,0.000000,0.000000,0.000000,-1,-6.930568,3.463005,-0.553514,-0.822195,-2.958378,-0.042487
"2019-05-06 15:54:33.619 +0000",1557158073.619264,1.008279,0.997966,-0.395570,0.458497,-0.840370,-0.289065,0.000000,0.000000,0.000000,-1,-5.476476,1.572392,-1.375066,-0.814668,-0.847145,-0.739377
"2019-05-06 15:54:33.639 +0000",1557158073.639221,0.951010,0.928505,-0.280665,0.487613,-0.800725,-0.347954,0.000000,0.000000,0.000000,-1,-4.205896,2.369606,-0.876927,-0.165790,-0.511317,-0.445716
"2019-05-06 15:54:33.659 +0000",1557158073.659210,0.931766,0.859877,-0.199076,0.523769,-0.757762,-0.389181,0.000000,0.000000,0.000000,-1,-4.005856,1.918804,-1.821794,0.567600,-0.150502,-0.002146
"2019-05-06 15:54:33.679 +0000",1557158073.679168,0.920536,0.778527,-0.147415,0.566659,-0.702231,-0.431009,0.000000,0.000000,0.000000,-1,-3.488405,0.607803,-2.434872,0.818458,-0.293359,0.285318
"2019-05-06 15:54:33.699 +0000",1557158073.699126,0.905529,0.712930,-0.123637,0.595137,-0.654053,-0.466933,0.000000,0.000000,0.000000,-1,-1.773700,-0.116164,-1.418040,0.778322,-0.264190,0.291197
"2019-05-06 15:54:33.719 +0000",1557158073.719115,0.898768,0.691526,-0.119776,0.602786,-0.637713,-0.479553,0.000000,0.000000,0.000000,-1,0.199660,-0.415730,-0.207297,0.459745,0.498385,0.158157
"2019-05-06 15:54:33.739 +0000",1557158073.739073,0.894936,0.702433,-0.136789,0.595482,-0.646076,-0.477479,0.000000,0.000000,0.000000,-1,1.321088,-1.120960,0.215424,-0.226799,0.669361,0.197069
"2019-05-06 15:54:33.759 +0000",1557158073.759031,0.887104,0.729290,-0.155635,0.578060,-0.666341,-0.470995,0.000000,0.000000,0.000000,-1,1.344415,-0.416854,1.043912,-0.652813,0.733464,0.320925
"2019-05-06 15:54:33.779 +0000",1557158073.779019,0.897548,0.767648,-0.156471,0.562541,-0.694445,-0.448658,0.000000,0.000000,0.000000,-1,1.346135,1.343344,1.665118,-0.931133,1.089785,0.600681
"2019-05-06 15:54:33.799 +0000",1557158073.798978,0.949477,0.812200,-0.174366,0.559342,-0.725802,-0.400435,0.000000,0.000000,0.000000,-1,2.413127,2.383437,1.081810,-0.599579,0.983096,1.041929
"2019-05-06 15:54:33.819 +0000",1557158073.818936,1.042910,0.860034,-0.226587,0.563602,-0.757864,-0.328625,0.000000,0.000000,0.000000,-1,2.884215,3.273013,1.066650,-0.577411,0.885108,0.997601
"2019-05-06 15:54:33.839 +0000",1557158073.838919,1.158762,0.905791,-0.283434,0.565420,-0.786913,-0.247118,0.000000,0.000000,0.000000,-1,2.387915,3.642028,1.319692,-0.630026,0.821032,0.607027
"2019-05-06 15:54:33.859 +0000",1557158073.858878,1.205720,0.933827,-0.298190,0.555565,-0.803902,-0.212342,0.000000,0.000000,0.000000,-1,-1.053905,-1.349392,0.363824,-0.609093,0.981652,-0.986312
"2019-05-06 15:54:33.879 +0000",1557158073.878834,1.164000,0.916541,-0.283030,0.558905,-0.793501,-0.240792,0.000000,0.000000,0.000000,-1,0.047959,0.578485,-1.186595,-0.298483,0.103010,-1.097373
"2019-05-06 15:54:33.899 +0000",1557158073.898823,1.220264,0.895848,-0.293362,0.586859,-0.780739,-0.214575,0.000000,0.000000,0.000000,-1,-0.514552,3.235060,-0.934279,-0.494528,0.358910,0.422643
"2019-05-06 15:54:33.919 +0000",1557158073.918782,1.247105,0.885399,-0.275311,0.600109,-0.774167,-0.201331,0.000000,0.000000,0.000000,-1,-0.504599,0.249317,0.623631,-0.593349,-0.392184,-0.358880
"2019-05-06 15:54:33.939 +0000",1557158073.938739,1.286831,0.926950,-0.293585,0.576236,-0.799793,-0.168176,0.000000,0.000000,0.000000,-1,2.420794,3.384288,2.550073,-0.982028,-2.070568,1.416925
