timestamp,timeIntervalSince1970,attitude.roll,attitude.pitch,attitude.yaw,gravity.x,gravity.y,gravity.z,magneticField.x,magneticField.y,magneticField.z,magneticField.accuracy,rotationRate.x,rotationRate.y,rotationRate.z,userAcceleration.x,userAcceleration.y,userAcceleration.z
"2019-10-08 15:46:37.864 +0000",1570549597.864391,0.132418,0.421794,-0.056622,0.120460,-0.409398,-0.904369,0.000000,0.000000,0.000000,-1,0.264414,-0.713182,-0.124286,-0.068946,0.015507,-0.083165
"2019-10-08 15:46:37.885 +0000",1570549597.884527,0.117601,0.425405,-0.058383,0.106872,-0.412689,-0.904580,0.000000,0.000000,0.000000,-1,0.020039,-0.918845,-0.001350,0.007843,-0.024383,0.015359
"2019-10-08 15:46:37.905 +0000",1570549597.904662,0.092470,0.420187,-0.056159,0.084306,-0.407932,-0.909112,0.000000,0.000000,0.000000,-1,-0.537895,-1.551532,0.153719,0.068098,-0.005307,0.123010
"2019-10-08 15:46:37.925 +0000",1570549597.924800,0.055087,0.408458,-0.051580,0.050530,-0.397195,-0.916342,0.000000,0.000000,0.000000,-1,-0.600499,-1.931457,0.124215,0.007102,-0.006324,-0.011255
"2019-10-08 15:46:37.945 +0000",1570549597.944938,0.017107,0.399340,-0.051865,0.015760,-0.388811,-0.921183,0.000000,0.000000,0.000000,-1,-0.217666,-1.790104,-0.219165,-0.117018,0.063173,-0.096456
"2019-10-08 15:46:37.965 +0000",1570549597.965075,-0.014140,0.401151,-0.061781,-0.013017,-0.390478,-0.920520,0.000000,0.000000,0.000000,-1,0.375105,-1.734165,-0.679281,-0.052474,0.046713,-0.138135
"2019-10-08 15:46:37.985 +0000",1570549597.985210,-0.041091,0.413578,-0.079609,-0.037616,-0.401888,-0.914916,0.000000,0.000000,0.000000,-1,0.808295,-1.627836,-0.912248,0.013080,0.000475,-0.108339
"2019-10-08 15:46:38.005 +0000",1570549598.005348,-0.071870,0.434993,-0.096112,-0.065121,-0.421404,-0.904532,0.000000,0.000000,0.000000,-1,1.257280,-1.959915,-0.734588,-0.046619,-0.112058,-0.203470
"2019-10-08 15:46:38.025 +0000",1570549598.025484,-0.105012,0.466251,-0.108998,-0.093630,-0.449540,-0.888339,0.000000,0.000000,0.000000,-1,1.725025,-1.877583,-0.617699,-0.065580,0.072251,-0.075314
"2019-10-08 15:46:38.046 +0000",1570549598.045620,-0.138687,0.506277,-0.112946,-0.120901,-0.484925,-0.866159,0.000000,0.000000,0.000000,-1,2.130632,-1.710022,-0.285572,-0.013376,0.122666,-0.135810
"2019-10-08 15:46:38.066 +0000",1570549598.065758,-0.176733,0.548826,-0.113765,-0.149994,-0.521686,-0.839848,0.000000,0.000000,0.000000,-1,1.942129,-2.156215,-0.448016,-0.017898,0.050632,-0.072520
"2019-10-08 15:46:38.086 +0000",1570549598.085895,-0.219852,0.582530,-0.120489,-0.182117,-0.550139,-0.814973,0.000000,0.000000,0.000000,-1,1.154919,-2.394401,-0.743189,-0.071637,0.028914,0.079820
"2019-10-08 15:46:38.106 +0000",1570549598.106032,-0.251749,0.599532,-0.136718,-0.205655,-0.564256,-0.799575,0.000000,0.000000,0.000000,-1,0.156828,-1.452979,-0.981231,-0.064334,0.021852,0.204712
"2019-10-08 15:46:38.126 +0000",1570549598.126168,-0.255061,0.599202,-0.160089,-0.208349,-0.563984,-0.799070,0.000000,0.000000,0.000000,-1,-0.591875,-0.254693,-0.721198,0.100027,0.002414,0.134794
"2019-10-08 15:46:38.146 +0000",1570549598.146306,-0.244564,0.586796,-0.174324,-0.201629,-0.553696,-0.807939,0.000000,0.000000,0.000000,-1,-0.780970,0.352290,-0.181692,0.183639,-0.064544,-0.012098
"2019-10-08 15:46:38.166 +0000",1570549598.166442,-0.234133,0.577482,-0.179125,-0.194379,-0.545916,-0.814980,0.000000,0.000000,0.000000,-1,-0.189789,0.139033,-0.095707,0.160550,-0.039121,-0.054588
"2019-10-08 15:46:38.187 +0000",1570549598.186580,-0.218938,0.593358,-0.188303,-0.180068,-0.559148,-0.809277,0.000000,0.000000,0.000000,-1,0.417062,-0.555034,0.533538,-0.018281,0.069921,-0.171711
"2019-10-08 15:46:38.207 +0000",1570549598.206715,-0.242448,0.601096,-0.164961,-0.197997,-0.565547,-0.800596,0.000000,0.000000,0.000000,-1,0.662479,-0.464464,0.878262,0.090484,0.062892,-0.150576
"2019-10-08 15:46:38.227 +0000",1570549598.226852,-0.248055,0.616054,-0.153162,-0.200384,-0.577819,-0.791184,0.000000,0.000000,0.000000,-1,0.485002,-0.509431,0.632360,0.091864,0.073348,-0.042114
"2019-10-08 15:46:38.247 +0000",1570549598.246990,-0.268159,0.619620,-0.138529,-0.215701,-0.580726,-0.785003,0.000000,0.000000,0.000000,-1,0.195930,-0.562671,0.367846,-0.070569,0.045875,0.032135
"2019-10-08 15:46:38.267 +0000",1570549598.267127,-0.268648,0.627028,-0.139955,-0.214937,-0.586740,-0.780729,0.000000,0.000000,0.000000,-1,0.252965,-0.235834,-0.066792,-0.006529,0.116251,0.029920
"2019-10-08 15:46:38.287 +0000",1570549598.287263,-0.235896,0.588153,-0.161393,-0.194443,-0.554825,-0.808926,0.000000,0.000000,0.000000,-1,0.351689,-0.447761,0.189086,0.024948,0.018372,-0.062412
"2019-10-08 15:46:38.307 +0000",1570549598.307399,-0.205388,0.558629,-0.175066,-0.172943,-0.530024,-0.830159,0.000000,0.000000,0.000000,-1,0.440795,-0.127940,0.314295,-0.005264,0.066203,-0.009089
"2019-10-08 15:46:38.328 +0000",1570549598.327537,-0.237655,0.570504,-0.152797,-0.198140,-0.540056,-0.817973,0.000000,0.000000,0.000000,-1,0.294516,-0.194926,0.280205,-0.025493,0.043871,0.008052
"2019-10-08 15:46:38.348 +0000",1570549598.347673,-0.264695,0.570976,-0.136088,-0.220116,-0.540454,-0.812071,0.000000,0.000000,0.000000,-1,0.166232,-0.337253,0.222300,-0.033958,0.015399,0.058943
"2019-10-08 15:46:38.368 +0000",1570549598.367810,-0.262377,0.568176,-0.137018,-0.218625,-0.538095,-0.814037,0.000000,0.000000,0.000000,-1,0.144768,-0.294992,0.196576,-0.068881,0.023386,0.008282
"2019-10-08 15:46:38.388 +0000",1570549598.387947,-0.264203,0.558616,-0.133680,-0.221444,-0.530013,-0.818565,0.000000,0.000000,0.000000,-1,0.058566,-0.225185,0.423681,0.036721,-0.041551,0.024635
"2019-10-08 15:46:38.408 +0000",1570549598.408084,-0.273533,0.552996,-0.123194,-0.229873,-0.525239,-0.819318,0.000000,0.000000,0.000000,-1,0.179597,-0.387668,0.575892,-0.035889,0.034105,0.000562
"2019-10-08 15:46:38.428 +0000",1570549598.428220,-0.301045,0.559118,-0.103896,-0.251365,-0.530439,-0.809599,0.000000,0.000000,0.000000,-1,0.555467,-0.963610,0.754842,-0.068902,0.017194,-0.071901
"2019-10-08 15:46:38.448 +0000",1570549598.448356,-0.337627,0.563951,-0.080545,-0.279955,-0.534530,-0.797435,0.000000,0.000000,0.000000,-1,0.531523,-1.087644,0.808195,-0.021605,0.004912,0.020015
"2019-10-08 15:46:38.468 +0000",1570549598.468494,-0.370467,0.565630,-0.059053,-0.305662,-0.535948,-0.786976,0.000000,0.000000,0.000000,-1,0.282168,-1.245698,0.809396,-0.006259,0.018278,0.111363
"2019-10-08 15:46:38.489 +0000",1570549598.488631,-0.410999,0.566522,-0.038198,-0.337109,-0.536701,-0.773505,0.000000,0.000000,0.000000,-1,0.533455,-1.502853,0.752272,-0.066349,-0.032727,-0.075525
"2019-10-08 15:46:38.509 +0000",1570549598.508767,-0.453669,0.569758,-0.016496,-0.369034,-0.539429,-0.756856,0.000000,0.000000,0.000000,-1,0.436635,-1.331907,0.720264,-0.040924,-0.004608,-0.016154
"2019-10-08 15:46:38.529 +0000",1570549598.528904,-0.484449,0.566999,0.000167,-0.392843,-0.537103,-0.746455,0.000000,0.000000,0.000000,-1,-0.058480,-0.718482,0.684504,-0.068430,0.038400,0.153498
"2019-10-08 15:46:38.549 +0000",1570549598.549042,-0.498458,0.556145,0.011748,-0.406025,-0.527916,-0.745955,0.000000,0.000000,0.000000,-1,-0.387236,-0.173189,0.665486,-0.052151,0.024987,0.104231
"2019-10-08 15:46:38.569 +0000",1570549598.569179,-0.504758,0.541617,0.019192,-0.414381,-0.515522,-0.750017,0.000000,0.000000,0.000000,-1,-0.512135,-0.148188,0.582566,-0.063142,0.006992,0.071504
"2019-10-08 15:46:38.589 +0000",1570549598.589314,-0.510522,0.529062,0.026139,-0.421827,-0.504724,-0.753204,0.000000,0.000000,0.000000,-1,-0.287293,-0.083916,0.563975,-0.012682,-0.012320,-0.101518
"2019-10-08 15:46:38.609 +0000",1570549598.609451,-0.518288,0.519127,0.037140,-0.430127,-0.496122,-0.754224,0.000000,0.000000,0.000000,-1,-0.097094,-0.171097,0.780569,0.050076,0.029218,-0.075473
"2019-10-08 15:46:38.630 +0000",1570549598.629589,-0.531361,0.510412,0.054155,-0.442124,-0.488537,-0.752236,0.000000,0.000000,0.000000,-1,0.027467,-0.263470,0.892992,0.004487,0.056972,-0.067345
"2019-10-08 15:46:38.650 +0000",1570549598.649725,-0.544483,0.500365,0.071999,-0.454476,-0.479746,-0.750530,0.000000,0.000000,0.000000,-1,-0.107831,-0.183921,0.957987,-0.039238,0.088938,0.031399
"2019-10-08 15:46:38.670 +0000",1570549598.669862,-0.551215,0.486064,0.087506,-0.463064,-0.467150,-0.753222,0.000000,0.000000,0.000000,-1,-0.350292,-0.019197,1.015097,-0.030527,0.098223,0.053408
"2019-10-08 15:46:38.690 +0000",1570549598.689998,-0.554341,0.469300,0.099573,-0.469474,-0.452262,-0.758323,0.000000,0.000000,0.000000,-1,-0.337408,-0.371972,1.032080,-0.028451,0.045737,0.037376
"2019-10-08 15:46:38.710 +0000",1570549598.710136,-0.569519,0.452687,0.114323,-0.484914,-0.437383,-0.757334,0.000000,0.000000,0.000000,-1,-0.151147,-1.070358,1.109971,-0.021129,0.057806,0.056726
"2019-10-08 15:46:38.730 +0000",1570549598.730273,-0.607338,0.437965,0.136552,-0.516820,-0.424098,-0.743665,0.000000,0.000000,0.000000,-1,0.119799,-1.629540,1.436958,0.030218,0.094325,0.059736
"2019-10-08 15:46:38.750 +0000",1570549598.750409,-0.663197,0.422399,0.176636,-0.561530,-0.409950,-0.718767,0.000000,0.000000,0.000000,-1,0.905169,-2.520409,2.475128,0.225775,0.194969,-0.028837
"2019-10-08 15:46:38.771 +0000",1570549598.770546,-0.762000,0.404624,0.253468,-0.634623,-0.393673,-0.665038,0.000000,0.000000,0.000000,-1,2.372728,-4.219234,4.003238,0.413523,0.257900,-0.178178
"2019-10-08 15:46:38.791 +0000",1570549598.790683,-0.904913,0.375567,0.370972,-0.731561,-0.366800,-0.574697,0.000000,0.000000,0.000000,-1,3.589331,-5.394681,5.280022,0.454645,0.372995,-0.115885
"2019-10-08 15:46:38.811 +0000",1570549598.810821,-1.064750,0.322672,0.510058,-0.829527,-0.317102,-0.459707,0.000000,0.000000,0.000000,-1,4.226068,-5.581271,6.373585,0.440428,0.402292,-0.087809
"2019-10-08 15:46:38.831 +0000",1570549598.830956,-1.209943,0.229571,0.651587,-0.911050,-0.227560,-0.343809,0.000000,0.000000,0.000000,-1,4.311330,-4.685742,7.398349,0.317513,0.336111,-0.091570
"2019-10-08 15:46:38.851 +0000",1570549598.851093,-1.309680,0.118116,0.780517,-0.959371,-0.117842,-0.256360,0.000000,0.000000,0.000000,-1,4.207409,-3.024784,6.839873,-0.085841,0.313460,-0.007830
"2019-10-08 15:46:38.871 +0000",1570549598.871229,-1.361020,0.009042,0.885777,-0.978038,-0.009042,-0.208232,0.000000,0.000000,0.000000,-1,3.411345,-1.352747,6.150765,-0.169622,0.192880,0.190303
"2019-10-08 15:46:38.891 +0000",1570549598.891366,-1.363941,-0.095560,0.965270,-0.974217,0.095414,-0.204446,0.000000,0.000000,0.000000,-1,2.042005,0.913485,5.519585,-0.337841,-0.053941,0.422189
"2019-10-08 15:46:38.912 +0000",1570549598.911504,-1.319324,-0.179595,1.007896,-0.952969,0.178631,-0.244828,0.000000,0.000000,0.000000,-1,0.209265,2.709808,3.271326,-0.822223,-0.211331,0.610978
"2019-10-08 15:46:38.932 +0000",1570549598.931640,-1.258121,-0.222037,1.007988,-0.928155,0.220217,-0.300054,0.000000,0.000000,0.000000,-1,-1.195447,3.188009,1.216877,-0.818549,0.029905,0.705633
"2019-10-08 15:46:38.952 +0000",1570549598.951777,-1.206122,-0.255973,0.994109,-0.903800,0.253187,-0.345024,0.000000,0.000000,0.000000,-1,-0.867149,2.001648,1.749951,-0.157372,-0.121214,0.266838
"2019-10-08 15:46:38.972 +0000",1570549598.971914,-1.196639,-0.300651,1.004365,-0.889063,0.296142,-0.349094,0.000000,0.000000,0.000000,-1,0.161043,-1.146303,2.724051,0.050638,-0.157943,0.067981
"2019-10-08 15:46:38.992 +0000",1570549598.992050,-1.221095,-0.351402,1.041094,-0.882065,0.344214,-0.321680,0.000000,0.000000,0.000000,-1,0.999541,-2.216058,2.906333,-0.116974,-0.334250,0.236033
"2019-10-08 15:46:39.012 +0000",1570549599.012188,-1.245648,-0.397019,1.073309,-0.873896,0.386671,-0.294602,0.000000,0.000000,0.000000,-1,0.131380,-1.199288,2.400576,-0.329473,-0.135420,0.636643
"2019-10-08 15:46:39.032 +0000",1570549599.032323,-1.255350,-0.447494,1.082809,-0.857051,0.432708,-0.279692,0.000000,0.000000,0.000000,-1,-0.416697,-0.318852,2.705211,0.056148,-0.098998,0.467147
"2019-10-08 15:46:39.052 +0000",1570549599.052461,-1.252768,-0.494132,1.107898,-0.836233,0.474267,-0.275290,0.000000,0.000000,0.000000,-1,0.906670,-0.705245,2.422693,-0.157923,-0.224130,-0.432290
"2019-10-08 15:46:39.073 +0000",1570549599.072597,-1.246367,-0.528502,1.148904,-0.818514,0.504241,-0.275276,0.000000,0.000000,0.000000,-1,1.180319,-0.593140,1.920472,-0.455000,-0.168303,-0.146217
"2019-10-08 15:47:34.174 +0000",1570549654.174052,-1.244837,-0.556164,1.181319,-0.804566,0.527932,-0.271956,0.000000,0.000000,0.000000,-1,0.422261,-0.717012,1.266343,-0.351897,-0.130700,0.150756
"2019-10-08 15:47:34.194 +0000",1570549654.194189,-1.247436,-0.574646,1.187517,-0.795882,0.543538,-0.266718,0.000000,0.000000,0.000000,-1,-0.648384,0.221406,0.913874,-0.207475,0.059199,0.261866
"2019-10-08 15:47:34.214 +0000",1570549654.214325,-1.239984,-0.607237,1.176989,-0.776700,0.570600,-0.266744,0.000000,0.000000,0.000000,-1,-0.965287,0.766048,1.952470,0.586499,0.153246,0.192892
"2019-10-08 15:47:34.234 +0000",1570549654.234460,-1.231457,-0.659471,1.181360,-0.745249,0.612699,-0.263068,0.000000,0.000000,0.000000,-1,-0.423614,-0.518810,3.037854,0.808664,0.143756,0.051688
"2019-10-08 15:47:34.255 +0000",1570549654.254599,-1.248720,-0.726422,1.211809,-0.709116,0.664199,-0.236629,0.000000,0.000000,0.000000,-1,0.837568,-3.117280,3.921888,0.862376,-0.033172,0.237666
"2019-10-08 15:47:34.275 +0000",1570549654.274736,-1.271510,-0.790651,1.270414,-0.672116,0.710811,-0.207384,0.000000,0.000000,0.000000,-1,0.275107,-2.277109,3.205927,-0.001499,-0.019710,-0.005720
"2019-10-08 15:47:34.295 +0000",1570549654.294874,-1.281678,-0.848757,1.279211,-0.633485,0.750460,-0.188432,0.000000,0.000000,0.000000,-1,-0.859009,-0.040013,2.566059,-0.924925,-0.362993,0.340928
"2019-10-08 15:47:34.315 +0000",1570549654.315008,-1.293631,-0.896923,1.276296,-0.600202,0.781410,-0.170750,0.000000,0.000000,0.000000,-1,-0.633034,-0.866966,2.362075,-0.333148,-0.228264,0.019902
"2019-10-08 15:47:34.335 +0000",1570549654.335145,-1.292975,-0.950815,1.289948,-0.558741,0.813889,-0.159351,0.000000,0.000000,0.000000,-1,-0.118365,-0.249190,2.903121,0.072657,-0.102967,0.301197
"2019-10-08 15:47:34.355 +0000",1570549654.355282,-1.266922,-1.004402,1.326697,-0.512008,0.843841,-0.160559,0.000000,0.000000,0.000000,-1,0.419929,-0.224997,2.793564,-0.045609,-0.110718,0.177282
"2019-10-08 15:47:34.375 +0000",1570549654.375418,-1.220779,-1.056097,1.374732,-0.462425,0.870441,-0.168807,0.000000,0.000000,0.000000,-1,0.184658,0.732554,2.764941,0.146172,0.129941,0.197433
"2019-10-08 15:47:34.396 +0000",1570549654.395554,-1.158963,-1.111536,1.426722,-0.406221,0.896381,-0.177443,0.000000,0.000000,0.000000,-1,0.332983,0.563891,3.125220,0.291307,0.005795,0.119398
"2019-10-08 15:47:34.416 +0000",1570549654.415692,-1.079782,-1.162011,1.506941,-0.350533,0.917604,-0.187427,0.000000,0.000000,0.000000,-1,0.416773,0.196024,2.756976,0.105538,-0.203096,-0.067563
"2019-10-08 15:47:34.436 +0000",1570549654.435829,-1.047641,-1.194119,1.559616,-0.318634,0.929892,-0.183775,0.000000,0.000000,0.000000,-1,-0.424698,0.171713,2.166418,0.666992,0.545236,-0.712358
"2019-10-08 15:47:34.456 +0000",1570549654.455965,-1.015124,-1.223015,1.581168,-0.289536,0.940131,-0.179784,0.000000,0.000000,0.000000,-1,-0.205825,0.536087,0.402428,-0.618774,0.394692,0.650578
"2019-10-08 15:47:34.476 +0000",1570549654.476101,-1.014938,-1.220048,1.566729,-0.291871,0.939116,-0.181309,0.000000,0.000000,0.000000,-1,-0.284739,1.060360,-0.840820,-0.161865,0.405275,0.102619
"2019-10-08 15:47:34.496 +0000",1570549654.496239,-1.043061,-1.202714,1.503306,-0.310872,0.933019,-0.181201,0.000000,0.000000,0.000000,-1,-0.646106,2.126705,-1.688051,-0.094707,0.284205,0.281161
"2019-10-08 15:47:34.516 +0000",1570549654.516376,-1.061637,-1.174982,1.433443,-0.336653,0.922683,-0.187938,0.000000,0.000000,0.000000,-1,-0.094496,1.725594,-2.003674,-0.042909,0.519288,0.215404
"2019-10-08 15:47:34.537 +0000",1570549654.536512,-1.105062,-1.141699,1.369628,-0.371737,0.909342,-0.186839,0.000000,0.000000,0.000000,-1,-0.942017,-0.335195,-1.670327,0.208132,0.173040,-0.243230
"2019-10-08 15:47:34.557 +0000",1570549654.556649,-1.195483,-1.137287,1.288864,-0.390819,0.907497,-0.153978,0.000000,0.000000,0.000000,-1,-1.826932,-1.603083,-0.172256,-0.155445,-0.007732,-0.153746
"2019-10-08 15:47:34.577 +0000",1570549654.576785,-1.346658,-1.160584,1.190682,-0.388828,0.917036,-0.088641,0.000000,0.000000,0.000000,-1,-2.834795,-4.704225,1.113665,-0.242596,-0.126112,-0.438413
"2019-10-08 15:47:34.597 +0000",1570549654.596923,-1.603561,-1.193651,1.030089,-0.368070,0.929720,0.012064,0.000000,0.000000,0.000000,-1,-2.464144,-5.192458,1.365035,0.018827,-0.423891,-0.162363
"2019-10-08 15:47:34.617 +0000",1570549654.617059,-1.648758,-1.209919,1.026444,-0.352022,0.935588,0.027500,0.000000,0.000000,0.000000,-1,1.320200,0.438389,0.270696,0.238741,0.165380,1.318249
"2019-10-08 15:47:34.637 +0000",1570549654.637196,-1.580488,-1.219493,1.093338,-0.344106,0.938925,0.003335,0.000000,0.000000,0.000000,-1,0.782109,-0.299202,0.721525,-0.041636,-0.009360,0.019004
"2019-10-08 15:47:34.657 +0000",1570549654.657333,-1.562591,-1.240221,1.130740,-0.324577,0.945856,-0.002663,0.000000,0.000000,0.000000,-1,0.658245,-1.315753,1.252866,0.007743,-0.075250,-0.129859
"2019-10-08 15:47:34.677 +0000",1570549654.677470,-1.540540,-1.264864,1.178338,-0.301044,0.953567,-0.009111,0.000000,0.000000,0.000000,-1,0.661870,-0.922089,1.108440,0.081485,0.050385,0.148882
"2019-10-08 15:47:34.698 +0000",1570549654.697606,-1.515323,-1.281589,1.216596,-0.284753,0.958470,-0.015813,0.000000,0.000000,0.000000,-1,0.372146,-0.258519,0.598457,0.186243,0.095225,0.186894
"2019-10-08 15:47:34.718 +0000",1570549654.717743,-1.504234,-1.287752,1.229987,-0.278661,0.960210,-0.018576,0.000000,0.000000,0.000000,-1,0.028080,-0.092966,0.077073,0.210393,0.078700,0.121588
"2019-10-08 15:47:34.738 +0000",1570549654.737880,-1.513313,-1.287985,1.223161,-0.278595,0.960275,-0.016032,0.000000,0.000000,0.000000,-1,-0.173624,-0.226322,0.008319,0.139923,0.066184,0.010631
"2019-10-08 15:47:34.758 +0000",1570549654.758018,-1.544097,-1.288557,1.197885,-0.278408,0.960434,-0.007435,0.000000,0.000000,0.000000,-1,-0.282860,-0.201318,-0.030308,0.062359,0.000580,-0.052990
"2019-10-08 15:47:34.778 +0000",1570549654.778153,-1.553856,-1.287273,1.191013,-0.279700,0.960076,-0.004739,0.000000,0.000000,0.000000,-1,-0.041537,-0.179210,-0.073214,0.090399,0.018531,0.130639
"2019-10-08 15:47:34.798 +0000",1570549654.798290,-1.567046,-1.286353,1.181637,-0.280622,0.959818,-0.001053,0.000000,0.000000,0.000000,-1,-0.302513,-0.380816,-0.012881,0.059583,-0.020838,0.058883
"2019-10-08 15:47:34.818 +0000",1570549654.818428,-1.604798,-1.286742,1.150402,-0.280088,0.959927,0.009527,0.000000,0.000000,0.000000,-1,-0.273341,-0.439009,0.076752,0.089109,-0.037625,0.005869
"2019-10-08 15:47:34.839 +0000",1570549654.838564,-1.605038,-1.289016,1.156868,-0.277904,0.960562,0.009520,0.000000,0.000000,0.000000,-1,0.426981,-0.241526,0.168957,0.050243,-0.013617,0.154985
"2019-10-08 15:47:34.859 +0000",1570549654.858700,-1.615682,-1.302301,1.159174,-0.265014,0.964171,0.011903,0.000000,0.000000,0.000000,-1,0.811803,-0.645462,0.282613,-0.024567,-0.193968,0.013472
"2019-10-08 15:47:34.879 +0000",1570549654.878837,-1.588553,-1.310673,1.205763,-0.257160,0.966358,0.004567,0.000000,0.000000,0.000000,-1,0.445565,-1.022921,0.320289,0.031177,-0.253941,-0.037572
"2019-10-08 15:47:34.899 +0000",1570549654.898974,-1.590033,-1.318754,1.225076,-0.249335,0.968405,0.004797,0.000000,0.000000,0.000000,-1,0.168729,-0.852508,0.486108,0.049308,-0.254447,0.024851
"2019-10-08 15:47:34.919 +0000",1570549654.919111,-1.577122,-1.330132,1.251902,-0.238343,0.971180,0.001508,0.000000,0.000000,0.000000,-1,0.539726,-0.461159,0.654918,0.022797,-0.013767,0.123614
"2019-10-08 15:47:34.939 +0000",1570549654.939247,-1.525065,-1.343874,1.316618,-0.224745,0.974363,-0.010285,0.000000,0.000000,0.000000,-1,0.766217,-0.769253,0.618193,-0.034578,0.083483,0.028458
"2019-10-08 15:47:34.959 +0000",1570549654.959384,-1.500738,-1.351375,1.363492,-0.217131,0.976023,-0.015237,0.000000,0.000000,0.000000,-1,0.145747,-1.366892,0.144729,-0.030519,-0.112849,-0.082404
"2019-10-08 15:47:34.980 +0000",1570549654.979521,-1.533094,-1.350757,1.353974,-0.218112,0.975889,-0.008227,0.000000,0.000000,0.000000,-1,-0.003556,-0.690530,-0.059150,0.278400,-0.570509,0.106936
"2019-10-08 15:47:35.000 +0000",1570549654.999657,-1.511654,-1.351353,1.386042,-0.217306,0.976019,-0.012867,0.000000,0.000000,0.000000,-1,0.657790,-0.318782,0.177409,0.065726,0.412485,0.129749
"2019-10-08 15:47:35.020 +0000",1570549655.019794,-1.453995,-1.354825,1.453698,-0.212836,0.976769,-0.024973,0.000000,0.000000,0.000000,-1,0.784510,-0.550871,0.267800,0.011389,0.295891,0.013819
"2019-10-08 15:47:35.040 +0000",1570549655.039931,-1.385261,-1.357839,1.536552,-0.207724,0.977410,-0.038989,0.000000,0.000000,0.000000,-1,0.867762,-0.596117,0.327793,0.072729,0.082267,0.013567
"2019-10-08 15:47:35.060 +0000",1570549655.060068,-1.324929,-1.363066,1.610915,-0.200037,0.978502,-0.050198,0.000000,0.000000,0.000000,-1,0.491404,-0.769491,0.479449,0.082041,0.093306,0.028195
"2019-10-08 15:47:35.080 +0000",1570549655.080204,-1.302382,-1.370582,1.656083,-0.191759,0.980024,-0.052744,0.000000,0.000000,0.000000,-1,0.262587,-0.912385,0.441614,0.066972,-0.091886,-0.103079
"2019-10-08 15:47:35.100 +0000",1570549655.100341,-1.300688,-1.380773,1.675813,-0.182034,0.982000,-0.050401,0.000000,0.000000,0.000000,-1,-0.099322,-0.912026,0.681684,0.101040,-0.248342,0.096757
"2019-10-08 15:47:35.120 +0000",1570549655.120478,-1.294120,-1.399962,1.699795,-0.163539,0.985443,-0.046439,0.000000,0.000000,0.000000,-1,0.106712,-0.740976,1.196942,0.077678,0.144211,0.005453
"2019-10-08 15:47:35.141 +0000",1570549655.140615,-1.237630,-1.422282,1.770871,-0.139833,0.988992,-0.048392,0.000000,0.000000,0.000000,-1,0.304243,-0.726302,1.198221,-0.063170,0.230460,0.064398
"2019-10-08 15:47:35.161 +0000",1570549655.160751,-1.145143,-1.441685,1.880061,-0.117264,0.991677,-0.053164,0.000000,0.000000,0.000000,-1,0.335567,-0.765738,1.131410,0.089493,0.005363,0.011401
"2019-10-08 15:47:35.181 +0000",1570549655.180888,-1.027502,-1.458515,2.013253,-0.095911,0.993703,-0.057922,0.000000,0.000000,0.000000,-1,0.313469,-0.783819,1.071322,0.072718,0.021357,0.043762
"2019-10-08 15:47:35.201 +0000",1570549655.201025,-0.868231,-1.472421,2.187997,-0.074958,0.995165,-0.063465,0.000000,0.000000,0.000000,-1,0.337488,-0.595518,1.095777,0.092917,-0.026552,0.051640
"2019-10-08 15:47:35.221 +0000",1570549655.221162,-0.663915,-1.482399,2.406034,-0.054400,0.996095,-0.069530,0.000000,0.000000,0.000000,-1,0.364568,-0.665293,1.033733,0.069171,-0.036150,0.060558
"2019-10-08 15:47:35.241 +0000",1570549655.241298,-0.429417,-1.486204,2.652966,-0.035177,0.996424,-0.076821,0.000000,0.000000,0.000000,-1,0.344399,-0.471859,0.965399,0.067999,0.028905,0.065529
"2019-10-08 15:47:35.261 +0000",1570549655.261436,-0.204265,-1.487972,2.888583,-0.016782,0.996572,-0.081010,0.000000,0.000000,0.000000,-1,0.084475,-0.483393,0.922392,0.066266,0.005015,0.033204
"2019-10-08 15:47:35.282 +0000",1570549655.281572,-0.000699,-1.491305,3.098176,-0.000055,0.996842,-0.079409,0.000000,0.000000,0.000000,-1,-0.188988,-0.090251,0.722380,0.093485,0.049148,0.081942
"2019-10-08 15:47:35.302 +0000",1570549655.301709,0.108933,-1.493287,-3.070344,0.008418,0.996998,-0.076974,0.000000,0.000000,0.000000,-1,-0.029953,-0.316900,0.207972,0.071889,0.156918,-0.017692
"2019-10-08 15:47:35.322 +0000",1570549655.321847,0.112762,-1.492672,-3.057094,0.008782,0.996950,-0.077550,0.000000,0.000000,0.000000,-1,0.037464,-0.489686,-0.052227,0.093894,0.187559,0.001866
"2019-10-08 15:47:35.342 +0000",1570549655.341982,0.086367,-1.493636,-3.075126,0.006649,0.997025,-0.076799,0.000000,0.000000,0.000000,-1,-0.104590,-0.365987,-0.078558,0.095722,0.094452,0.043092
"2019-10-08 15:47:35.362 +0000",1570549655.362119,0.057269,-1.495875,-3.097487,0.004284,0.997195,-0.074730,0.000000,0.000000,0.000000,-1,-0.079150,-0.315529,-0.098851,0.079563,-0.008471,0.046852
"2019-10-08 15:47:35.382 +0000",1570549655.382256,0.027962,-1.497145,-3.120504,0.002057,0.997289,-0.073557,0.000000,0.000000,0.000000,-1,-0.048483,-0.293309,-0.079210,0.080844,0.047053,0.032266
"2019-10-08 15:47:35.402 +0000",1570549655.402393,-0.003998,-1.498266,3.135459,-0.000290,0.997371,-0.072467,0.000000,0.000000,0.000000,-1,-0.016060,-0.234823,-0.112001,0.064224,0.059422,0.032642
"2019-10-08 15:47:35.423 +0000",1570549655.422529,-0.040892,-1.497999,3.103050,-0.002973,0.997351,-0.072673,0.000000,0.000000,0.000000,-1,0.023230,-0.227608,-0.104470,0.098615,-0.000006,0.025416
"2019-10-08 15:47:35.443 +0000",1570549655.442667,-0.064499,-1.499064,3.084516,-0.004619,0.997428,-0.071521,0.000000,0.000000,0.000000,-1,-0.137921,-0.266491,-0.000822,0.074917,0.066796,-0.008893
"2019-10-08 15:47:35.463 +0000",1570549655.462804,-0.064930,-1.503705,3.088657,-0.004350,0.997750,-0.066901,0.000000,0.000000,0.000000,-1,-0.292301,-0.177576,0.025171,0.014467,0.158317,-0.006372
"2019-10-08 15:47:35.483 +0000",1570549655.482940,-0.083971,-1.509501,3.071898,-0.005138,0.998122,-0.061041,0.000000,0.000000,0.000000,-1,-0.297225,-0.009483,-0.079943,0.091152,0.124833,-0.006556
"2019-10-08 15:47:35.503 +0000",1570549655.503077,-0.148464,-1.513097,3.005168,-0.008530,0.998336,-0.057035,0.000000,0.000000,0.000000,-1,-0.150333,0.210711,-0.255777,0.112809,0.144593,0.049009
"2019-10-08 15:47:35.523 +0000",1570549655.523213,-0.244367,-1.511975,2.903830,-0.014223,0.998271,-0.057042,0.000000,0.000000,0.000000,-1,0.087440,0.345599,-0.318373,0.158633,-0.042460,0.024999
"2019-10-08 15:47:35.543 +0000",1570549655.543351,-0.310839,-1.507781,2.829520,-0.019261,0.998015,-0.059956,0.000000,0.000000,0.000000,-1,0.184883,0.426753,-0.270589,0.117375,-0.169738,0.034641
"2019-10-08 15:47:35.563 +0000",1570549655.563487,-0.327120,-1.503387,2.804840,-0.021643,0.997729,-0.063785,0.000000,0.000000,0.000000,-1,0.100977,0.629488,0.043650,0.052710,-0.265521,-0.001950
"2019-10-08 15:47:35.584 +0000",1570549655.583624,-0.296501,-1.501058,2.822899,-0.020359,0.997569,-0.066641,0.000000,0.000000,0.000000,-1,0.210159,0.560605,-0.037192,0.035298,0.089436,0.077841
"2019-10-08 15:47:35.604 +0000",1570549655.603761,-0.288413,-1.498297,2.820981,-0.020603,0.997373,-0.069445,0.000000,0.000000,0.000000,-1,0.026726,0.383476,-0.033677,0.020863,-0.005613,0.069094
"2019-10-08 15:47:35.624 +0000",1570549655.623897,-0.289433,-1.498254,2.813717,-0.020686,0.997370,-0.069465,0.000000,0.000000,0.000000,-1,-0.019238,0.264791,-0.012648,0.018108,0.061102,0.033194
"2019-10-08 15:47:35.644 +0000",1570549655.644034,-0.283603,-1.498151,2.814200,-0.020309,0.997362,-0.069681,0.000000,0.000000,0.000000,-1,0.032639,0.274190,0.017478,0.005798,-0.032656,0.090540
"2019-10-08 15:47:35.664 +0000",1570549655.664171,-0.262825,-1.497504,2.829384,-0.019025,0.997315,-0.070714,0.000000,0.000000,0.000000,-1,0.070235,0.224166,0.037901,0.023756,-0.065843,0.068715
"2019-10-08 15:47:54.149 +0000",1570549674.148631,2.350157,-0.697804,-2.916005,0.545086,0.642537,0.538543,0.000000,0.000000,0.000000,-1,-0.052464,0.005083,0.071324,-0.562771,0.289333,-0.569061
"2019-10-08 15:47:54.169 +0000",1570549674.168768,0.200178,-1.492730,0.199377,0.015507,0.996954,-0.076429,0.000000,0.000000,0.000000,-1,-0.077969,0.047742,0.021820,-0.067784,-1.448645,-0.807589
"2019-10-08 15:47:54.189 +0000",1570549674.188904,0.199902,-1.494946,0.197378,0.015048,0.997125,-0.074269,0.000000,0.000000,0.000000,-1,-0.102458,0.110966,-0.069873,-0.081377,-1.483346,-0.812679
"2019-10-08 15:47:54.209 +0000",1570549674.209043,0.187894,-1.497031,0.183422,0.013766,0.997281,-0.072400,0.000000,0.000000,0.000000,-1,-0.084357,0.079052,-0.062066,-0.059573,-1.444287,-0.821414
"2019-10-08 15:47:54.229 +0000",1570549674.229179,0.181159,-1.498653,0.175684,0.012987,0.997399,-0.070901,0.000000,0.000000,0.000000,-1,-0.068534,0.021232,-0.016269,-0.041811,-1.420327,-0.806098
"2019-10-08 15:47:54.249 +0000",1570549674.249318,0.186678,-1.500110,0.181163,0.013108,0.997503,-0.069401,0.000000,0.000000,0.000000,-1,-0.087380,-0.023799,0.014953,-0.030122,-1.393682,-0.804302
"2019-10-08 15:47:54.269 +0000",1570549674.269455,0.187850,-1.502511,0.182713,0.012742,0.997669,-0.067031,0.000000,0.000000,0.000000,-1,-0.146652,-0.003219,-0.043208,-0.046723,-1.418095,-0.808793
"2019-10-08 15:47:54.290 +0000",1570549674.289588,0.176399,-1.505752,0.171391,0.011407,0.997885,-0.063991,0.000000,0.000000,0.000000,-1,-0.150355,-0.009804,-0.088212,-0.062340,-1.420188,-0.807255
"2019-10-08 15:47:54.310 +0000",1570549674.309728,-0.011620,-0.392361,-0.010070,-0.010737,0.382371,-0.923947,0.000000,0.000000,0.000000,-1,-0.138082,0.011919,-0.115674,-0.047872,-0.805573,0.035778
"2019-10-08 15:47:54.330 +0000",1570549674.329863,-0.016800,0.092284,-0.013754,-0.016727,-0.092153,-0.995604,0.000000,0.000000,0.000000,-1,-0.128820,0.051307,-0.112621,-0.035793,-0.336603,0.098723
"2019-10-08 15:47:54.350 +0000",1570549674.350002,-0.020239,0.220365,-0.014787,-0.019748,-0.218586,-0.975618,0.000000,0.000000,0.000000,-1,-0.089823,0.065208,-0.082986,-0.020490,-0.221829,0.070299
"2019-10-08 15:47:54.370 +0000",1570549674.370136,-0.032963,0.286988,-0.012794,-0.031609,-0.283065,-0.958580,0.000000,0.000000,0.000000,-1,-0.050873,0.050805,-0.068373,-0.008156,-0.161652,0.040245
"2019-10-08 15:47:54.390 +0000",1570549674.390275,-0.040452,0.324767,-0.011588,-0.038327,-0.319088,-0.946950,0.000000,0.000000,0.000000,-1,-0.085786,0.031735,-0.063554,0.001339,-0.121479,0.027348
"2019-10-08 15:47:54.410 +0000",1570549674.410412,-0.044847,0.346996,-0.011289,-0.042160,-0.340075,-0.939453,0.000000,0.000000,0.000000,-1,-0.202386,-0.003794,-0.048355,0.013687,-0.099943,0.030960
"2019-10-08 15:47:54.431 +0000",1570549674.430548,-0.044469,0.359992,-0.012212,-0.041604,-0.352267,-0.934974,0.000000,0.000000,0.000000,-1,-0.318693,0.031243,-0.025052,0.020715,-0.088789,0.024849
"2019-10-08 15:47:54.451 +0000",1570549674.450682,-0.042765,0.366393,-0.013298,-0.039915,-0.358250,-0.932772,0.000000,0.000000,0.000000,-1,-0.354076,0.031536,-0.030768,0.008878,-0.076854,0.017916
"2019-10-08 15:47:54.471 +0000",1570549674.470820,-0.041970,0.370057,-0.014694,-0.039118,-0.361668,-0.931486,0.000000,0.000000,0.000000,-1,-0.279490,-0.022145,-0.096175,0.013056,-0.071437,-0.007662
"2019-10-08 15:47:54.491 +0000",1570549674.490958,-0.041673,0.375657,-0.017976,-0.038756,-0.366883,-0.929459,0.000000,0.000000,0.000000,-1,0.026917,-0.071029,-0.134560,0.012374,0.004228,-0.024413
"2019-10-08 15:47:54.511 +0000",1570549674.511093,-0.039714,0.383009,-0.021459,-0.036827,-0.373713,-0.926813,0.000000,0.000000,0.000000,-1,0.066683,-0.041348,-0.093582,0.004646,-0.088506,-0.014212
"2019-10-08 15:47:54.531 +0000",1570549674.531231,-0.039336,0.388662,-0.023297,-0.036393,-0.378951,-0.924701,0.000000,0.000000,0.000000,-1,0.066316,-0.056660,-0.067982,0.009278,-0.044572,-0.005231
"2019-10-08 15:47:54.551 +0000",1570549674.551368,-0.039191,0.392799,-0.024746,-0.036197,-0.382776,-0.923132,0.000000,0.000000,0.000000,-1,0.045523,-0.043104,-0.050594,-0.001523,-0.042365,-0.000452
"2019-10-08 15:47:54.572 +0000",1570549674.571504,-0.039103,0.393591,-0.026005,-0.036104,-0.383508,-0.922832,0.000000,0.000000,0.000000,-1,0.018148,-0.064451,-0.034469,-0.007994,-0.023673,0.012538
"2019-10-08 15:47:54.592 +0000",1570549674.591640,-0.039339,0.395263,-0.026956,-0.036297,-0.385051,-0.922181,0.000000,0.000000,0.000000,-1,0.101666,-0.031744,-0.044081,-0.012287,-0.023213,0.003007
"2019-10-08 15:47:54.612 +0000",1570549674.611778,-0.037503,0.400339,-0.028664,-0.034530,-0.389730,-0.920282,0.000000,0.000000,0.000000,-1,0.212296,0.043222,-0.092451,-0.027344,-0.002344,-0.001334
"2019-10-08 15:47:54.632 +0000",1570549674.631916,-0.035661,0.407822,-0.030629,-0.032729,-0.396611,-0.917403,0.000000,0.000000,0.000000,-1,0.332575,0.130419,-0.135840,-0.054948,0.048542,-0.005082
"2019-10-08 15:47:54.652 +0000",1570549674.652053,-0.030573,0.415887,-0.033995,-0.027962,-0.404002,-0.914331,0.000000,0.000000,0.000000,-1,0.319407,0.320754,-0.201421,-0.080757,0.040125,0.003854
"2019-10-08 15:47:54.672 +0000",1570549674.672188,-0.021560,0.421799,-0.037962,-0.019669,-0.409403,-0.912142,0.000000,0.000000,0.000000,-1,0.290054,0.529137,-0.225377,-0.068374,0.014170,0.025286
"2019-10-08 15:47:54.692 +0000",1570549674.692326,-0.009569,0.428275,-0.043385,-0.008705,-0.415303,-0.909642,0.000000,0.000000,0.000000,-1,0.451663,0.659902,-0.355266,-0.061501,0.034993,0.032444
"2019-10-08 15:47:54.712 +0000",1570549674.712461,0.003879,0.435000,-0.049528,0.003518,-0.421410,-0.906863,0.000000,0.000000,0.000000,-1,0.476771,0.851056,-0.399389,-0.050042,-0.010993,0.039737
"2019-10-08 15:47:54.733 +0000",1570549674.732597,0.026119,0.443876,-0.059113,0.023585,-0.429443,-0.902786,0.000000,0.000000,0.000000,-1,0.438597,0.917739,-0.468478,-0.039912,-0.025314,0.025436
"2019-10-08 15:47:54.753 +0000",1570549674.752737,0.048416,0.452765,-0.071204,0.043520,-0.437454,-0.898187,0.000000,0.000000,0.000000,-1,0.480898,0.769463,-0.585155,-0.009997,0.026962,-0.008322
"2019-10-08 15:47:54.773 +0000",1570549674.772871,0.069763,0.462652,-0.083893,0.062379,-0.446323,-0.892695,0.000000,0.000000,0.000000,-1,0.576537,0.753721,-0.422079,-0.005692,-0.023724,0.019908
"2019-10-08 15:47:54.793 +0000",1570549674.793008,0.082497,0.472043,-0.090144,0.073392,-0.454707,-0.887612,0.000000,0.000000,0.000000,-1,0.538646,0.614321,-0.256173,0.055941,-0.077413,-0.011100
"2019-10-08 15:47:54.813 +0000",1570549674.813146,0.094567,0.480924,-0.094242,0.083715,-0.462598,-0.882607,0.000000,0.000000,0.000000,-1,0.389198,0.638206,-0.141656,0.031122,-0.073107,0.020470
"2019-10-08 15:47:54.833 +0000",1570549674.833282,0.107487,0.486617,-0.096132,0.094827,-0.467639,-0.878819,0.000000,0.000000,0.000000,-1,0.293204,0.694346,-0.033218,0.021994,-0.038724,0.018925
"2019-10-08 15:47:54.853 +0000",1570549674.853419,0.121825,0.491458,-0.096238,0.107141,-0.471912,-0.875112,0.000000,0.000000,0.000000,-1,0.220375,0.825355,0.021175,-0.000330,-0.050015,0.006505
"2019-10-08 15:47:54.874 +0000",1570549674.873555,0.140051,0.495924,-0.095670,0.122776,-0.475845,-0.870918,0.000000,0.000000,0.000000,-1,0.177964,0.991948,0.081431,0.001613,-0.058380,-0.003808
"2019-10-08 15:47:54.894 +0000",1570549674.893693,0.160500,0.501221,-0.094346,0.140154,-0.480497,-0.865725,0.000000,0.000000,0.000000,-1,0.230787,1.081474,0.084236,-0.024355,-0.036944,-0.016340
"2019-10-08 15:47:54.914 +0000",1570549674.913829,0.179800,0.507414,-0.092521,0.156301,-0.485919,-0.859915,0.000000,0.000000,0.000000,-1,0.305204,0.941370,0.136023,0.019786,-0.057782,-0.049540
"2019-10-08 15:47:54.934 +0000",1570549674.933966,0.194849,0.515178,-0.090165,0.168488,-0.492689,-0.853738,0.000000,0.000000,0.000000,-1,0.370637,0.696229,0.138307,0.075424,-0.068117,-0.033042
"2019-10-08 15:47:54.954 +0000",1570549674.954103,0.205263,0.524073,-0.089412,0.176469,-0.500411,-0.847613,0.000000,0.000000,0.000000,-1,0.428599,0.501634,0.039150,0.026855,0.009429,-0.027326
"2019-10-08 15:47:54.974 +0000",1570549674.974240,0.214347,0.532034,-0.089941,0.183308,-0.507287,-0.842056,0.000000,0.000000,0.000000,-1,0.338960,0.534502,0.025461,0.026836,-0.013923,-0.004716
"2019-10-08 15:47:54.994 +0000",1570549674.994377,0.226865,0.537898,-0.090614,0.193162,-0.512332,-0.836782,0.000000,0.000000,0.000000,-1,0.274719,0.726503,-0.004506,0.023986,-0.028012,0.033438
"2019-10-08 15:47:55.015 +0000",1570549675.014513,0.241698,0.543208,-0.092467,0.204898,-0.516885,-0.831172,0.000000,0.000000,0.000000,-1,0.266859,0.617474,-0.005989,0.008954,-0.027549,0.007869
"2019-10-08 15:47:55.035 +0000",1570549675.034650,0.255187,0.548154,-0.093997,0.215442,-0.521112,-0.825849,0.000000,0.000000,0.000000,-1,0.284466,0.703429,0.012646,-0.005909,0.031061,-0.003512
"2019-10-08 15:47:55.055 +0000",1570549675.054787,0.272341,0.553470,-0.095497,0.228829,-0.525642,-0.819352,0.000000,0.000000,0.000000,-1,0.328050,0.903764,-0.008181,-0.000572,-0.047081,-0.013183
"2019-10-08 15:47:55.075 +0000",1570549675.074924,0.290732,0.561331,-0.098550,0.242665,-0.532314,-0.811021,0.000000,0.000000,0.000000,-1,0.470024,0.744862,-0.050831,-0.026494,0.022228,-0.029097
