timestamp,timeIntervalSince1970,attitude.roll,attitude.pitch,attitude.yaw,gravity.x,gravity.y,gravity.z,magneticField.x,magneticField.y,magneticField.z,magneticField.accuracy,rotationRate.x,rotationRate.y,rotationRate.z,userAcceleration.x,userAcceleration.y,userAcceleration.z
"2019-04-16 05:08:28.773 +0000",1555391308.772644,0.110219,0.716511,-0.041290,0.082948,-0.656758,-0.749526,0.000000,0.000000,0.000000,-1,0.477372,-0.379829,0.167694,-0.089082,-0.005382,0.043791
"2019-04-16 05:08:28.795 +0000",1555391308.794945,0.099041,0.724786,-0.037838,0.074025,-0.662975,-0.744972,0.000000,0.000000,0.000000,-1,0.227488,-0.461226,0.139980,-0.054311,-0.006458,-0.074623
"2019-04-16 05:08:28.817 +0000",1555391308.817252,0.085454,0.724805,-0.037692,0.063895,-0.662990,-0.745897,0.000000,0.000000,0.000000,-1,-0.119798,-0.668933,-0.091547,-0.084922,0.006801,-0.050520
"2019-04-16 05:08:28.840 +0000",1555391308.839537,0.077791,0.719069,-0.043409,0.058473,-0.658685,-0.750144,0.000000,0.000000,0.000000,-1,-0.290815,-0.336254,-0.252122,-0.091096,-0.008964,0.041968
"2019-04-16 05:08:28.862 +0000",1555391308.861835,0.078848,0.712791,-0.047927,0.059590,-0.653948,-0.754189,0.000000,0.000000,0.000000,-1,-0.207265,-0.065037,-0.110591,-0.109502,-0.052702,0.025017
"2019-04-16 05:08:28.884 +0000",1555391308.884134,0.069902,0.710973,-0.050107,0.052923,-0.652571,-0.755877,0.000000,0.000000,0.000000,-1,-0.069641,-0.734084,-0.084744,-0.116507,-0.045686,0.005618
"2019-04-16 05:08:28.906 +0000",1555391308.906407,0.039092,0.708480,-0.049632,0.029677,-0.650681,-0.758771,0.000000,0.000000,0.000000,-1,-0.270712,-1.155011,-0.418458,-0.091460,-0.018555,0.015623
"2019-04-16 05:08:28.929 +0000",1555391308.928712,0.019199,0.704740,-0.070305,0.014625,-0.647836,-0.761640,0.000000,0.000000,0.000000,-1,-0.012077,-1.877454,-0.853567,-0.026008,-0.010062,-0.039828
"2019-04-16 05:08:28.951 +0000",1555391308.951014,-0.013394,0.708144,-0.098683,-0.010173,-0.650425,-0.759502,0.000000,0.000000,0.000000,-1,0.173873,-2.216348,-1.029116,-0.102040,0.016361,0.062801
"2019-04-16 05:08:28.973 +0000",1555391308.973318,-0.033617,0.707652,-0.128888,-0.025541,-0.650051,-0.759461,0.000000,0.000000,0.000000,-1,-0.191637,-1.639215,-0.940114,-0.132571,-0.017277,0.036423
"2019-04-16 05:08:28.996 +0000",1555391308.995591,-0.053383,0.701112,-0.147995,-0.040772,-0.645067,-0.763037,0.000000,0.000000,0.000000,-1,-0.430521,-1.322759,-0.515035,-0.088745,-0.000913,0.041708
"2019-04-16 05:08:29.018 +0000",1555391309.017878,-0.081623,0.688277,-0.160444,-0.062971,-0.635207,-0.769770,0.000000,0.000000,0.000000,-1,-0.600524,-1.779595,-0.293958,-0.027545,0.014113,0.110560
"2019-04-16 05:08:29.040 +0000",1555391309.040200,-0.112298,0.681235,-0.167981,-0.087049,-0.629753,-0.771903,0.000000,0.000000,0.000000,-1,-0.211229,-1.386841,-0.250137,0.013822,-0.041710,0.078376
"2019-04-16 05:08:29.062 +0000",1555391309.062473,-0.135688,0.679419,-0.175547,-0.105233,-0.628341,-0.770788,0.000000,0.000000,0.000000,-1,-0.055439,-1.230413,-0.215482,0.010415,-0.004655,0.068456
"2019-04-16 05:08:29.085 +0000",1555391309.084789,-0.156395,0.679132,-0.175364,-0.121198,-0.628118,-0.768621,0.000000,0.000000,0.000000,-1,-0.028359,-0.683909,0.181614,-0.057711,0.025793,0.013036
"2019-04-16 05:08:29.107 +0000",1555391309.107081,-0.171319,0.672950,-0.167106,-0.133315,-0.623295,-0.770539,0.000000,0.000000,0.000000,-1,-0.395144,-0.028172,0.252595,-0.053742,-0.006313,0.002320
"2019-04-16 05:08:29.129 +0000",1555391309.129354,-0.166501,0.660785,-0.163536,-0.130848,-0.613737,-0.778592,0.000000,0.000000,0.000000,-1,-0.538207,0.303630,0.180119,-0.042965,0.032117,-0.001086
"2019-04-16 05:08:29.152 +0000",1555391309.151657,-0.164881,0.650610,-0.161784,-0.130605,-0.605672,-0.784923,0.000000,0.000000,0.000000,-1,-0.195276,0.186290,0.028752,-0.038966,0.035405,0.025264
"2019-04-16 05:08:29.174 +0000",1555391309.173961,-0.161564,0.654450,-0.162989,-0.127625,-0.608723,-0.783051,0.000000,0.000000,0.000000,-1,0.358303,-0.162182,-0.119264,-0.140548,-0.061886,0.030106
"2019-04-16 05:08:29.196 +0000",1555391309.196265,-0.188131,0.661533,-0.160747,-0.147571,-0.614327,-0.775129,0.000000,0.000000,0.000000,-1,0.029520,-1.431235,0.051933,-0.078610,-0.033897,0.037016
"2019-04-16 05:08:29.219 +0000",1555391309.218538,-0.211283,0.651522,-0.163009,-0.166757,-0.606397,-0.777479,0.000000,0.000000,0.000000,-1,-0.622787,-0.840234,-0.059039,0.024194,0.041181,-0.097597
"2019-04-16 05:08:29.241 +0000",1555391309.240831,-0.220064,0.639131,-0.170293,-0.175204,-0.596498,-0.783258,0.000000,0.000000,0.000000,-1,-0.563977,-0.477709,-0.158987,-0.015897,-0.026106,0.039057
"2019-04-16 05:08:29.263 +0000",1555391309.263147,-0.229436,0.629849,-0.177363,-0.183789,-0.589023,-0.786940,0.000000,0.000000,0.000000,-1,-0.426215,-0.780277,-0.161205,-0.107105,-0.174741,0.196211
"2019-04-16 05:08:29.285 +0000",1555391309.285420,-0.252612,0.617582,-0.188915,-0.203766,-0.579066,-0.789406,0.000000,0.000000,0.000000,-1,-0.860540,-1.659722,-0.400448,-0.097656,-0.070425,0.019402
"2019-04-16 05:08:29.308 +0000",1555391309.307712,-0.286954,0.590795,-0.213822,-0.235058,-0.557021,-0.796539,0.000000,0.000000,0.000000,-1,-1.743760,-2.440846,-0.615949,-0.064625,0.038299,-0.061600
"2019-04-16 05:08:29.330 +0000",1555391309.330028,-0.324594,0.548726,-0.242151,-0.272103,-0.521601,-0.808636,0.000000,0.000000,0.000000,-1,-2.235307,-2.215974,-0.306778,-0.030265,0.075526,0.038952
"2019-04-16 05:08:29.352 +0000",1555391309.352333,-0.358508,0.506832,-0.263356,-0.306768,-0.485410,-0.818701,0.000000,0.000000,0.000000,-1,-1.826512,-1.920912,-0.078481,-0.080515,-0.074207,0.147604
"2019-04-16 05:08:29.375 +0000",1555391309.374604,-0.400955,0.480166,-0.276594,-0.346162,-0.461927,-0.816575,0.000000,0.000000,0.000000,-1,-1.034043,-2.514620,-0.046820,-0.067015,-0.114108,0.285035
"2019-04-16 05:08:29.397 +0000",1555391309.396909,-0.453286,0.465245,-0.290612,-0.391376,-0.448642,-0.803459,0.000000,0.000000,0.000000,-1,-0.727107,-2.592256,-0.434289,-0.023816,0.094028,0.250251
"2019-04-16 05:08:29.419 +0000",1555391309.419214,-0.511712,0.466300,-0.321131,-0.437392,-0.449585,-0.778821,0.000000,0.000000,0.000000,-1,-0.580711,-3.837710,-1.544620,-0.049424,0.160476,0.267941
"2019-04-16 05:08:29.441 +0000",1555391309.441486,-0.588095,0.470078,-0.381174,-0.494602,-0.452955,-0.741755,0.000000,0.000000,0.000000,-1,-1.503039,-5.049255,-2.357980,0.033680,-0.016832,0.377375
"2019-04-16 05:08:29.464 +0000",1555391309.463792,-0.668454,0.461713,-0.462410,-0.554878,-0.445483,-0.702607,0.000000,0.000000,0.000000,-1,-2.575743,-5.234337,-2.385329,0.072547,0.206759,0.317521
"2019-04-16 05:08:29.486 +0000",1555391309.486095,-0.747262,0.447441,-0.550843,-0.612728,-0.432660,-0.661339,0.000000,0.000000,0.000000,-1,-2.882523,-5.375337,-2.230381,0.133602,0.129041,0.288186
"2019-04-16 05:08:29.508 +0000",1555391309.508368,-0.835877,0.428550,-0.631846,-0.674795,-0.415552,-0.609891,0.000000,0.000000,0.000000,-1,-2.931126,-5.447714,-1.217479,0.247824,0.064890,0.343580
"2019-04-16 05:08:29.531 +0000",1555391309.530675,-0.920486,0.399115,-0.691531,-0.733343,-0.388603,-0.557849,0.000000,0.000000,0.000000,-1,-2.570529,-4.618532,-0.286836,0.221426,0.137489,0.253116
"2019-04-16 05:08:29.553 +0000",1555391309.552972,-1.000681,0.375355,-0.746150,-0.783228,-0.366602,-0.502152,0.000000,0.000000,0.000000,-1,-2.400187,-4.573168,-0.663049,0.483759,0.114634,0.135071
"2019-04-16 05:08:29.575 +0000",1555391309.575274,-1.088325,0.373084,-0.808009,-0.824912,-0.364489,-0.432052,0.000000,0.000000,0.000000,-1,-2.306131,-5.236876,-1.479596,0.381796,-0.040068,0.177917
"2019-04-16 05:08:29.598 +0000",1555391309.597555,-1.180115,0.380281,-0.874470,-0.858593,-0.371181,-0.353613,0.000000,0.000000,0.000000,-1,-2.353263,-5.140501,-1.365101,0.234585,0.069683,0.120871
"2019-04-16 05:08:29.620 +0000",1555391309.619858,-1.268821,0.387725,-0.934333,-0.883881,-0.378083,-0.275331,0.000000,0.000000,0.000000,-1,-2.132284,-4.755456,-1.069454,0.197373,0.266129,0.001450
"2019-04-16 05:08:29.642 +0000",1555391309.642162,-1.341536,0.394036,-0.979181,-0.899207,-0.383918,-0.209842,0.000000,0.000000,0.000000,-1,-1.392544,-3.581539,-0.423312,0.297339,0.141166,0.114657
"2019-04-16 05:08:29.664 +0000",1555391309.664437,-1.406628,0.378208,-0.995194,-0.916833,-0.369255,-0.151882,0.000000,0.000000,0.000000,-1,-0.407492,-3.201091,1.146739,0.176370,0.035759,0.038463
"2019-04-16 05:08:29.687 +0000",1555391309.686753,-1.482669,0.345690,-0.985366,-0.937191,-0.338846,-0.082806,0.000000,0.000000,0.000000,-1,0.515861,-3.014979,1.464320,-0.075917,-0.094412,0.045987
"2019-04-16 05:08:29.709 +0000",1555391309.709045,-1.547375,0.315754,-0.968803,-0.950302,-0.310533,-0.022261,0.000000,0.000000,0.000000,-1,0.519876,-2.386538,1.420286,-0.187332,-0.160216,-0.025056
"2019-04-16 05:08:29.731 +0000",1555391309.731349,-1.595227,0.285481,-0.967331,-0.959240,-0.281619,0.023440,0.000000,0.000000,0.000000,-1,-0.344745,-2.044269,1.270494,-0.299595,-0.060208,-0.107775
"2019-04-16 05:08:29.754 +0000",1555391309.753615,-1.638979,0.266060,-0.994617,-0.962573,-0.262932,0.065733,0.000000,0.000000,0.000000,-1,-1.546683,-2.519486,0.667573,-0.421857,-0.052605,-0.112592
"2019-04-16 05:08:29.776 +0000",1555391309.775926,-1.689278,0.258029,-1.040265,-0.960116,-0.255175,0.114292,0.000000,0.000000,0.000000,-1,-2.129133,-2.920913,0.628708,-0.493512,-0.155698,-0.263691
"2019-04-16 05:08:29.798 +0000",1555391309.798229,-1.745551,0.242903,-1.099889,-0.955860,-0.240521,0.168762,0.000000,0.000000,0.000000,-1,-2.672228,-3.192784,1.279339,-0.422863,-0.074695,-0.304993
"2019-04-16 05:08:29.821 +0000",1555391309.820503,-1.792022,0.225860,-1.165272,-0.950850,-0.223944,0.213852,0.000000,0.000000,0.000000,-1,-2.525383,-2.445191,1.174764,-0.361940,-0.065698,-0.359269
"2019-04-16 05:08:29.843 +0000",1555391309.842809,-1.819754,0.228121,-1.209126,-0.944062,-0.226147,0.240010,0.000000,0.000000,0.000000,-1,-1.451683,-1.188187,-0.272481,-0.568710,-0.067737,-0.209676
"2019-04-16 05:08:29.865 +0000",1555391309.865099,-1.830665,0.251710,-1.237598,-0.935970,-0.249060,0.248857,0.000000,0.000000,0.000000,-1,-1.859845,-0.710570,-0.783036,-0.458424,-0.177255,-0.236131
"2019-04-16 05:08:29.887 +0000",1555391309.887385,-1.834881,0.286177,-1.290738,-0.926072,-0.282287,0.250410,0.000000,0.000000,0.000000,-1,-2.801890,-0.927323,-1.061878,-0.450652,-0.016084,-0.256056
"2019-04-16 05:08:29.910 +0000",1555391309.909689,-1.847153,0.329053,-1.334806,-0.910440,-0.323147,0.258214,0.000000,0.000000,0.000000,-1,-1.979638,-1.151244,-1.478841,-0.255484,-0.428409,-0.275090
"2019-04-16 05:08:29.932 +0000",1555391309.931994,-1.867518,0.374011,-1.358100,-0.890191,-0.365352,0.272174,0.000000,0.000000,0.000000,-1,-1.369063,-1.361441,-1.822824,-0.237922,-0.331731,-0.220081
"2019-04-16 05:08:29.954 +0000",1555391309.954298,-1.872739,0.444343,-1.376992,-0.862047,-0.429865,0.268498,0.000000,0.000000,0.000000,-1,-1.856394,0.215174,-3.477023,-0.216536,-0.078405,-0.202474
"2019-04-16 05:08:29.977 +0000",1555391309.976567,-1.851105,0.545224,-1.390120,-0.821640,-0.518610,0.236541,0.000000,0.000000,0.000000,-1,-1.599680,0.825952,-4.299851,-0.083527,-0.028814,-0.132445
"2019-04-16 05:08:29.999 +0000",1555391309.998875,-1.832380,0.624673,-1.394443,-0.783561,-0.584832,0.209773,0.000000,0.000000,0.000000,-1,-0.813015,0.502936,-2.660373,-0.097787,0.039635,0.081044
"2019-04-16 05:08:30.021 +0000",1555391310.021181,-1.833444,0.644683,-1.384968,-0.771879,-0.600945,0.207526,0.000000,0.000000,0.000000,-1,0.521998,0.196238,-0.359598,-0.187822,0.347375,-0.016150
"2019-04-16 05:08:30.043 +0000",1555391310.043453,-1.844526,0.657420,-1.369984,-0.762101,-0.611076,0.213981,0.000000,0.000000,0.000000,-1,0.140578,-0.305511,-0.914791,-0.037002,0.222557,0.039727
"2019-04-16 05:08:30.066 +0000",1555391310.065756,-1.855328,0.675497,-1.367994,-0.749019,-0.625285,0.219063,0.000000,0.000000,0.000000,-1,-0.291032,-0.379605,-0.622791,-0.229466,-0.385259,-0.101204
"2019-04-16 05:08:30.088 +0000",1555391310.088062,-1.859398,0.682195,-1.373155,-0.744090,-0.630498,0.220913,0.000000,0.000000,0.000000,-1,-0.242437,-0.263186,-0.106498,0.129801,0.272756,-0.110836
"2019-04-16 05:08:30.110 +0000",1555391310.110366,-1.855042,0.697461,-1.390721,-0.735720,-0.642273,0.214945,0.000000,0.000000,0.000000,-1,-1.338660,-0.231490,-1.016566,0.151506,0.004044,0.021627
"2019-04-16 05:08:30.133 +0000",1555391310.132638,-1.835581,0.755841,-1.426790,-0.702334,-0.685901,0.190438,0.000000,0.000000,0.000000,-1,-1.589102,-0.453538,-2.105137,-0.171674,0.037128,-0.048028
"2019-04-16 05:08:30.155 +0000",1555391310.154943,-1.825045,0.804775,-1.466462,-0.670987,-0.720675,0.174371,0.000000,0.000000,0.000000,-1,-2.507104,-1.070894,-1.957388,-0.176105,0.248735,0.004340
"2019-04-16 05:08:30.177 +0000",1555391310.177248,-1.776437,0.866348,-1.541591,-0.633968,-0.761969,0.132239,0.000000,0.000000,0.000000,-1,-2.791070,0.475018,-2.028297,-0.165958,0.726630,0.194528
"2019-04-16 05:08:30.200 +0000",1555391310.199538,-1.666170,0.893654,-1.684442,-0.623721,-0.779366,0.059668,0.000000,0.000000,0.000000,-1,-4.918920,-0.626900,0.193697,-0.109998,0.279885,0.169992
"2019-04-16 05:08:30.222 +0000",1555391310.221824,-1.560236,0.918036,-1.823186,-0.607348,-0.794410,-0.006414,0.000000,0.000000,0.000000,-1,-2.680735,0.706056,-1.463374,0.247561,0.425499,0.112508
"2019-04-16 05:08:30.244 +0000",1555391310.244128,-1.566992,0.932826,-1.822043,-0.595562,-0.803306,-0.002266,0.000000,0.000000,0.000000,-1,1.280577,-1.062587,-0.221564,0.876934,0.223014,0.010140
"2019-04-16 05:08:30.266 +0000",1555391310.266434,-1.624207,0.944842,-1.762482,-0.585036,-0.810404,0.031277,0.000000,0.000000,0.000000,-1,1.465399,-0.001081,-0.909483,0.113783,-0.157323,-0.114025
"2019-04-16 05:08:30.289 +0000",1555391310.288699,-1.640160,0.968453,-1.727375,-0.565212,-0.824010,0.039268,0.000000,0.000000,0.000000,-1,0.464517,0.602235,-1.297354,-0.168949,-1.024851,-0.979133
"2019-04-16 05:08:30.311 +0000",1555391310.311010,-1.650063,1.002286,-1.714192,-0.536687,-0.842704,0.042631,0.000000,0.000000,0.000000,-1,0.215254,-0.320702,-1.671354,-0.411479,-0.367272,-0.479291
"2019-04-16 05:08:30.333 +0000",1555391310.333316,-1.719960,1.047104,-1.685260,-0.494528,-0.865979,0.074318,0.000000,0.000000,0.000000,-1,0.579301,-1.944132,-2.251007,-0.531747,0.075558,0.180611
"2019-04-16 05:08:30.356 +0000",1555391310.355608,-1.773701,1.103181,-1.639716,-0.441511,-0.892646,0.090835,0.000000,0.000000,0.000000,-1,0.025056,-0.014068,-2.840266,-0.244676,0.290153,-0.078170
"2019-04-16 05:08:30.378 +0000",1555391310.377902,-1.782661,1.157102,-1.634912,-0.393006,-0.915642,0.084533,0.000000,0.000000,0.000000,-1,-0.144571,0.171094,-2.019504,0.039628,0.121575,-0.297698
"2019-04-16 05:08:30.400 +0000",1555391310.400197,-1.802992,1.178987,-1.616334,-0.371614,-0.924220,0.087872,0.000000,0.000000,0.000000,-1,0.054355,-0.379040,-0.514722,0.000077,-0.088628,0.124515
"2019-04-16 05:08:30.422 +0000",1555391310.422484,-1.792031,1.179273,-1.629758,-0.372296,-0.924329,0.083735,0.000000,0.000000,0.000000,-1,-0.244417,0.090098,0.271211,0.350675,-0.138293,-0.108378
"2019-04-16 05:08:30.445 +0000",1555391310.444776,-1.794778,1.176434,-1.624633,-0.374622,-0.923242,0.085340,0.000000,0.000000,0.000000,-1,0.217314,0.033909,0.005191,0.542576,-0.248618,-0.206495
"2019-04-16 05:08:30.467 +0000",1555391310.467080,-1.797225,1.174647,-1.621694,-0.376019,-0.922554,0.086627,0.000000,0.000000,0.000000,-1,0.035022,0.055530,0.208369,0.202908,-0.129997,0.039441
"2019-04-16 05:08:30.489 +0000",1555391310.489376,-1.818360,1.159587,-1.580385,-0.387532,-0.916638,0.097948,0.000000,0.000000,0.000000,-1,1.461385,1.172468,0.677915,-0.008617,0.032559,-0.091890
"2019-04-16 05:08:30.512 +0000",1555391310.511662,-1.875112,1.126902,-1.484803,-0.409727,-0.903086,0.128683,0.000000,0.000000,0.000000,-1,2.226816,1.320538,1.029242,0.282117,0.342158,0.087381
"2019-04-16 05:08:30.534 +0000",1555391310.533962,-1.873169,1.109908,-1.482995,-0.424567,-0.895658,0.132439,0.000000,0.000000,0.000000,-1,-0.881822,-0.290187,-0.020936,0.361396,0.131299,-0.076668
"2019-04-16 05:08:30.556 +0000",1555391310.556267,-1.782568,1.132834,-1.563210,-0.414621,-0.905618,0.089141,0.000000,0.000000,0.000000,-1,-1.510692,1.226197,-0.692152,0.237619,0.021996,-0.446823
"2019-04-16 05:08:30.579 +0000",1555391310.578543,-1.754319,1.148375,-1.586017,-0.403086,-0.912099,0.074817,0.000000,0.000000,0.000000,-1,-0.214239,-0.124831,-0.597728,-0.502127,0.924611,0.755917
"2019-04-16 05:08:30.601 +0000",1555391310.600844,-1.776047,1.160318,-1.558919,-0.390672,-0.916930,0.081331,0.000000,0.000000,0.000000,-1,0.879664,0.326913,-0.645929,-0.080138,0.249159,0.468397
"2019-04-16 05:08:30.623 +0000",1555391310.623148,-1.828531,1.171946,-1.480450,-0.375532,-0.921508,0.098989,0.000000,0.000000,0.000000,-1,1.110988,1.148759,-0.963261,0.210554,-0.155061,-0.736745
"2019-04-16 05:08:30.645 +0000",1555391310.645447,-1.852616,1.199235,-1.438437,-0.348748,-0.931762,0.100972,0.000000,0.000000,0.000000,-1,-0.035750,0.275263,-1.496874,0.012566,-0.196611,-0.089512
"2019-04-16 05:08:30.668 +0000",1555391310.667727,-1.860567,1.214298,-1.427515,-0.334445,-0.937125,0.099719,0.000000,0.000000,0.000000,-1,0.135420,0.232689,-0.116941,-0.001416,-0.077448,-0.040820
"2019-04-16 05:08:30.690 +0000",1555391310.690032,-1.830723,1.218832,-1.416898,-0.333162,-0.938698,0.088602,0.000000,0.000000,0.000000,-1,0.175276,2.972717,-0.955041,-0.093962,-0.033272,0.065329
"2019-04-16 05:08:30.712 +0000",1555391310.712336,-1.859164,1.274374,-1.315798,-0.280039,-0.956388,0.083070,0.000000,0.000000,0.000000,-1,0.957663,2.607996,-3.742686,0.206706,0.217496,-0.082612
"2019-04-16 05:08:30.735 +0000",1555391310.734609,-1.968229,1.344439,-1.164659,-0.206937,-0.974490,0.086866,0.000000,0.000000,0.000000,-1,0.446845,0.864226,-3.215082,-0.145785,0.134463,0.089175
"2019-04-16 05:08:30.757 +0000",1555391310.756916,-2.213996,1.386522,-0.900044,-0.146620,-0.983069,0.109896,0.000000,0.000000,0.000000,-1,1.950826,0.969293,-2.612468,-0.420000,-0.944940,-0.380480
"2019-04-16 05:08:30.779 +0000",1555391310.779218,-2.590724,1.385470,-0.486678,-0.096451,-0.982876,0.157009,0.000000,0.000000,0.000000,-1,2.128823,1.344167,-2.397384,-0.911911,-0.203434,-0.031886
"2019-04-16 05:08:30.802 +0000",1555391310.801982,-2.828620,1.376259,-0.222354,-0.059519,-0.981137,0.183922,0.000000,0.000000,0.000000,-1,0.370549,-0.078728,-1.465062,0.585306,-0.001361,-0.514046
"2019-04-16 05:08:30.824 +0000",1555391310.824255,-2.909088,1.376821,-0.148748,-0.044415,-0.981246,0.187574,0.000000,0.000000,0.000000,-1,-0.024607,0.077032,-0.269492,0.292340,0.034423,-0.195081
"2019-04-16 05:08:30.847 +0000",1555391310.846560,-2.882717,1.384455,-0.170688,-0.047427,-0.982689,0.179092,0.000000,0.000000,0.000000,-1,-0.565339,0.230287,0.293362,0.070605,-0.112343,0.298417
"2019-04-16 05:08:30.869 +0000",1555391310.868851,-2.786388,1.401080,-0.269260,-0.058741,-0.985633,0.158359,0.000000,0.000000,0.000000,-1,-1.218966,-0.383586,0.676896,0.410304,-0.382028,0.130612
"2019-04-16 05:08:30.891 +0000",1555391310.891161,-2.605617,1.423323,-0.484727,-0.075039,-0.989146,0.126334,0.000000,0.000000,0.000000,-1,-1.612324,-2.180593,1.103298,0.240734,-0.113439,0.014795
"2019-04-16 05:08:30.913 +0000",1555391310.913441,-2.409807,1.426692,-0.744830,-0.095957,-0.989635,0.106840,0.000000,0.000000,0.000000,-1,-0.920897,-2.713575,1.262152,0.216822,-0.062947,0.147737
"2019-04-16 05:08:30.936 +0000",1555391310.935747,-2.271475,1.423002,-0.927851,-0.112564,-0.989098,0.094942,0.000000,0.000000,0.000000,-1,-1.372023,-1.538000,0.556821,0.176757,0.256936,0.468901
"2019-04-16 05:08:30.958 +0000",1555391310.958051,-2.246628,1.435032,-0.974046,-0.105597,-0.990798,0.084666,0.000000,0.000000,0.000000,-1,0.086403,0.575564,-0.199438,0.206183,-0.149888,-0.323619
"2019-04-16 05:08:30.980 +0000",1555391310.980325,-2.253189,1.433280,-0.966508,-0.106386,-0.990559,0.086452,0.000000,0.000000,0.000000,-1,0.093385,-0.199485,0.105175,0.129671,0.536153,-0.135494
"2019-04-16 05:08:31.003 +0000",1555391311.002629,-2.263024,1.430754,-0.961322,-0.107456,-0.990210,0.089091,0.000000,0.000000,0.000000,-1,0.070516,-0.187476,0.031867,-0.286648,0.259253,-0.074000
"2019-04-16 05:08:31.025 +0000",1555391311.024916,-2.271246,1.429902,-0.955554,-0.107365,-0.990091,0.090515,0.000000,0.000000,0.000000,-1,0.037814,-0.075703,-0.008837,-0.047893,-0.117423,-0.108642
"2019-04-16 05:08:31.047 +0000",1555391311.047208,-2.280609,1.430106,-0.947957,-0.106360,-0.990119,0.091385,0.000000,0.000000,0.000000,-1,0.035104,-0.112775,-0.051928,0.100668,-0.058419,-0.043548
"2019-04-16 05:08:31.070 +0000",1555391311.069512,-2.296425,1.430645,-0.935601,-0.104502,-0.990195,0.092701,0.000000,0.000000,0.000000,-1,0.043725,-0.179308,-0.079866,0.112376,-0.004587,-0.030003
"2019-04-16 05:08:31.092 +0000",1555391311.091823,-2.312842,1.431453,-0.923579,-0.102376,-0.990307,0.093864,0.000000,0.000000,0.000000,-1,0.028685,-0.214954,-0.070872,0.108541,-0.009662,-0.056251
"2019-04-16 05:08:31.114 +0000",1555391311.114119,-2.327817,1.432268,-0.913375,-0.100372,-0.990420,0.094832,0.000000,0.000000,0.000000,-1,0.011144,-0.216172,-0.065907,0.106232,-0.005414,-0.052656
"2019-04-16 05:08:31.136 +0000",1555391311.136394,-2.339645,1.433309,-0.906738,-0.098503,-0.990564,0.095295,0.000000,0.000000,0.000000,-1,-0.010159,-0.254271,-0.054413,0.097633,-0.011451,-0.045185
"2019-04-16 05:08:31.159 +0000",1555391311.158697,-2.349780,1.433904,-0.903297,-0.097113,-0.990645,0.095875,0.000000,0.000000,0.000000,-1,0.006234,-0.331632,-0.020225,0.096639,-0.024324,-0.028171
"2019-04-16 05:08:31.181 +0000",1555391311.181002,-2.358069,1.433832,-0.902871,-0.096364,-0.990635,0.096726,0.000000,0.000000,0.000000,-1,-0.001200,-0.361053,0.007325,0.110128,-0.015575,-0.053117
"2019-04-16 05:08:31.203 +0000",1555391311.203277,-2.365291,1.433643,-0.903752,-0.095795,-0.990609,0.097554,0.000000,0.000000,0.000000,-1,-0.001205,-0.359827,0.006074,0.114380,-0.012290,-0.056645
"2019-04-16 05:08:31.226 +0000",1555391311.225580,-2.374432,1.433742,-0.902199,-0.094832,-0.990623,0.098355,0.000000,0.000000,0.000000,-1,0.006212,-0.326735,-0.026471,0.101347,-0.013253,-0.047757
"2019-04-16 05:08:31.248 +0000",1555391311.247875,-2.381177,1.449201,-0.901813,-0.083600,-0.992616,0.087885,0.000000,0.000000,0.000000,-1,0.023732,-0.264041,-0.039535,0.052747,-0.000929,-0.062403
"2019-04-16 05:08:31.270 +0000",1555391311.270189,-2.368516,1.459448,-0.918993,-0.077599,-0.993807,0.079535,0.000000,0.000000,0.000000,-1,0.043757,-0.184116,-0.056425,0.014900,-0.000929,-0.066626
"2019-04-16 05:08:31.293 +0000",1555391311.292517,-2.332672,1.465048,-0.957346,-0.076371,-0.994414,0.072860,0.000000,0.000000,0.000000,-1,0.087685,-0.101633,-0.055921,-0.012924,-0.004869,-0.064178
"2019-04-16 05:08:31.315 +0000",1555391311.314770,-2.356106,1.464127,-0.934202,-0.075290,-0.994316,0.075277,0.000000,0.000000,0.000000,-1,0.116694,0.034989,-0.039754,-0.037549,-0.005943,-0.085546
"2019-04-16 05:08:31.337 +0000",1555391311.337070,-2.377705,1.462465,-0.910099,-0.074790,-0.994138,0.078079,0.000000,0.000000,0.000000,-1,0.144417,0.144534,-0.027068,-0.030252,-0.005847,-0.078826
"2019-04-16 05:08:31.359 +0000",1555391311.359346,-2.399449,1.460660,-0.883817,-0.074288,-0.993941,0.081009,0.000000,0.000000,0.000000,-1,0.149421,0.225661,-0.043913,-0.030143,-0.005937,-0.076111
"2019-04-16 05:08:31.382 +0000",1555391311.381651,-2.420405,1.458555,-0.856568,-0.073955,-0.993708,0.084119,0.000000,0.000000,0.000000,-1,0.163321,0.297066,-0.030895,-0.024281,0.005625,-0.067853
"2019-04-16 05:08:31.404 +0000",1555391311.403950,-2.437962,1.456382,-0.831616,-0.073864,-0.993462,0.087051,0.000000,0.000000,0.000000,-1,0.144541,0.336432,-0.028772,0.000012,0.009224,-0.049637
"2019-04-16 05:08:31.426 +0000",1555391311.426260,-2.448122,1.454597,-0.813391,-0.074109,-0.993257,0.089160,0.000000,0.000000,0.000000,-1,0.110728,0.364744,-0.020354,0.025906,-0.000060,-0.043765
"2019-04-16 05:08:31.449 +0000",1555391311.448535,-2.462400,1.458105,-0.790541,-0.070639,-0.993657,0.087497,0.000000,0.000000,0.000000,-1,0.081904,0.393039,-0.015698,0.031042,-0.014979,-0.025776
"2019-04-16 05:08:31.471 +0000",1555391311.470824,-2.462409,1.457312,-0.781756,-0.071133,-0.993568,0.088111,0.000000,0.000000,0.000000,-1,0.044264,0.386868,-0.016900,0.027294,-0.040978,0.010690
"2019-04-16 05:08:31.493 +0000",1555391311.493144,-2.461109,1.456953,-0.775071,-0.071472,-0.993527,0.088295,0.000000,0.000000,0.000000,-1,0.029157,0.333947,-0.021399,0.041336,-0.036838,0.037071
"2019-04-16 05:08:31.515 +0000",1555391311.515440,-2.461172,1.457051,-0.768154,-0.071405,-0.993538,0.088224,0.000000,0.000000,0.000000,-1,0.012774,0.285923,-0.032145,0.077539,-0.028557,0.051531
"2019-04-16 05:08:31.538 +0000",1555391311.537722,-2.463014,1.457343,-0.760601,-0.071061,-0.993571,0.088130,0.000000,0.000000,0.000000,-1,0.016457,0.232986,-0.042838,0.089448,-0.020879,0.067250
"2019-04-16 05:08:31.560 +0000",1555391311.560061,-2.466721,1.457845,-0.752462,-0.070422,-0.993628,0.088004,0.000000,0.000000,0.000000,-1,0.006367,0.178838,-0.047324,0.097232,-0.001535,0.072717
"2019-04-16 05:08:31.582 +0000",1555391311.582331,-2.472133,1.458404,-0.743794,-0.069600,-0.993691,0.087948,0.000000,0.000000,0.000000,-1,0.008838,0.121024,-0.046810,0.091832,0.000969,0.066013
"2019-04-16 05:08:31.605 +0000",1555391311.604605,-2.479547,1.458551,-0.734127,-0.068856,-0.993707,0.088346,0.000000,0.000000,0.000000,-1,0.041475,0.079262,-0.034020,0.098748,-0.005957,0.050890
"2019-04-16 05:08:31.627 +0000",1555391311.626909,-2.500690,1.457963,-0.714028,-0.067323,-0.993641,0.090251,0.000000,0.000000,0.000000,-1,0.123744,-0.087157,-0.132991,0.086381,0.009037,0.012364
"2019-04-16 05:08:31.649 +0000",1555391311.649215,-2.546623,1.457247,-0.665154,-0.063506,-0.993560,0.093836,0.000000,0.000000,0.000000,-1,0.187643,0.158673,-0.192211,0.077712,-0.003647,0.024008
"2019-04-16 05:08:31.671 +0000",1555391311.671487,-2.662775,1.457594,-0.542000,-0.052045,-0.993599,0.100257,0.000000,0.000000,0.000000,-1,0.226829,0.435511,-0.169927,0.108166,-0.003501,-0.042533
"2019-04-16 05:08:31.694 +0000",1555391311.693791,-2.713685,1.454238,-0.477071,-0.048259,-0.993215,0.105809,0.000000,0.000000,0.000000,-1,0.288220,0.643230,-0.222607,-0.202810,0.011754,-0.067738
"2019-04-16 05:08:31.716 +0000",1555391311.716096,-2.736706,1.450995,-0.442189,-0.047079,-0.992832,0.109851,0.000000,0.000000,0.000000,-1,0.170968,0.517178,-0.040419,-0.125346,-0.008709,-0.024784
"2019-04-16 05:08:31.738 +0000",1555391311.738401,-2.717272,1.449021,-0.451589,-0.050011,-0.992595,0.110702,0.000000,0.000000,0.000000,-1,-0.027860,0.356629,0.137078,0.020089,0.016413,-0.051849
"2019-04-16 05:08:31.761 +0000",1555391311.760677,-2.678174,1.449122,-0.484670,-0.054256,-0.992607,0.108573,0.000000,0.000000,0.000000,-1,-0.084270,0.270584,0.160147,0.110271,-0.032967,-0.073997
"2019-04-16 05:08:31.783 +0000",1555391311.782980,-2.641320,1.449236,-0.516321,-0.058165,-0.992621,0.106401,0.000000,0.000000,0.000000,-1,-0.108194,0.223772,0.145666,0.195418,-0.072000,-0.077531
"2019-04-16 05:08:31.805 +0000",1555391311.805285,-2.597822,1.450906,-0.555816,-0.061879,-0.992822,0.102352,0.000000,0.000000,0.000000,-1,-0.199781,0.178228,0.148512,0.140141,-0.048819,-0.050716
"2019-04-16 05:08:31.828 +0000",1555391311.827559,-2.559852,1.452530,-0.590490,-0.064833,-0.993015,0.098582,0.000000,0.000000,0.000000,-1,-0.102195,0.147297,0.091763,0.071334,-0.038037,-0.021052
"2019-04-16 05:08:31.850 +0000",1555391311.849863,-2.556559,1.451844,-0.590586,-0.065534,-0.992933,0.098936,0.000000,0.000000,0.000000,-1,0.080448,0.144449,-0.028466,0.067335,0.000242,0.042650
"2019-04-16 05:08:31.872 +0000",1555391311.872168,-2.577656,1.450903,-0.566291,-0.063932,-0.992821,0.101086,0.000000,0.000000,0.000000,-1,0.111473,0.129356,-0.113830,0.090619,0.029565,0.032413
"2019-04-16 05:08:31.894 +0000",1555391311.894441,-2.606308,1.450343,-0.534906,-0.061293,-0.992754,0.103354,0.000000,0.000000,0.000000,-1,0.106354,0.097294,-0.133396,0.096953,0.029360,0.002130
"2019-04-16 05:08:31.917 +0000",1555391311.916735,-2.633325,1.449650,-0.506222,-0.058813,-0.992671,0.105573,0.000000,0.000000,0.000000,-1,0.102662,0.043268,-0.106867,0.029440,0.000392,-0.000226
"2019-04-16 05:08:31.939 +0000",1555391311.939052,-2.652307,1.448959,-0.486816,-0.057122,-0.992587,0.107276,0.000000,0.000000,0.000000,-1,0.062699,0.001619,-0.056893,0.030266,-0.011838,-0.000282
"2019-04-16 05:08:31.961 +0000",1555391311.961355,-2.661752,1.448519,-0.477870,-0.056307,-0.992534,0.108198,0.000000,0.000000,0.000000,-1,0.023942,-0.049909,-0.016755,0.047198,-0.020437,-0.006956
"2019-04-16 05:08:31.984 +0000",1555391311.983630,-2.662744,1.448641,-0.478626,-0.056144,-0.992548,0.108147,0.000000,0.000000,0.000000,-1,-0.027385,-0.089174,0.014585,0.070732,-0.015981,-0.009407
"2019-04-16 05:08:32.006 +0000",1555391312.005934,-2.654750,1.449393,-0.488896,-0.056658,-0.992640,0.107034,0.000000,0.000000,0.000000,-1,-0.077425,-0.092756,0.048090,0.075700,-0.021063,-0.017313
"2019-04-16 05:08:32.028 +0000",1555391312.028233,-2.687537,1.456803,-0.458115,-0.049891,-0.993510,0.102222,0.000000,0.000000,0.000000,-1,-0.136324,-0.047245,0.057512,0.067500,-0.028020,-0.014011
"2019-04-16 05:08:32.051 +0000",1555391312.050537,-2.667174,1.459057,-0.478578,-0.050939,-0.993764,0.099192,0.000000,0.000000,0.000000,-1,-0.125064,0.032640,0.036959,0.060643,-0.024471,-0.001551
"2019-04-16 05:08:32.073 +0000",1555391312.072816,-2.711858,1.464851,-0.432748,-0.044057,-0.994393,0.096132,0.000000,0.000000,0.000000,-1,-0.073779,0.085375,-0.005733,0.023412,-0.009849,-0.005052
"2019-04-16 05:08:32.095 +0000",1555391312.095121,-2.715400,1.466519,-0.426846,-0.043031,-0.994568,0.094777,0.000000,0.000000,0.000000,-1,-0.022367,0.118575,-0.014699,0.011201,-0.003845,-0.003072
"2019-04-16 05:08:32.117 +0000",1555391312.117426,-2.722144,1.466928,-0.417539,-0.042225,-0.994611,0.094694,0.000000,0.000000,0.000000,-1,0.002700,0.103813,-0.017045,0.002873,0.001370,-0.000258
"2019-04-16 05:08:32.140 +0000",1555391312.139705,-2.724215,1.466486,-0.413647,-0.042207,-0.994565,0.095183,0.000000,0.000000,0.000000,-1,0.013982,0.064468,-0.012968,0.014390,-0.001438,-0.007384
"2019-04-16 05:08:32.162 +0000",1555391312.162001,-2.727661,1.466118,-0.409254,-0.042026,-0.994526,0.095663,0.000000,0.000000,0.000000,-1,0.029004,0.033712,-0.015170,0.016590,-0.006511,-0.016515
"2019-04-16 05:08:32.184 +0000",1555391312.184309,-2.742144,1.467307,-0.393922,-0.040177,-0.994650,0.095173,0.000000,0.000000,0.000000,-1,0.032692,0.042256,-0.032626,0.018875,-0.006357,-0.016132
"2019-04-16 05:08:32.207 +0000",1555391312.206585,-2.751667,1.466671,-0.383483,-0.039508,-0.994584,0.096135,0.000000,0.000000,0.000000,-1,0.046484,0.041027,-0.033849,0.028537,-0.005111,-0.005116
"2019-04-16 05:08:32.229 +0000",1555391312.228886,-2.810556,1.467612,-0.324112,-0.033478,-0.994681,0.097409,0.000000,0.000000,0.000000,-1,0.018960,0.017703,-0.013862,0.043472,-0.009362,0.007099
"2019-04-16 05:08:32.251 +0000",1555391312.251192,-2.861186,1.467969,-0.274148,-0.028407,-0.994718,0.098637,0.000000,0.000000,0.000000,-1,0.010240,-0.042507,0.008947,0.043269,-0.006427,0.008296
"2019-04-16 05:08:32.273 +0000",1555391312.273498,-2.899723,1.468471,-0.237236,-0.024466,-0.994769,0.099174,0.000000,0.000000,0.000000,-1,-0.011045,-0.068313,0.021529,0.038107,-0.006177,0.002984
"2019-04-16 05:08:32.296 +0000",1555391312.295771,-2.896064,1.468606,-0.242790,-0.024796,-0.994783,0.098953,0.000000,0.000000,0.000000,-1,-0.013557,-0.089217,0.024194,0.036881,-0.021941,-0.002716
"2019-04-16 05:08:32.318 +0000",1555391312.318076,-2.920917,1.469727,-0.220263,-0.022085,-0.994897,0.098451,0.000000,0.000000,0.000000,-1,-0.006082,-0.100331,0.014339,0.026816,-0.012321,-0.002153
"2019-04-16 05:08:32.340 +0000",1555391312.340369,-2.936602,1.470903,-0.206879,-0.020300,-0.995015,0.097639,0.000000,0.000000,0.000000,-1,-0.004884,-0.097921,0.001893,0.005759,-0.007137,-0.008864
"2019-04-16 05:08:32.363 +0000",1555391312.362667,-2.937794,1.471354,-0.207840,-0.020093,-0.995060,0.097224,0.000000,0.000000,0.000000,-1,-0.011184,-0.096717,-0.004322,-0.002887,-0.007351,-0.006739
"2019-04-16 05:08:32.385 +0000",1555391312.384959,-2.939405,1.471906,-0.208346,-0.019826,-0.995114,0.096718,0.000000,0.000000,0.000000,-1,-0.019965,-0.094260,-0.004347,0.001577,-0.002658,-0.001060
"2019-04-16 05:08:32.407 +0000",1555391312.407264,-2.946748,1.472582,-0.203266,-0.018985,-0.995181,0.096202,0.000000,0.000000,0.000000,-1,-0.017442,-0.102852,0.000685,0.010410,-0.001905,-0.000774
"2019-04-16 05:08:32.430 +0000",1555391312.429569,-2.954032,1.473153,-0.198345,-0.018178,-0.995237,0.095778,0.000000,0.000000,0.000000,-1,-0.017450,-0.106548,-0.000530,0.015355,-0.007022,-0.001983
"2019-04-16 05:08:32.452 +0000",1555391312.451844,-2.964756,1.473765,-0.189892,-0.017043,-0.995296,0.095368,0.000000,0.000000,0.000000,-1,-0.007414,-0.093019,-0.001897,0.010542,-0.006459,-0.003144
"2019-04-16 05:08:32.474 +0000",1555391312.474149,-2.971869,1.474428,-0.184652,-0.016252,-0.995360,0.094836,0.000000,0.000000,0.000000,-1,-0.018711,-0.077048,-0.005772,0.006075,-0.005922,-0.002216
"2019-04-16 05:08:32.496 +0000",1555391312.496453,-2.976247,1.474946,-0.181788,-0.015752,-0.995410,0.094398,0.000000,0.000000,0.000000,-1,-0.023702,-0.061045,-0.002199,0.004857,-0.006131,0.002099
"2019-04-16 05:08:32.519 +0000",1555391312.518727,-2.979837,1.475623,-0.179369,-0.015305,-0.995474,0.093789,0.000000,0.000000,0.000000,-1,-0.031195,-0.048724,0.003886,0.006897,-0.007867,0.000480
"2019-04-16 05:08:32.541 +0000",1555391312.541032,-2.981843,1.476454,-0.178325,-0.014985,-0.995553,0.093003,0.000000,0.000000,0.000000,-1,-0.032401,-0.035156,0.013682,0.008057,-0.009726,-0.001603
"2019-04-16 05:08:32.563 +0000",1555391312.563337,-2.984122,1.477529,-0.176397,-0.014605,-0.995654,0.091980,0.000000,0.000000,0.000000,-1,-0.051200,-0.001958,0.012130,0.013171,-0.008008,0.001495
"2019-04-16 05:08:32.586 +0000",1555391312.585623,-2.986336,1.478562,-0.174260,-0.014242,-0.995749,0.090995,0.000000,0.000000,0.000000,-1,-0.047442,0.000493,0.009621,0.009207,-0.003701,0.003609
"2019-04-16 05:08:32.608 +0000",1555391312.607915,-2.986695,1.479380,-0.173790,-0.014084,-0.995824,0.090197,0.000000,0.000000,0.000000,-1,-0.013556,0.010362,0.013264,0.005905,-0.003870,-0.004579
"2019-04-16 05:08:32.630 +0000",1555391312.630221,-2.983158,1.479638,-0.177206,-0.014362,-0.995848,0.089891,0.000000,0.000000,0.000000,-1,0.009029,0.004236,0.017047,0.002613,-0.010194,-0.005067
"2019-04-16 05:08:32.653 +0000",1555391312.652526,-2.981964,1.479430,-0.178332,-0.014503,-0.995829,0.090079,0.000000,0.000000,0.000000,-1,0.019033,0.006671,0.009584,0.003486,-0.004339,-0.003608
"2019-04-16 05:08:32.675 +0000",1555391312.674801,-2.979633,1.479285,-0.180332,-0.014736,-0.995816,0.090188,0.000000,0.000000,0.000000,-1,0.014005,0.020186,0.005741,-0.001850,-0.004016,-0.005776
"2019-04-16 05:08:32.697 +0000",1555391312.697104,-2.979533,1.479243,-0.179962,-0.014752,-0.995812,0.090228,0.000000,0.000000,0.000000,-1,0.001449,0.018941,0.003264,0.003643,-0.005348,-0.000171
"2019-04-16 05:08:32.719 +0000",1555391312.719409,-2.983534,1.479470,-0.175536,-0.014355,-0.995833,0.090063,0.000000,0.000000,0.000000,-1,-0.009852,0.016466,0.000792,0.012661,-0.005419,-0.000631
"2019-04-16 05:08:32.742 +0000",1555391312.741694,-2.996129,1.480227,-0.162695,-0.013110,-0.995901,0.089490,0.000000,0.000000,0.000000,-1,-0.013627,0.011536,-0.000427,0.019824,-0.009546,-0.003385
"2019-04-16 05:08:32.764 +0000",1555391312.763988,-2.998978,1.480765,-0.159779,-0.012779,-0.995950,0.088997,0.000000,0.000000,0.000000,-1,-0.022395,0.001709,0.004611,0.019401,-0.007377,-0.002831
"2019-04-16 05:08:32.786 +0000",1555391312.786292,-3.005390,1.481394,-0.153655,-0.012123,-0.996006,0.088457,0.000000,0.000000,0.000000,-1,-0.016120,-0.019182,0.009747,0.017937,-0.007580,-0.003786
"2019-04-16 05:08:32.809 +0000",1555391312.808573,-3.009921,1.481874,-0.149616,-0.011659,-0.996049,0.088037,0.000000,0.000000,0.000000,-1,-0.007338,-0.027794,0.006261,0.012544,-0.009185,-0.000955
"2019-04-16 05:08:32.831 +0000",1555391312.830871,-3.012480,1.482324,-0.147590,-0.011376,-0.996089,0.087621,0.000000,0.000000,0.000000,-1,-0.011138,-0.017993,-0.003756,0.004632,-0.005239,-0.004980
"2019-04-16 05:08:32.853 +0000",1555391312.853178,-3.014950,1.482775,-0.145440,-0.011103,-0.996129,0.087203,0.000000,0.000000,0.000000,-1,-0.011163,-0.014327,-0.009993,0.001933,-0.003978,-0.003524
"2019-04-16 05:08:32.875 +0000",1555391312.875481,-3.017074,1.483160,-0.143920,-0.010870,-0.996162,0.086846,0.000000,0.000000,0.000000,-1,-0.013673,-0.037686,-0.006066,0.002875,-0.005684,0.000053
"2019-04-16 05:08:32.898 +0000",1555391312.897753,-3.023010,1.483527,-0.139217,-0.010311,-0.996194,0.086546,0.000000,0.000000,0.000000,-1,-0.016172,-0.062265,0.000349,0.009853,-0.006049,0.000139
"2019-04-16 05:08:32.920 +0000",1555391312.920060,-3.027980,1.483896,-0.135703,-0.009839,-0.996227,0.086232,0.000000,0.000000,0.000000,-1,-0.013663,-0.061035,0.000333,0.008771,-0.007695,-0.000844
"2019-04-16 05:08:32.942 +0000",1555391312.942372,-3.031800,1.484167,-0.132984,-0.009480,-0.996250,0.086001,0.000000,0.000000,0.000000,-1,-0.004890,-0.040139,-0.004815,0.006825,-0.007046,-0.001269
"2019-04-16 05:08:32.965 +0000",1555391312.964658,-3.033983,1.484180,-0.131531,-0.009291,-0.996251,0.086008,0.000000,0.000000,0.000000,-1,0.007641,-0.026621,-0.009890,-0.004625,-0.001338,-0.002344
"2019-04-16 05:08:32.987 +0000",1555391312.986943,-3.035921,1.483984,-0.130397,-0.009145,-0.996234,0.086219,0.000000,0.000000,0.000000,-1,0.011405,-0.040141,-0.007285,-0.006144,-0.000867,-0.002052
"2019-04-16 05:08:33.009 +0000",1555391313.009248,-3.037097,1.483707,-0.130392,-0.009072,-0.996210,0.086505,0.000000,0.000000,0.000000,-1,0.008895,-0.064729,-0.003344,-0.004523,-0.002310,0.001355
"2019-04-16 05:08:33.032 +0000",1555391313.031529,-3.041423,1.483626,-0.127836,-0.008706,-0.996203,0.086624,0.000000,0.000000,0.000000,-1,0.003865,-0.084413,-0.003174,0.006936,-0.008558,-0.001113
"2019-04-16 05:08:33.054 +0000",1555391313.053828,-3.048118,1.483722,-0.123035,-0.008117,-0.996211,0.086584,0.000000,0.000000,0.000000,-1,0.006369,-0.079497,-0.004463,0.008315,-0.008900,-0.003241
"2019-04-16 05:08:33.076 +0000",1555391313.076133,-3.055035,1.483744,-0.117783,-0.007516,-0.996213,0.086617,0.000000,0.000000,0.000000,-1,0.006374,-0.069657,-0.004556,0.007882,-0.005801,-0.001427
"2019-04-16 05:08:33.098 +0000",1555391313.098438,-3.059224,1.483560,-0.115071,-0.007168,-0.996197,0.086831,0.000000,0.000000,0.000000,-1,0.008896,-0.065956,-0.002108,0.002820,-0.004840,0.001746
"2019-04-16 05:08:33.121 +0000",1555391313.120742,-3.060963,1.483378,-0.114847,-0.007032,-0.996181,0.087024,0.000000,0.000000,0.000000,-1,0.000106,-0.065969,-0.004592,-0.002062,-0.008488,0.003689
"2019-04-16 05:08:33.143 +0000",1555391313.143015,-3.063336,1.483472,-0.113909,-0.006818,-0.996190,0.086947,0.000000,0.000000,0.000000,-1,-0.008655,-0.063498,-0.000897,0.001218,-0.008846,0.003934
"2019-04-16 05:08:33.165 +0000",1555391313.165306,-3.062033,1.483887,-0.116623,-0.006898,-0.996226,0.086525,0.000000,0.000000,0.000000,-1,-0.018698,-0.067197,-0.002105,-0.004530,-0.007329,-0.000832
"2019-04-16 05:08:33.188 +0000",1555391313.187625,-3.062459,1.484332,-0.117635,-0.006827,-0.996264,0.086086,0.000000,0.000000,0.000000,-1,-0.018673,-0.063503,-0.003221,-0.005548,-0.006879,-0.001843
"2019-04-16 05:08:33.210 +0000",1555391313.209900,-3.061838,1.484857,-0.119754,-0.006838,-0.996310,0.085561,0.000000,0.000000,0.000000,-1,-0.018677,-0.068423,-0.003175,-0.003660,-0.005506,-0.002965
"2019-04-16 05:08:33.232 +0000",1555391313.232205,-3.061016,1.485301,-0.122114,-0.006873,-0.996347,0.085114,0.000000,0.000000,0.000000,-1,-0.009875,-0.070855,0.003054,-0.001824,-0.005453,-0.003586
"2019-04-16 05:08:33.255 +0000",1555391313.254513,-3.060754,1.485661,-0.123835,-0.006866,-0.996378,0.084755,0.000000,0.000000,0.000000,-1,-0.008610,-0.065924,0.005493,0.000000,-0.003546,-0.003777
"2019-04-16 05:08:33.277 +0000",1555391313.276815,-3.060251,1.485922,-0.125771,-0.006888,-0.996400,0.084492,0.000000,0.000000,0.000000,-1,-0.004874,-0.065947,-0.000707,-0.003885,-0.004546,-0.002186
"2019-04-16 05:08:33.299 +0000",1555391313.299089,-3.060728,1.486044,-0.126848,-0.006838,-0.996411,0.084375,0.000000,0.000000,0.000000,-1,0.002631,-0.064732,-0.005674,-0.004988,-0.004520,-0.003824
"2019-04-16 05:08:33.321 +0000",1555391313.321393,-3.064538,1.485892,-0.124463,-0.006528,-0.996398,0.084550,0.000000,0.000000,0.000000,-1,0.012636,-0.063526,-0.013122,-0.006915,-0.005052,-0.002427
"2019-04-16 05:08:33.344 +0000",1555391313.343698,-3.064403,1.485634,-0.125915,-0.006559,-0.996376,0.084806,0.000000,0.000000,0.000000,-1,0.017681,-0.058579,-0.006957,-0.008501,-0.004051,-0.000318
"2019-04-16 05:08:33.366 +0000",1555391313.365970,-3.063679,1.485396,-0.127634,-0.006639,-0.996356,0.085038,0.000000,0.000000,0.000000,-1,0.011497,-0.038878,-0.005661,-0.009001,-0.005659,-0.001419
"2019-04-16 05:08:33.388 +0000",1555391313.388277,-3.061181,1.485281,-0.130653,-0.006861,-0.996346,0.085135,0.000000,0.000000,0.000000,-1,0.008985,-0.019211,-0.009553,-0.011236,-0.005867,-0.000891
"2019-04-16 05:08:33.411 +0000",1555391313.410577,-3.061234,1.485290,-0.131144,-0.006855,-0.996347,0.085127,0.000000,0.000000,0.000000,-1,-0.002286,-0.029032,-0.003265,-0.002254,-0.006720,-0.002394
"2019-04-16 05:08:33.433 +0000",1555391313.432857,-3.061551,1.485534,-0.131502,-0.006809,-0.996367,0.084887,0.000000,0.000000,0.000000,-1,-0.003521,-0.033929,0.002980,0.000309,-0.006959,-0.005800
"2019-04-16 05:08:33.455 +0000",1555391313.455162,-3.062018,1.485713,-0.131885,-0.006755,-0.996383,0.084712,0.000000,0.000000,0.000000,-1,0.005261,-0.043756,0.005552,0.003352,-0.007661,-0.004512
"2019-04-16 05:08:33.477 +0000",1555391313.477473,-3.061631,1.485986,-0.133206,-0.006766,-0.996406,0.084438,0.000000,0.000000,0.000000,-1,-0.004765,-0.041291,0.008006,0.001105,-0.007485,-0.005214
"2019-04-16 05:08:33.500 +0000",1555391313.499773,-3.061578,1.486481,-0.133859,-0.006731,-0.996448,0.083946,0.000000,0.000000,0.000000,-1,-0.009802,-0.019180,0.000363,0.003481,-0.006497,-0.006996
"2019-04-16 05:08:33.522 +0000",1555391313.522046,-3.061456,1.486929,-0.134257,-0.006706,-0.996485,0.083501,0.000000,0.000000,0.000000,-1,-0.006036,-0.010567,0.000288,-0.001091,-0.007848,-0.004826
"2019-04-16 05:08:33.544 +0000",1555391313.544352,-3.061101,1.487006,-0.134746,-0.006729,-0.996492,0.083422,0.000000,0.000000,0.000000,-1,0.007853,-0.005640,-0.004411,-0.003769,-0.007201,-0.003496
"2019-04-16 05:08:33.567 +0000",1555391313.566656,-3.060222,1.487066,-0.135715,-0.006798,-0.996497,0.083356,0.000000,0.000000,0.000000,-1,0.002825,-0.003191,-0.006914,-0.003044,-0.005823,-0.003934
"2019-04-16 05:08:33.589 +0000",1555391313.588949,-3.057113,1.487261,-0.138857,-0.007040,-0.996513,0.083140,0.000000,0.000000,0.000000,-1,0.002849,-0.000706,-0.000729,-0.003061,-0.005257,-0.003566
"2019-04-16 05:08:33.611 +0000",1555391313.611236,-3.056142,1.487361,-0.139844,-0.007113,-0.996521,0.083034,0.000000,0.000000,0.000000,-1,-0.005922,-0.001930,0.001759,-0.001036,-0.005233,-0.002071
"2019-04-16 05:08:33.634 +0000",1555391313.633524,-3.057348,1.487452,-0.138576,-0.007005,-0.996529,0.082952,0.000000,0.000000,0.000000,-1,-0.005913,0.004225,0.002943,0.005845,-0.005928,0.001353
"2019-04-16 05:08:33.656 +0000",1555391313.655845,-3.059004,1.487750,-0.136952,-0.006843,-0.996554,0.082668,0.000000,0.000000,0.000000,-1,-0.019725,-0.001941,0.000508,0.003761,-0.008192,0.000295
"2019-04-16 05:08:33.678 +0000",1555391313.678121,-3.059709,1.488207,-0.136329,-0.006747,-0.996591,0.082219,0.000000,0.000000,0.000000,-1,-0.019711,-0.004387,0.004250,0.003543,-0.006170,0.001598
"2019-04-16 05:08:33.700 +0000",1555391313.700411,-3.060081,1.488442,-0.136049,-0.006698,-0.996611,0.081988,0.000000,0.000000,0.000000,-1,-0.018467,-0.008086,0.001801,0.001998,-0.008150,0.005018
"2019-04-16 05:08:33.723 +0000",1555391313.722730,-3.060671,1.488662,-0.135651,-0.006632,-0.996629,0.081773,0.000000,0.000000,0.000000,-1,-0.014578,-0.011714,0.002146,0.005533,-0.006240,0.005797
"2019-04-16 05:08:33.745 +0000",1555391313.745005,-3.061622,1.488727,-0.134910,-0.006549,-0.996634,0.081715,0.000000,0.000000,0.000000,-1,-0.007046,-0.004330,0.002082,0.003100,-0.004968,0.005229
"2019-04-16 05:08:33.767 +0000",1555391313.767310,-3.061996,1.488726,-0.134580,-0.006518,-0.996634,0.081719,0.000000,0.000000,0.000000,-1,-0.000784,0.003039,-0.001703,-0.001462,-0.005502,0.004172
"2019-04-16 05:08:33.790 +0000",1555391313.789596,-3.062287,1.488462,-0.134273,-0.006515,-0.996612,0.081983,0.000000,0.000000,0.000000,-1,0.000487,0.000594,0.002041,0.000732,-0.004181,0.005465
"2019-04-16 05:08:33.812 +0000",1555391313.811918,-3.063279,1.488381,-0.133347,-0.006440,-0.996606,0.082069,0.000000,0.000000,0.000000,-1,0.001729,-0.004336,-0.000397,0.003663,-0.004020,0.002693
"2019-04-16 05:08:33.834 +0000",1555391313.834193,-3.065440,1.488404,-0.131313,-0.006261,-0.996608,0.082060,0.000000,0.000000,0.000000,-1,-0.002058,-0.001901,-0.006624,0.001867,-0.006963,-0.000090
"2019-04-16 05:08:33.856 +0000",1555391313.856489,-3.066109,1.488297,-0.130723,-0.006214,-0.996599,0.082171,0.000000,0.000000,0.000000,-1,-0.000798,-0.003126,-0.005372,-0.001415,-0.008208,0.004972
"2019-04-16 05:08:33.879 +0000",1555391313.878804,-3.068052,1.488278,-0.128864,-0.006056,-0.996597,0.082201,0.000000,0.000000,0.000000,-1,-0.004550,-0.004348,-0.002881,-0.000917,-0.006164,0.004545
"2019-04-16 05:08:33.901 +0000",1555391313.901079,-3.068015,1.488202,-0.129000,-0.006065,-0.996591,0.082277,0.000000,0.000000,0.000000,-1,-0.001899,-0.005442,0.001157,-0.002160,-0.005072,0.003599
"2019-04-16 05:08:33.923 +0000",1555391313.923371,-3.067383,1.488046,-0.129789,-0.006128,-0.996578,0.082428,0.000000,0.000000,0.000000,-1,-0.004404,-0.010359,0.002440,0.001459,-0.007160,0.007354
"2019-04-16 05:08:33.946 +0000",1555391313.945689,-3.068664,1.487956,-0.128772,-0.006029,-0.996571,0.082525,0.000000,0.000000,0.000000,-1,-0.004417,-0.010373,-0.001282,0.001833,-0.006176,0.004099
"2019-04-16 05:08:33.968 +0000",1555391313.967962,-3.068240,1.487984,-0.129406,-0.006062,-0.996573,0.082494,0.000000,0.000000,0.000000,-1,-0.005669,-0.007913,-0.001304,-0.000453,-0.005288,0.002818
"2019-04-16 05:08:33.990 +0000",1555391313.990279,-3.068182,1.487939,-0.129672,-0.006070,-0.996569,0.082540,0.000000,0.000000,0.000000,-1,0.003100,-0.011609,-0.003748,-0.003573,-0.006849,-0.000295
"2019-04-16 05:08:34.013 +0000",1555391314.012572,-3.068140,1.487802,-0.129962,-0.006084,-0.996558,0.082675,0.000000,0.000000,0.000000,-1,0.006872,-0.012828,-0.001253,-0.007085,-0.006906,0.002392
"2019-04-16 05:08:34.035 +0000",1555391314.034877,-3.066732,1.487675,-0.131813,-0.006210,-0.996547,0.082793,0.000000,0.000000,0.000000,-1,0.000592,-0.018986,-0.002439,-0.006409,-0.005665,0.001481
"2019-04-16 05:08:34.057 +0000",1555391314.057153,-3.064926,1.487735,-0.134105,-0.006354,-0.996552,0.082722,0.000000,0.000000,0.000000,-1,-0.009423,-0.027577,0.003838,-0.003198,-0.004989,0.001019
"2019-04-16 05:08:34.079 +0000",1555391314.079448,-3.065307,1.487941,-0.134269,-0.006307,-0.996569,0.082521,0.000000,0.000000,0.000000,-1,-0.014354,-0.023711,0.007808,0.002432,-0.005979,0.002318
"2019-04-16 05:08:34.102 +0000",1555391314.101762,-3.064579,1.488138,-0.135514,-0.006352,-0.996586,0.082320,0.000000,0.000000,0.000000,-1,-0.011852,-0.026174,0.006590,0.002629,-0.007473,0.003435
"2019-04-16 05:08:34.124 +0000",1555391314.124037,-3.063821,1.488286,-0.136589,-0.006403,-0.996598,0.082168,0.000000,0.000000,0.000000,-1,-0.009327,-0.010177,0.007689,0.001475,-0.006225,0.000810
"2019-04-16 05:08:34.146 +0000",1555391314.146342,-3.062302,1.488512,-0.138354,-0.006510,-0.996617,0.081933,0.000000,0.000000,0.000000,-1,-0.009341,-0.007731,0.003946,-0.001562,-0.007259,0.000769
"2019-04-16 05:08:34.169 +0000",1555391314.168646,-3.059394,1.488522,-0.141379,-0.006748,-0.996617,0.081904,0.000000,0.000000,0.000000,-1,-0.010586,-0.002806,0.005143,-0.003827,-0.006602,0.003347
"2019-04-16 05:08:34.191 +0000",1555391314.190933,-3.056512,1.488545,-0.144360,-0.006982,-0.996619,0.081861,0.000000,0.000000,0.000000,-1,0.000681,-0.007741,0.000232,-0.002769,-0.004418,0.002962
"2019-04-16 05:08:34.213 +0000",1555391314.213227,-3.056341,1.488618,-0.144664,-0.006989,-0.996625,0.081787,0.000000,0.000000,0.000000,-1,-0.004350,-0.005297,-0.003514,-0.001815,-0.005938,0.003189
"2019-04-16 05:08:34.236 +0000",1555391314.235530,-3.057497,1.488750,-0.143672,-0.006884,-0.996636,0.081665,0.000000,0.000000,0.000000,-1,-0.008118,-0.005303,-0.004756,0.000048,-0.005393,0.001710
"2019-04-16 05:08:34.258 +0000",1555391314.257835,-3.058437,1.488987,-0.142877,-0.006787,-0.996656,0.081435,0.000000,0.000000,0.000000,-1,-0.010492,-0.008858,-0.000743,0.000760,-0.005389,0.002183
"2019-04-16 05:08:34.280 +0000",1555391314.280110,-3.058943,1.489235,-0.142614,-0.006726,-0.996676,0.081193,0.000000,0.000000,0.000000,-1,-0.011728,-0.012530,0.004250,0.004605,-0.004667,0.001907
"2019-04-16 05:08:34.302 +0000",1555391314.302417,-3.058666,1.489483,-0.143383,-0.006728,-0.996696,0.080945,0.000000,0.000000,0.000000,-1,-0.014243,-0.022372,0.004335,0.004073,-0.006890,0.001392
"2019-04-16 05:08:34.325 +0000",1555391314.324720,-3.057235,1.489849,-0.145370,-0.006813,-0.996726,0.080571,0.000000,0.000000,0.000000,-1,-0.020509,-0.021140,0.005562,0.001457,-0.007471,0.001002
"2019-04-16 05:08:34.347 +0000",1555391314.347026,-3.056521,1.490204,-0.146407,-0.006840,-0.996754,0.080213,0.000000,0.000000,0.000000,-1,-0.014235,-0.011301,0.004236,0.002446,-0.006969,0.001421
"2019-04-16 05:08:34.369 +0000",1555391314.369313,-3.054141,1.490591,-0.148905,-0.006998,-0.996785,0.079813,0.000000,0.000000,0.000000,-1,-0.017988,-0.003917,0.005410,-0.001212,-0.006572,0.002005
"2019-04-16 05:08:34.392 +0000",1555391314.391605,-3.051565,1.490937,-0.151514,-0.007172,-0.996813,0.079451,0.000000,0.000000,0.000000,-1,-0.020499,-0.000232,0.004136,-0.002380,-0.005247,0.002397
"2019-04-16 05:08:34.414 +0000",1555391314.413911,-3.048463,1.491356,-0.154648,-0.007380,-0.996846,0.079013,0.000000,0.000000,0.000000,-1,-0.022999,-0.003914,0.006650,-0.002569,-0.005153,0.003278
"2019-04-16 05:08:34.436 +0000",1555391314.436186,-3.046731,1.491880,-0.156637,-0.007467,-0.996888,0.078480,0.000000,0.000000,0.000000,-1,-0.029178,-0.013398,0.003245,0.000173,-0.008483,0.002804
"2019-04-16 05:08:34.458 +0000",1555391314.458490,-3.045065,1.492450,-0.158631,-0.007543,-0.996933,0.077901,0.000000,0.000000,0.000000,-1,-0.026658,-0.013388,0.005727,0.001653,-0.007065,0.002772
"2019-04-16 05:08:34.481 +0000",1555391314.480796,-3.043862,1.492994,-0.160153,-0.007584,-0.996975,0.077353,0.000000,0.000000,0.000000,-1,-0.024154,-0.013391,0.004488,0.000397,-0.005573,0.002847
"2019-04-16 05:08:34.503 +0000",1555391314.503070,-3.042899,1.493278,-0.161361,-0.007630,-0.996997,0.077063,0.000000,0.000000,0.000000,-1,-0.019130,-0.012154,0.005719,0.000382,-0.007474,0.003137
"2019-04-16 05:08:34.525 +0000",1555391314.525367,-3.045615,1.493362,-0.158879,-0.007413,-0.997003,0.077001,0.000000,0.000000,0.000000,-1,-0.009117,-0.009714,-0.000503,0.004499,-0.004416,0.004481
"2019-04-16 05:08:34.548 +0000",1555391314.547679,-3.046366,1.493295,-0.158281,-0.007362,-0.996998,0.077073,0.000000,0.000000,0.000000,-1,0.003435,-0.003553,0.000687,0.004249,-0.003124,0.000961
"2019-04-16 05:08:34.570 +0000",1555391314.569985,-3.046581,1.493104,-0.158105,-0.007363,-0.996983,0.077264,0.000000,0.000000,0.000000,-1,0.007194,-0.003556,-0.000552,-0.000526,-0.004222,0.002173
"2019-04-16 05:08:34.592 +0000",1555391314.592255,-3.044213,1.492843,-0.160686,-0.007571,-0.996963,0.077505,0.000000,0.000000,0.000000,-1,0.005956,-0.012148,0.004487,-0.004422,-0.005036,0.003672
"2019-04-16 05:08:34.615 +0000",1555391314.614562,-3.041987,1.492463,-0.163499,-0.007782,-0.996934,0.077865,0.000000,0.000000,0.000000,-1,0.008572,-0.037595,0.008647,0.000213,-0.005706,0.002259
"2019-04-16 05:08:34.637 +0000",1555391314.636871,-3.040442,1.492077,-0.165844,-0.007941,-0.996903,0.078236,0.000000,0.000000,0.000000,-1,0.016104,-0.036357,0.009879,0.002142,-0.002929,0.002575
"2019-04-16 05:08:34.659 +0000",1555391314.659146,-3.042047,1.491832,-0.164712,-0.007840,-0.996884,0.078493,0.000000,0.000000,0.000000,-1,0.007332,-0.008078,0.007141,0.009869,-0.007450,0.000777
"2019-04-16 05:08:34.681 +0000",1555391314.681451,-3.045177,1.491678,-0.161989,-0.007609,-0.996872,0.078669,0.000000,0.000000,0.000000,-1,0.004822,-0.020375,0.008487,0.007868,-0.005524,0.004583
"2019-04-16 05:08:34.704 +0000",1555391314.703756,-3.044151,1.491362,-0.163718,-0.007720,-0.996847,0.078974,0.000000,0.000000,0.000000,-1,0.012341,-0.025297,0.007293,-0.000245,-0.004374,0.001104
"2019-04-16 05:08:34.726 +0000",1555391314.726062,-3.042018,1.490968,-0.166181,-0.007927,-0.996815,0.079349,0.000000,0.000000,0.000000,-1,0.017361,-0.012999,0.005946,-0.004005,-0.007716,0.000073
"2019-04-16 05:08:34.748 +0000",1555391314.748349,-3.043127,1.490592,-0.165156,-0.007876,-0.996785,0.079730,0.000000,0.000000,0.000000,-1,0.014832,-0.005643,-0.000324,0.004000,-0.005290,0.000684
"2019-04-16 05:08:34.771 +0000",1555391314.770642,-3.044976,1.490023,-0.163399,-0.007783,-0.996740,0.080310,0.000000,0.000000,0.000000,-1,0.033628,-0.004424,-0.005289,0.003160,-0.004176,-0.000445
"2019-04-16 05:08:34.793 +0000",1555391314.792938,-3.045109,1.489291,-0.163270,-0.007843,-0.996680,0.081038,0.000000,0.000000,0.000000,-1,0.028730,0.000868,-0.001430,-0.004577,-0.002023,0.000277
"2019-04-16 05:08:34.815 +0000",1555391314.815235,-3.046262,1.488857,-0.162175,-0.007791,-0.996645,0.081476,0.000000,0.000000,0.000000,-1,0.019917,-0.002854,-0.008844,-0.001090,-0.003676,-0.000360
"2019-04-16 05:08:34.838 +0000",1555391314.837525,-3.048490,1.488273,-0.160042,-0.007663,-0.996597,0.082073,0.000000,0.000000,0.000000,-1,0.032477,-0.000374,-0.005139,-0.000302,-0.004151,-0.003078
"2019-04-16 05:08:34.860 +0000",1555391314.859830,-3.052391,1.487624,-0.156039,-0.007401,-0.996543,0.082746,0.000000,0.000000,0.000000,-1,0.039982,0.008216,-0.011415,0.002121,-0.008263,-0.003095
"2019-04-16 05:08:34.882 +0000",1555391314.882105,-3.058225,1.486961,-0.149772,-0.006973,-0.996488,0.083446,0.000000,0.000000,0.000000,-1,0.036221,0.021741,-0.012779,0.005111,-0.005816,-0.005230
"2019-04-16 05:08:34.904 +0000",1555391314.904410,-3.061746,1.486403,-0.145822,-0.006723,-0.996441,0.084024,0.000000,0.000000,0.000000,-1,0.032417,0.014325,-0.021398,-0.004400,-0.003925,-0.003046
"2019-04-16 05:08:34.927 +0000",1555391314.926716,-3.062720,1.485818,-0.144685,-0.006687,-0.996392,0.084611,0.000000,0.000000,0.000000,-1,0.027412,0.002041,-0.016326,-0.008236,-0.002723,-0.001070
"2019-04-16 05:08:34.949 +0000",1555391314.949022,-3.062190,1.485375,-0.145187,-0.006767,-0.996354,0.085048,0.000000,0.000000,0.000000,-1,0.029957,-0.001609,-0.006366,-0.005897,-0.006362,-0.004757
"2019-04-16 05:08:34.971 +0000",1555391314.971308,-3.067703,1.484832,-0.139631,-0.006338,-0.996307,0.085624,0.000000,0.000000,0.000000,-1,0.037614,0.003673,0.001191,0.010550,-0.006989,-0.006507
"2019-04-16 05:08:34.994 +0000",1555391314.993601,-3.070301,1.484207,-0.136827,-0.006160,-0.996253,0.086261,0.000000,0.000000,0.000000,-1,0.031341,0.012277,-0.000130,0.010127,-0.005242,-0.008167
"2019-04-16 05:08:35.016 +0000",1555391315.015896,-3.072186,1.484197,-0.134632,-0.005998,-0.996253,0.086283,0.000000,0.000000,0.000000,-1,0.017521,0.014712,-0.005121,-0.001158,-0.003793,-0.007197
"2019-04-16 05:08:35.038 +0000",1555391315.038194,-3.070232,1.484148,-0.136203,-0.006170,-0.996248,0.086320,0.000000,0.000000,0.000000,-1,0.004988,0.017177,-0.002665,-0.011270,-0.008497,-0.006898
"2019-04-16 05:08:35.060 +0000",1555391315.060486,-3.063962,1.484337,-0.142128,-0.006697,-0.996265,0.086091,0.000000,0.000000,0.000000,-1,0.001264,0.017214,0.007260,-0.010408,-0.009793,-0.006562
"2019-04-16 05:08:35.083 +0000",1555391315.082791,-3.056749,1.484317,-0.148906,-0.007319,-0.996263,0.086061,0.000000,0.000000,0.000000,-1,0.013820,0.017234,0.010990,-0.009633,-0.008803,-0.007661
"2019-04-16 05:08:35.105 +0000",1555391315.105095,-3.051556,1.484168,-0.153637,-0.007779,-0.996250,0.086169,0.000000,0.000000,0.000000,-1,0.020076,0.019683,0.007251,-0.004672,-0.008755,-0.007235
"2019-04-16 05:08:35.127 +0000",1555391315.127364,-3.046648,1.483956,-0.158009,-0.008222,-0.996232,0.086341,0.000000,0.000000,0.000000,-1,0.013791,0.024586,0.003485,-0.007281,-0.006439,-0.000495
"2019-04-16 05:08:35.150 +0000",1555391315.149675,-3.043085,1.483864,-0.161012,-0.008539,-0.996224,0.086402,0.000000,0.000000,0.000000,-1,0.006358,0.023676,0.001147,-0.006262,-0.003029,-0.003562
"2019-04-16 05:08:35.172 +0000",1555391315.171981,-3.041404,1.483841,-0.162293,-0.008686,-0.996222,0.086411,0.000000,0.000000,0.000000,-1,0.007618,0.011390,0.004979,-0.000179,-0.002573,-0.003754
"2019-04-16 05:08:35.194 +0000",1555391315.194251,-3.038795,1.483833,-0.164831,-0.008913,-0.996221,0.086394,0.000000,0.000000,0.000000,-1,0.010137,-0.002121,0.010062,-0.001341,-0.008830,-0.003249
"2019-04-16 05:08:35.217 +0000",1555391315.216576,-3.035388,1.483716,-0.168296,-0.009219,-0.996211,0.086481,0.000000,0.000000,0.000000,-1,0.005128,-0.004573,0.012563,-0.001538,-0.006337,-0.004831
"2019-04-16 05:08:35.239 +0000",1555391315.238865,-3.031211,1.483826,-0.172569,-0.009568,-0.996220,0.086333,0.000000,0.000000,0.000000,-1,-0.003679,-0.004601,0.006358,-0.003463,-0.007869,-0.001646
"2019-04-16 05:08:35.261 +0000",1555391315.261163,-3.028859,1.484029,-0.175123,-0.009749,-0.996238,0.086109,0.000000,0.000000,0.000000,-1,-0.004928,-0.010742,0.008893,0.002089,-0.007241,0.000027
"2019-04-16 05:08:35.283 +0000",1555391315.283444,-3.027034,1.483941,-0.177205,-0.009916,-0.996230,0.086178,0.000000,0.000000,0.000000,-1,0.011363,-0.011980,0.005190,-0.000857,-0.005906,-0.000606
"2019-04-16 05:08:35.306 +0000",1555391315.305750,-3.025806,1.483674,-0.178461,-0.010052,-0.996207,0.086430,0.000000,0.000000,0.000000,-1,0.011337,0.003978,-0.003635,-0.004062,-0.006845,-0.001469
"2019-04-16 05:08:35.328 +0000",1555391315.328055,-3.023756,1.483450,-0.180286,-0.010256,-0.996188,0.086630,0.000000,0.000000,0.000000,-1,0.011456,0.012930,0.002604,-0.005751,-0.003797,0.000101
"2019-04-16 05:08:35.350 +0000",1555391315.350330,-3.017944,1.483287,-0.185859,-0.010779,-0.996174,0.086731,0.000000,0.000000,0.000000,-1,-0.012329,0.006818,0.015056,-0.006646,-0.005169,0.003601
"2019-04-16 05:08:35.373 +0000",1555391315.372634,-3.013372,1.483403,-0.190494,-0.011161,-0.996184,0.086566,0.000000,0.000000,0.000000,-1,-0.008563,-0.004242,0.017637,0.001807,-0.007723,0.002195
"2019-04-16 05:08:35.395 +0000",1555391315.394940,-3.010855,1.483542,-0.193260,-0.011361,-0.996196,0.086401,0.000000,0.000000,0.000000,-1,0.005201,-0.016561,0.011549,0.002572,-0.006795,-0.002264
"2019-04-16 05:08:35.417 +0000",1555391315.417211,-3.010863,1.483377,-0.193447,-0.011381,-0.996181,0.086563,0.000000,0.000000,0.000000,-1,0.012681,-0.001849,-0.002225,0.001097,-0.005848,-0.002182
"2019-04-16 05:08:35.440 +0000",1555391315.439514,-3.011797,1.483199,-0.192284,-0.011323,-0.996166,0.086750,0.000000,0.000000,0.000000,-1,0.007669,0.014135,-0.003609,-0.002654,-0.004033,-0.000873
"2019-04-16 05:08:35.462 +0000",1555391315.461826,-3.009846,1.483211,-0.194002,-0.011491,-0.996167,0.086715,0.000000,0.000000,0.000000,-1,-0.006128,0.006754,-0.002307,-0.007445,-0.001651,0.003373
"2019-04-16 05:08:35.484 +0000",1555391315.484129,-3.005169,1.483459,-0.198607,-0.011863,-0.996189,0.086416,0.000000,0.000000,0.000000,-1,-0.016127,0.000638,0.007670,-0.008981,-0.009656,-0.000280
"2019-04-16 05:08:35.506 +0000",1555391315.506406,-3.001419,1.483805,-0.202508,-0.012139,-0.996219,0.086029,0.000000,0.000000,0.000000,-1,-0.019833,-0.007656,0.011558,-0.000313,-0.012448,0.002105
"2019-04-16 05:08:35.529 +0000",1555391315.528710,-2.999561,1.484259,-0.204390,-0.012235,-0.996258,0.085560,0.000000,0.000000,0.000000,-1,-0.019842,0.002171,0.007748,0.003293,-0.007709,-0.001331
"2019-04-16 05:08:35.551 +0000",1555391315.551017,-2.997333,1.485190,-0.206393,-0.012292,-0.996338,0.084614,0.000000,0.000000,0.000000,-1,-0.041179,0.014444,0.002668,0.000588,-0.008636,-0.004078
"2019-04-16 05:08:35.573 +0000",1555391315.573292,-2.990856,1.486249,-0.212620,-0.012681,-0.996428,0.083489,0.000000,0.000000,0.000000,-1,-0.059972,0.008309,0.008918,-0.006499,-0.008348,0.004020
"2019-04-16 05:08:35.596 +0000",1555391315.595598,-2.983041,1.487484,-0.220301,-0.013139,-0.996532,0.082172,0.000000,0.000000,0.000000,-1,-0.058716,0.003394,0.010204,-0.006118,-0.008717,0.003430
"2019-04-16 05:08:35.618 +0000",1555391315.617902,-2.976186,1.488599,-0.227077,-0.013519,-0.996624,0.080984,0.000000,0.000000,0.000000,-1,-0.053716,0.007068,0.005213,-0.002259,-0.010929,0.005304
"2019-04-16 05:08:35.640 +0000",1555391315.640171,-2.976239,1.489355,-0.226711,-0.013391,-0.996685,0.080242,0.000000,0.000000,0.000000,-1,-0.032391,0.021829,0.002608,0.007806,-0.005710,0.003971
"2019-04-16 05:08:35.662 +0000",1555391315.662483,-2.974857,1.490151,-0.227531,-0.013370,-0.996750,0.079441,0.000000,0.000000,0.000000,-1,-0.037430,0.026723,-0.003641,0.002338,-0.001709,0.001065
"2019-04-16 05:08:35.685 +0000",1555391315.684789,-2.971556,1.490910,-0.230472,-0.013504,-0.996811,0.078651,0.000000,0.000000,0.000000,-1,-0.037333,0.014733,0.003992,-0.003113,0.000152,0.002114
"2019-04-16 05:08:35.707 +0000",1555391315.707072,-2.968571,1.491334,-0.233160,-0.013666,-0.996844,0.078194,0.000000,0.000000,0.000000,-1,-0.014760,0.014738,0.002761,-0.000784,-0.002408,0.000434
"2019-04-16 05:08:35.729 +0000",1555391315.729367,-2.969651,1.491360,-0.231815,-0.013577,-0.996847,0.078182,0.000000,0.000000,0.000000,-1,0.006555,0.015967,0.000277,0.004544,-0.002696,0.002232
"2019-04-16 05:08:35.752 +0000",1555391315.751673,-2.973679,1.490959,-0.227399,-0.013328,-0.996815,0.078630,0.000000,0.000000,0.000000,-1,0.021605,0.018429,-0.000981,0.008751,-0.007687,0.004638
"2019-04-16 05:08:35.774 +0000",1555391315.773978,-2.981170,1.490324,-0.219436,-0.012840,-0.996764,0.079354,0.000000,0.000000,0.000000,-1,0.020309,0.022076,-0.012181,0.009010,-0.005082,0.005241
"2019-04-16 05:08:35.796 +0000",1555391315.796252,-2.988080,1.489874,-0.212072,-0.012360,-0.996728,0.079884,0.000000,0.000000,0.000000,-1,0.009011,0.013455,-0.013351,0.003663,-0.001365,0.007106
"2019-04-16 05:08:35.819 +0000",1555391315.818558,-2.992164,1.489551,-0.207671,-0.012082,-0.996701,0.080252,0.000000,0.000000,0.000000,-1,0.007776,0.009784,-0.008358,0.000928,-0.004458,0.005579
"2019-04-16 05:08:35.841 +0000",1555391315.840861,-2.997377,1.489206,-0.202478,-0.011713,-0.996673,0.080654,0.000000,0.000000,0.000000,-1,0.009034,-0.002508,-0.005769,0.005411,-0.007202,0.005955
"2019-04-16 05:08:35.863 +0000",1555391315.863151,-3.000507,1.488852,-0.199439,-0.011510,-0.996644,0.081040,0.000000,0.000000,0.000000,-1,0.010288,-0.003503,-0.003078,0.007909,-0.010344,0.007477
"2019-04-16 05:08:35.885 +0000",1555391315.885443,-3.005444,1.488478,-0.194410,-0.011160,-0.996614,0.081464,0.000000,0.000000,0.000000,-1,0.011561,0.007578,-0.000698,0.009207,-0.008605,0.005892
"2019-04-16 05:08:35.908 +0000",1555391315.907749,-3.010728,1.488191,-0.188970,-0.010767,-0.996590,0.081805,0.000000,0.000000,0.000000,-1,0.010308,0.008807,-0.000711,0.009058,-0.004890,0.004117
"2019-04-16 05:08:35.930 +0000",1555391315.930035,-3.012442,1.487996,-0.187131,-0.010652,-0.996574,0.082017,0.000000,0.000000,0.000000,-1,0.002774,0.003879,-0.001912,0.000184,-0.004235,0.003112
"2019-04-16 05:08:35.952 +0000",1555391315.952328,-3.012249,1.487825,-0.187322,-0.010690,-0.996560,0.082183,0.000000,0.000000,0.000000,-1,0.007788,-0.002270,-0.001855,-0.003028,-0.006599,0.000916
"2019-04-16 05:08:35.975 +0000",1555391315.974633,-3.011503,1.487589,-0.188193,-0.010781,-0.996540,0.082409,0.000000,0.000000,0.000000,-1,0.009060,-0.007170,0.003152,-0.001105,-0.005932,0.002140
"2019-04-16 05:08:35.997 +0000",1555391315.996940,-3.010945,1.487299,-0.188828,-0.010865,-0.996516,0.082691,0.000000,0.000000,0.000000,-1,0.011570,0.001437,0.001836,-0.001693,-0.006505,0.002575
"2019-04-16 05:08:36.019 +0000",1555391316.019214,-3.012195,1.487096,-0.187449,-0.010788,-0.996499,0.082904,0.000000,0.000000,0.000000,-1,0.009060,0.007582,0.000539,0.004974,-0.006369,0.000714
"2019-04-16 05:08:36.042 +0000",1555391316.041531,-3.015488,1.486748,-0.184080,-0.010558,-0.996470,0.083282,0.000000,0.000000,0.000000,-1,0.011533,0.000409,-0.000485,0.004852,-0.003988,0.002350
"2019-04-16 05:08:36.064 +0000",1555391316.063824,-3.017401,1.486554,-0.182245,-0.010423,-0.996454,0.083494,0.000000,0.000000,0.000000,-1,0.006490,-0.008223,-0.005373,0.002092,-0.005148,0.003099
"2019-04-16 05:08:36.086 +0000",1555391316.086124,-3.020047,1.486390,-0.179903,-0.010222,-0.996440,0.083683,0.000000,0.000000,0.000000,-1,0.005229,-0.019294,-0.005276,0.003386,-0.005696,0.001766
"2019-04-16 05:08:36.108 +0000",1555391316.108404,-3.022318,1.486102,-0.178100,-0.010066,-0.996416,0.083991,0.000000,0.000000,0.000000,-1,0.009013,-0.026649,0.000993,0.002879,-0.005125,0.002465
"2019-04-16 05:08:36.131 +0000",1555391316.130711,-3.023356,1.485792,-0.177677,-0.010015,-0.996389,0.084310,0.000000,0.000000,0.000000,-1,0.009009,-0.026654,-0.000248,-0.002039,-0.009684,0.001628
"2019-04-16 05:08:36.153 +0000",1555391316.153014,-3.025499,1.485485,-0.175989,-0.009870,-0.996363,0.084635,0.000000,0.000000,0.000000,-1,0.015286,-0.018041,-0.000322,-0.001330,-0.006063,0.002462
"2019-04-16 05:08:36.175 +0000",1555391316.175291,-3.026735,1.485109,-0.175172,-0.009808,-0.996331,0.085018,0.000000,0.000000,0.000000,-1,0.011514,-0.018052,-0.002804,0.000714,-0.004661,0.003391
"2019-04-16 05:08:36.198 +0000",1555391316.197595,-3.029044,1.484886,-0.173059,-0.009637,-0.996312,0.085262,0.000000,0.000000,0.000000,-1,0.012760,-0.006994,-0.006623,-0.000678,-0.005809,0.000004
"2019-04-16 05:08:36.220 +0000",1555391316.219901,-3.030520,1.484493,-0.171733,-0.009554,-0.996278,0.085665,0.000000,0.000000,0.000000,-1,0.015235,-0.001875,-0.006529,-0.001539,-0.004836,0.001814
"2019-04-16 05:08:36.242 +0000",1555391316.242174,-3.031368,1.484113,-0.170962,-0.009523,-0.996245,0.086050,0.000000,0.000000,0.000000,-1,0.010244,-0.000622,-0.000339,-0.001982,-0.006028,0.002924
"2019-04-16 05:08:36.264 +0000",1555391316.264482,-3.032249,1.483722,-0.170043,-0.009490,-0.996211,0.086445,0.000000,0.000000,0.000000,-1,0.015248,0.000595,-0.004069,0.000075,-0.005406,0.001675
"2019-04-16 05:08:36.287 +0000",1555391316.286787,-3.033474,1.483419,-0.168761,-0.009417,-0.996185,0.086756,0.000000,0.000000,0.000000,-1,0.010202,0.003025,-0.011536,-0.001127,-0.006073,0.002096
"2019-04-16 05:08:36.309 +0000",1555391316.309077,-3.035956,1.483171,-0.166310,-0.009227,-0.996163,0.087026,0.000000,0.000000,0.000000,-1,0.007692,0.000564,-0.011515,-0.001240,-0.008582,0.004802
"2019-04-16 05:08:36.331 +0000",1555391316.331367,-3.039256,1.482935,-0.162922,-0.008964,-0.996143,0.087289,0.000000,0.000000,0.000000,-1,0.001430,0.005486,-0.010321,-0.000252,-0.004300,0.002570
"2019-04-16 05:08:36.354 +0000",1555391316.353672,-3.042365,1.482792,-0.159776,-0.008707,-0.996130,0.087458,0.000000,0.000000,0.000000,-1,0.003924,-0.001903,-0.012735,-0.000509,-0.005823,0.003530
"2019-04-16 05:08:36.376 +0000",1555391316.375977,-3.045813,1.482594,-0.156401,-0.008424,-0.996113,0.087684,0.000000,0.000000,0.000000,-1,0.000148,-0.006834,-0.015174,0.000062,-0.010311,0.004708
"2019-04-16 05:08:36.398 +0000",1555391316.398253,-3.053101,1.482513,-0.149189,-0.007792,-0.996106,0.087823,0.000000,0.000000,0.000000,-1,0.000105,-0.000540,-0.021318,0.005030,-0.005878,0.003699
"2019-04-16 05:08:36.421 +0000",1555391316.420559,-3.059831,1.482483,-0.142533,-0.007203,-0.996103,0.087903,0.000000,0.000000,0.000000,-1,-0.001126,-0.005437,-0.015074,0.004090,-0.006659,0.003116
"2019-04-16 05:08:36.443 +0000",1555391316.442864,-3.064935,1.482561,-0.137483,-0.006748,-0.996110,0.087862,0.000000,0.000000,0.000000,-1,-0.002349,-0.004178,-0.007643,0.003773,-0.004684,0.000669
"2019-04-16 05:08:36.465 +0000",1555391316.465147,-3.068466,1.482565,-0.134436,-0.006438,-0.996110,0.087882,0.000000,0.000000,0.000000,-1,0.003920,-0.031224,-0.003680,0.001769,-0.008086,-0.002554
"2019-04-16 05:08:36.487 +0000",1555391316.487444,-3.070538,1.482523,-0.132674,-0.006259,-0.996106,0.087937,0.000000,0.000000,0.000000,-1,0.007672,-0.000498,-0.011394,-0.001004,-0.006839,-0.004059
"2019-04-16 05:08:36.510 +0000",1555391316.509750,-3.072744,1.482496,-0.130351,-0.006067,-0.996104,0.087977,0.000000,0.000000,0.000000,-1,0.011411,0.010546,-0.018933,-0.003546,-0.006429,-0.003443
"2019-04-16 05:08:36.532 +0000",1555391316.532048,-3.074355,1.482349,-0.128295,-0.005935,-0.996091,0.088132,0.000000,0.000000,0.000000,-1,0.011434,0.024092,-0.015331,-0.004167,-0.004718,-0.002119
"2019-04-16 05:08:36.554 +0000",1555391316.554329,-3.075302,1.482247,-0.126677,-0.005858,-0.996082,0.088241,0.000000,0.000000,0.000000,-1,0.013942,0.031469,-0.016635,-0.004945,-0.004437,-0.002990
"2019-04-16 05:08:36.577 +0000",1555391316.576636,-3.074643,1.482027,-0.126631,-0.005931,-0.996063,0.088454,0.000000,0.000000,0.000000,-1,0.013956,0.032859,-0.010344,-0.008687,-0.004563,-0.001387
"2019-04-16 05:08:36.599 +0000",1555391316.598941,-3.074626,1.481817,-0.125857,-0.005946,-0.996044,0.088662,0.000000,0.000000,0.000000,-1,0.007697,0.037787,-0.007908,-0.005071,-0.005909,0.000328
"2019-04-16 05:08:36.621 +0000",1555391316.621216,-3.074396,1.481704,-0.125242,-0.005974,-0.996034,0.088773,0.000000,0.000000,0.000000,-1,0.007712,0.037802,-0.004186,-0.000495,-0.004851,-0.002729
"2019-04-16 05:08:36.644 +0000",1555391316.643522,-3.076329,1.481616,-0.122569,-0.005809,-0.996026,0.088874,0.000000,0.000000,0.000000,-1,0.005194,0.031645,-0.005374,0.003993,-0.004798,0.001229
"2019-04-16 05:08:36.666 +0000",1555391316.665828,-3.080151,1.481587,-0.118121,-0.005471,-0.996023,0.088924,0.000000,0.000000,0.000000,-1,0.003946,0.025504,-0.002841,0.008538,-0.008264,-0.001796
"2019-04-16 05:08:36.688 +0000",1555391316.688102,-3.084025,1.481628,-0.113859,-0.005124,-0.996027,0.088902,0.000000,0.000000,0.000000,-1,0.001412,0.018103,-0.007739,0.004422,-0.008856,-0.000966
"2019-04-16 05:08:36.710 +0000",1555391316.710407,-3.089654,1.481575,-0.107957,-0.004626,-0.996022,0.088982,0.000000,0.000000,0.000000,-1,0.001391,0.009477,-0.011386,0.006762,-0.006572,0.000587
"2019-04-16 05:08:36.733 +0000",1555391316.732713,-3.096250,1.481364,-0.101276,-0.004048,-0.996004,0.089222,0.000000,0.000000,0.000000,-1,0.010173,0.003335,-0.010089,0.008763,-0.004988,0.002163
"2019-04-16 05:08:36.755 +0000",1555391316.754992,-3.100254,1.481329,-0.097345,-0.003692,-0.996000,0.089272,0.000000,0.000000,0.000000,-1,0.006419,-0.006373,-0.003717,0.006271,-0.005632,-0.003732
"2019-04-16 05:08:36.777 +0000",1555391316.777293,-3.103336,1.481231,-0.094290,-0.003421,-0.995992,0.089381,0.000000,0.000000,0.000000,-1,0.006392,-0.000251,-0.011215,0.003986,-0.005229,0.000021
"2019-04-16 05:08:36.800 +0000",1555391316.799598,-3.106212,1.481002,-0.091417,-0.003172,-0.995971,0.089617,0.000000,0.000000,0.000000,-1,0.010174,-0.001460,-0.006241,0.002012,-0.006943,-0.000201
"2019-04-16 05:08:36.822 +0000",1555391316.821906,-3.108819,1.480855,-0.088764,-0.002943,-0.995958,0.089771,0.000000,0.000000,0.000000,-1,0.010175,0.007146,-0.007559,0.004378,-0.008513,-0.001393
"2019-04-16 05:08:36.844 +0000",1555391316.844179,-3.111766,1.480669,-0.085666,-0.002684,-0.995941,0.089966,0.000000,0.000000,0.000000,-1,0.007664,0.004684,-0.007539,0.002867,-0.005417,-0.002151
"2019-04-16 05:08:36.866 +0000",1555391316.866496,-3.114752,1.480629,-0.082609,-0.002417,-0.995938,0.090013,0.000000,0.000000,0.000000,-1,0.008941,0.002249,-0.001315,0.003622,-0.006458,-0.002169
"2019-04-16 05:08:36.889 +0000",1555391316.888789,-3.114979,1.480536,-0.082213,-0.002399,-0.995929,0.090105,0.000000,0.000000,0.000000,-1,0.008961,0.009644,0.002341,0.003619,-0.005246,-0.004641
"2019-04-16 05:08:36.911 +0000",1555391316.911065,-3.115607,1.480516,-0.081506,-0.002343,-0.995927,0.090127,0.000000,0.000000,0.000000,-1,0.003919,0.004702,-0.002580,-0.000785,-0.009703,-0.001199
"2019-04-16 05:08:36.933 +0000",1555391316.933371,-3.115043,1.480434,-0.081928,-0.002395,-0.995920,0.090207,0.000000,0.000000,0.000000,-1,0.007667,0.008486,-0.003775,-0.003235,-0.006643,-0.000958
"2019-04-16 05:08:36.956 +0000",1555391316.955677,-3.115013,1.480323,-0.081765,-0.002401,-0.995910,0.090317,0.000000,0.000000,0.000000,-1,0.007672,0.009721,-0.002546,0.000723,-0.004868,-0.001649
"2019-04-16 05:08:36.978 +0000",1555391316.977959,-3.115424,1.480148,-0.081172,-0.002369,-0.995894,0.090494,0.000000,0.000000,0.000000,-1,0.007681,0.007271,-0.000043,-0.000363,-0.005983,0.001120
"2019-04-16 05:08:37.000 +0000",1555391317.000251,-3.114973,1.480143,-0.081472,-0.002410,-0.995894,0.090497,0.000000,0.000000,0.000000,-1,0.005179,0.002359,0.002480,0.001586,-0.005495,-0.001615
"2019-04-16 05:08:37.023 +0000",1555391317.022562,-3.116589,1.480163,-0.079836,-0.002263,-0.995896,0.090481,0.000000,0.000000,0.000000,-1,0.002679,0.001137,0.004970,0.005711,-0.005432,0.000446
"2019-04-16 05:08:37.045 +0000",1555391317.044868,-3.116480,1.480190,-0.080106,-0.002272,-0.995898,0.090453,0.000000,0.000000,0.000000,-1,0.000163,-0.009935,0.005067,0.006117,-0.004773,0.001405
"2019-04-16 05:08:37.067 +0000",1555391317.067166,-3.119214,1.480207,-0.077799,-0.002024,-0.995900,0.090444,0.000000,0.000000,0.000000,-1,-0.011135,-0.017325,0.003885,0.003550,-0.010006,0.002208
"2019-04-16 05:08:37.089 +0000",1555391317.089447,-3.118517,1.480483,-0.078974,-0.002081,-0.995925,0.090166,0.000000,0.000000,0.000000,-1,-0.014888,-0.018547,0.006375,0.002188,-0.009294,0.000486
"2019-04-16 05:08:37.112 +0000",1555391317.111753,-3.117847,1.480664,-0.079983,-0.002137,-0.995941,0.089985,0.000000,0.000000,0.000000,-1,-0.006125,-0.008621,0.005087,0.003022,-0.005844,-0.000019
"2019-04-16 05:08:37.134 +0000",1555391317.134058,-3.118427,1.480765,-0.079761,-0.002083,-0.995950,0.089886,0.000000,0.000000,0.000000,-1,-0.007379,-0.015997,0.006392,0.003425,-0.007727,0.003345
"2019-04-16 05:08:37.156 +0000",1555391317.156334,-3.119130,1.480816,-0.079361,-0.002018,-0.995954,0.089836,0.000000,0.000000,0.000000,-1,0.000126,-0.009868,0.000137,0.004612,-0.007372,0.000831
"2019-04-16 05:08:37.179 +0000",1555391317.178639,-3.119207,1.480775,-0.079366,-0.002012,-0.995951,0.089877,0.000000,0.000000,0.000000,-1,0.005155,-0.000020,0.001292,0.001127,-0.005331,-0.000918
"2019-04-16 05:08:37.201 +0000",1555391317.200924,-3.120038,1.480588,-0.078540,-0.001942,-0.995934,0.090065,0.000000,0.000000,0.000000,-1,0.003881,0.001191,-0.003681,-0.000591,-0.004890,0.003304
"2019-04-16 05:08:37.223 +0000",1555391317.223220,-3.119802,1.480482,-0.078640,-0.001965,-0.995924,0.090170,0.000000,0.000000,0.000000,-1,-0.003625,0.007353,-0.000018,-0.000705,-0.004030,0.003976
"2019-04-16 05:08:37.246 +0000",1555391317.245526,-3.119333,1.480544,-0.078956,-0.002006,-0.995930,0.090107,0.000000,0.000000,0.000000,-1,-0.001095,0.008603,0.004934,0.004112,-0.006527,0.001583
"2019-04-16 05:08:37.268 +0000",1555391317.267831,-3.119058,1.480602,-0.079059,-0.002030,-0.995935,0.090050,0.000000,0.000000,0.000000,-1,-0.003615,0.007362,0.002463,0.003082,-0.009619,0.000603
"2019-04-16 05:08:37.290 +0000",1555391317.290107,-3.118729,1.480615,-0.079212,-0.002059,-0.995936,0.090035,0.000000,0.000000,0.000000,-1,-0.002377,0.011133,0.003747,0.000411,-0.005605,-0.000497
"2019-04-16 05:08:37.312 +0000",1555391317.312411,-3.117892,1.480775,-0.079806,-0.002131,-0.995951,0.089875,0.000000,0.000000,0.000000,-1,-0.006138,0.007446,0.005019,0.001413,-0.005834,-0.000596
"2019-04-16 05:08:37.335 +0000",1555391317.334717,-3.117270,1.480840,-0.080387,-0.002185,-0.995957,0.089808,0.000000,0.000000,0.000000,-1,-0.003633,0.000066,0.005085,0.002582,-0.006042,0.002431
"2019-04-16 05:08:37.357 +0000",1555391317.357023,-3.116387,1.480935,-0.081228,-0.002262,-0.995965,0.089713,0.000000,0.000000,0.000000,-1,-0.006137,0.000070,0.006324,0.001438,-0.007758,0.002527
"2019-04-16 05:08:37.379 +0000",1555391317.379298,-3.114980,1.480964,-0.082479,-0.002387,-0.995968,0.089680,0.000000,0.000000,0.000000,-1,0.000136,0.009909,0.004999,-0.001244,-0.007633,0.001720
"2019-04-16 05:08:37.402 +0000",1555391317.401603,-3.113204,1.480928,-0.084016,-0.002547,-0.995965,0.089711,0.000000,0.000000,0.000000,-1,-0.001115,0.013599,0.004966,-0.001054,-0.005699,0.000774
"2019-04-16 05:08:37.424 +0000",1555391317.423891,-3.112485,1.480963,-0.084466,-0.002611,-0.995968,0.089675,0.000000,0.000000,0.000000,-1,-0.004890,0.011127,0.002505,-0.001616,-0.005772,0.002290
"2019-04-16 05:08:37.446 +0000",1555391317.446184,-3.111864,1.481058,-0.084854,-0.002664,-0.995976,0.089578,0.000000,0.000000,0.000000,-1,-0.009888,0.008684,0.007486,0.003656,-0.007488,0.001761
"2019-04-16 05:08:37.468 +0000",1555391317.468491,-3.112132,1.481335,-0.084502,-0.002632,-0.996001,0.089303,0.000000,0.000000,0.000000,-1,-0.012435,0.006272,0.006345,0.005180,-0.005235,0.001792
"2019-04-16 05:08:37.491 +0000",1555391317.490781,-3.111348,1.481576,-0.085249,-0.002694,-0.996023,0.089061,0.000000,0.000000,0.000000,-1,-0.014933,-0.001095,0.010130,0.005349,-0.009791,0.002416
"2019-04-16 05:08:37.513 +0000",1555391317.513085,-3.110166,1.481959,-0.086488,-0.002788,-0.996057,0.088677,0.000000,0.000000,0.000000,-1,-0.018712,-0.003571,0.006428,0.002086,-0.006049,0.000084
"2019-04-16 05:08:37.535 +0000",1555391317.535376,-3.109308,1.482298,-0.087503,-0.002853,-0.996087,0.088337,0.000000,0.000000,0.000000,-1,-0.011186,-0.010944,0.007737,0.003021,-0.006248,-0.000095
"2019-04-16 05:08:37.558 +0000",1555391317.557681,-3.108402,1.482535,-0.088700,-0.002925,-0.996107,0.088099,0.000000,0.000000,0.000000,-1,-0.011188,-0.013404,0.007758,0.002559,-0.006395,0.000646
"2019-04-16 05:08:37.580 +0000",1555391317.579987,-3.108290,1.482615,-0.088951,-0.002932,-0.996114,0.088018,0.000000,0.000000,0.000000,-1,-0.007434,-0.004806,0.003962,0.003299,-0.006708,0.002085
"2019-04-16 05:08:37.602 +0000",1555391317.602262,-3.109323,1.482761,-0.087950,-0.002837,-0.996127,0.087876,0.000000,0.000000,0.000000,-1,-0.008691,-0.002351,0.002698,0.003966,-0.004880,0.001739
"2019-04-16 05:08:37.625 +0000",1555391317.624568,-3.109643,1.482891,-0.087628,-0.002804,-0.996139,0.087748,0.000000,0.000000,0.000000,-1,-0.004926,0.001341,0.002666,0.000668,-0.005372,-0.000391
"2019-04-16 05:08:37.647 +0000",1555391317.646855,-3.107434,1.483045,-0.089938,-0.002993,-0.996152,0.087587,0.000000,0.000000,0.000000,-1,-0.009969,-0.009676,0.007806,-0.002241,-0.006396,0.001189
"2019-04-16 05:08:37.669 +0000",1555391317.669153,-3.105754,1.483235,-0.092173,-0.003133,-0.996169,0.087393,0.000000,0.000000,0.000000,-1,-0.011223,-0.025658,0.010428,0.000036,-0.008973,0.001444
"2019-04-16 05:08:37.691 +0000",1555391317.691455,-3.104577,1.483512,-0.093913,-0.003226,-0.996193,0.087114,0.000000,0.000000,0.000000,-1,-0.013722,-0.018274,0.011602,0.003104,-0.007423,0.000120
"2019-04-16 05:08:37.714 +0000",1555391317.713757,-3.103290,1.483908,-0.095462,-0.003323,-0.996228,0.086716,0.000000,0.000000,0.000000,-1,-0.020003,-0.008450,0.007790,0.004330,-0.005130,-0.001816
"2019-04-16 05:08:37.736 +0000",1555391317.736033,-3.102260,1.484234,-0.096669,-0.003400,-0.996256,0.086388,0.000000,0.000000,0.000000,-1,-0.013735,-0.007222,0.006541,0.000485,-0.006643,-0.001091
"2019-04-16 05:08:37.758 +0000",1555391317.758341,-3.101045,1.484585,-0.098112,-0.003490,-0.996286,0.086034,0.000000,0.000000,0.000000,-1,-0.009995,-0.009699,0.001602,-0.000889,-0.005026,-0.001104
"2019-04-16 05:08:37.781 +0000",1555391317.780646,-3.097965,1.484786,-0.101402,-0.003747,-0.996303,0.085822,0.000000,0.000000,0.000000,-1,-0.006211,-0.008448,0.006556,-0.003959,-0.006199,-0.000007
"2019-04-16 05:08:37.803 +0000",1555391317.802930,-3.095653,1.485021,-0.103772,-0.003934,-0.996324,0.085579,0.000000,0.000000,0.000000,-1,-0.007446,-0.001054,0.010211,0.000074,-0.007628,-0.002876
"2019-04-16 05:08:37.825 +0000",1555391317.825227,-3.093645,1.485292,-0.105793,-0.004093,-0.996347,0.085302,0.000000,0.000000,0.000000,-1,-0.012524,0.001400,0.005304,0.000690,-0.005591,0.000284
"2019-04-16 05:08:37.848 +0000",1555391317.847533,-3.091944,1.485416,-0.107483,-0.004232,-0.996357,0.085172,0.000000,0.000000,0.000000,-1,-0.001216,0.000194,0.010281,0.002783,-0.005108,0.000704
"2019-04-16 05:08:37.870 +0000",1555391317.869812,-3.090934,1.485220,-0.108532,-0.004328,-0.996341,0.085362,0.000000,0.000000,0.000000,-1,0.012577,0.000195,0.009046,0.004114,-0.006482,0.000178
"2019-04-16 05:08:37.892 +0000",1555391317.892112,-3.090435,1.484998,-0.109091,-0.004382,-0.996322,0.085581,0.000000,0.000000,0.000000,-1,0.002526,-0.001054,0.005330,0.000064,-0.008241,0.000051
"2019-04-16 05:08:37.914 +0000",1555391317.914419,-3.088787,1.485011,-0.110800,-0.004522,-0.996323,0.085561,0.000000,0.000000,0.000000,-1,-0.004979,-0.007183,0.011584,0.001959,-0.005295,-0.000249
"2019-04-16 05:08:37.937 +0000",1555391317.936725,-3.085956,1.485257,-0.113838,-0.004751,-0.996344,0.085303,0.000000,0.000000,0.000000,-1,-0.011247,-0.009641,0.012844,0.000402,-0.005548,0.000604
"2019-04-16 05:08:37.959 +0000",1555391317.959000,-3.084365,1.485622,-0.115675,-0.004866,-0.996375,0.084932,0.000000,0.000000,0.000000,-1,-0.012513,-0.010882,0.010372,0.004164,-0.006799,-0.001756
"2019-04-16 05:08:37.981 +0000",1555391317.981317,-3.083446,1.486099,-0.116741,-0.004916,-0.996415,0.084453,0.000000,0.000000,0.000000,-1,-0.015027,-0.002281,0.007813,0.003161,-0.006774,-0.002727
"2019-04-16 05:08:38.004 +0000",1555391318.003611,-3.080818,1.486497,-0.119382,-0.005114,-0.996449,0.084045,0.000000,0.000000,0.000000,-1,-0.010045,0.001435,0.009097,-0.001554,-0.006282,-0.001098
"2019-04-16 05:08:38.026 +0000",1555391318.025915,-3.077013,1.486649,-0.123144,-0.005424,-0.996462,0.083873,0.000000,0.000000,0.000000,-1,-0.000020,0.002660,0.006610,-0.003594,-0.004515,-0.000209
"2019-04-16 05:08:38.048 +0000",1555391318.048192,-3.074250,1.486679,-0.125820,-0.005654,-0.996464,0.083829,0.000000,0.000000,0.000000,-1,-0.005028,0.001437,0.009100,-0.001243,-0.007152,0.000903
"2019-04-16 05:08:38.070 +0000",1555391318.070498,-3.073169,1.486735,-0.126989,-0.005740,-0.996469,0.083766,0.000000,0.000000,0.000000,-1,-0.005052,-0.004733,0.004192,0.002231,-0.009512,0.001699
"2019-04-16 05:08:38.093 +0000",1555391318.092795,-3.073967,1.486713,-0.126226,-0.005675,-0.996467,0.083792,0.000000,0.000000,0.000000,-1,0.006245,0.000198,0.005393,0.005477,-0.003151,-0.001440
"2019-04-16 05:08:38.115 +0000",1555391318.115078,-3.074295,1.486552,-0.125855,-0.005659,-0.996454,0.083955,0.000000,0.000000,0.000000,-1,0.010020,0.002669,0.007853,0.002546,-0.004538,0.000579
"2019-04-16 05:08:38.137 +0000",1555391318.137383,-3.075591,1.486392,-0.124533,-0.005560,-0.996440,0.084120,0.000000,0.000000,0.000000,-1,0.010002,-0.001036,0.004163,0.006186,-0.006657,-0.001235
"2019-04-16 05:08:38.160 +0000",1555391318.159690,-3.075888,1.486123,-0.124310,-0.005553,-0.996417,0.084390,0.000000,0.000000,0.000000,-1,0.015027,-0.003484,0.006668,0.002821,-0.004819,0.000129
"2019-04-16 05:08:38.182 +0000",1555391318.181964,-3.075056,1.485929,-0.125335,-0.005636,-0.996401,0.084578,0.000000,0.000000,0.000000,-1,0.009965,-0.007176,0.004284,-0.000712,-0.004301,-0.005309
"2019-04-16 05:08:38.204 +0000",1555391318.204270,-3.071743,1.485973,-0.128631,-0.005913,-0.996405,0.084516,0.000000,0.000000,0.000000,-1,0.003714,0.003907,0.007905,-0.002571,-0.006205,-0.004239
"2019-04-16 05:08:38.227 +0000",1555391318.226575,-3.068977,1.485939,-0.131527,-0.006149,-0.996402,0.084532,0.000000,0.000000,0.000000,-1,0.001206,-0.010846,0.010517,-0.001114,-0.006787,0.002916
"2019-04-16 05:08:38.249 +0000",1555391318.248862,-3.067060,1.486138,-0.133572,-0.006296,-0.996419,0.084323,0.000000,0.000000,0.000000,-1,-0.006329,0.000208,0.006693,0.000498,-0.008846,-0.002307
"2019-04-16 05:08:38.271 +0000",1555391318.271156,-3.065691,1.486385,-0.134899,-0.006393,-0.996439,0.084069,0.000000,0.000000,0.000000,-1,-0.010070,0.002686,0.011632,0.003509,-0.007192,-0.001778
"2019-04-16 05:08:38.293 +0000",1555391318.293462,-3.062606,1.486732,-0.137964,-0.006625,-0.996469,0.083704,0.000000,0.000000,0.000000,-1,-0.012587,-0.002241,0.010434,0.001086,-0.007758,-0.000376
"2019-04-16 05:08:38.316 +0000",1555391318.315752,-3.059820,1.486737,-0.141063,-0.006858,-0.996469,0.083680,0.000000,0.000000,0.000000,-1,-0.001301,-0.021908,0.013094,-0.001519,-0.009390,0.000014
"2019-04-16 05:08:38.338 +0000",1555391318.338042,-3.056348,1.486620,-0.145003,-0.007158,-0.996459,0.083772,0.000000,0.000000,0.000000,-1,0.007471,-0.019454,0.010595,-0.001966,-0.006654,-0.001115
"2019-04-16 05:08:38.360 +0000",1555391318.360349,-3.054051,1.486428,-0.147608,-0.007368,-0.996443,0.083945,0.000000,0.000000,0.000000,-1,0.007419,-0.012091,0.004385,-0.002123,-0.004244,0.002374
"2019-04-16 05:08:38.383 +0000",1555391318.382654,-3.052895,1.486103,-0.149077,-0.007493,-0.996416,0.084259,0.000000,0.000000,0.000000,-1,0.008668,-0.013325,0.003156,-0.000594,-0.004912,0.004333
"2019-04-16 05:08:38.405 +0000",1555391318.404930,-3.052604,1.485924,-0.149491,-0.007534,-0.996400,0.084435,0.000000,0.000000,0.000000,-1,0.004935,-0.005922,0.009291,0.003521,-0.005705,0.000281
"2019-04-16 05:08:38.427 +0000",1555391318.427236,-3.052139,1.485829,-0.150105,-0.007581,-0.996392,0.084526,0.000000,0.000000,0.000000,-1,0.003694,-0.009598,0.013044,0.004759,-0.006614,0.000923
"2019-04-16 05:08:38.450 +0000",1555391318.449542,-3.052661,1.485627,-0.150123,-0.007555,-0.996375,0.084729,0.000000,0.000000,0.000000,-1,0.011180,-0.031761,0.007040,0.003908,-0.006219,0.001941
"2019-04-16 05:08:38.472 +0000",1555391318.471825,-3.049385,1.485404,-0.153901,-0.007853,-0.996356,0.084926,0.000000,0.000000,0.000000,-1,0.011175,-0.015784,0.003178,-0.007741,-0.006451,-0.001414
"2019-04-16 05:08:38.494 +0000",1555391318.494121,-3.048654,1.485110,-0.154730,-0.007942,-0.996331,0.085212,0.000000,0.000000,0.000000,-1,0.014925,-0.004730,-0.001880,-0.006325,-0.004828,0.000039
"2019-04-16 05:08:38.516 +0000",1555391318.516416,-3.047171,1.484738,-0.156254,-0.008104,-0.996299,0.085570,0.000000,0.000000,0.000000,-1,0.011159,-0.002276,-0.003143,-0.001952,-0.005639,0.000963
"2019-04-16 05:08:38.539 +0000",1555391318.538704,-3.046237,1.484633,-0.157238,-0.008194,-0.996290,0.085666,0.000000,0.000000,0.000000,-1,-0.001371,-0.002240,0.005585,-0.002655,-0.004244,-0.000308
"2019-04-16 05:08:38.561 +0000",1555391318.561010,-3.044692,1.484701,-0.158760,-0.008319,-0.996296,0.085585,0.000000,0.000000,0.000000,-1,-0.003873,0.000224,0.006802,-0.001248,-0.006771,0.000215
"2019-04-16 05:08:38.583 +0000",1555391318.583315,-3.041228,1.484748,-0.162214,-0.008611,-0.996300,0.085509,0.000000,0.000000,0.000000,-1,0.002413,0.000241,0.010527,-0.002070,-0.005302,-0.001708
"2019-04-16 05:08:38.606 +0000",1555391318.605658,-3.037196,1.484733,-0.166126,-0.008957,-0.996299,0.085489,0.000000,0.000000,0.000000,-1,-0.001355,0.007611,0.007980,-0.004074,-0.009332,-0.001230
"2019-04-16 05:08:38.628 +0000",1555391318.627896,-3.034885,1.484823,-0.168209,-0.009145,-0.996307,0.085380,0.000000,0.000000,0.000000,-1,-0.005141,0.011276,0.001743,-0.004191,-0.007508,0.001596
"2019-04-16 05:08:38.650 +0000",1555391318.650202,-3.032117,1.485018,-0.170649,-0.009360,-0.996323,0.085160,0.000000,0.000000,0.000000,-1,-0.021450,0.014955,0.000464,-0.004815,-0.005248,0.002776
"2019-04-16 05:08:38.673 +0000",1555391318.672508,-3.028073,1.485326,-0.174532,-0.009670,-0.996350,0.084816,0.000000,0.000000,0.000000,-1,-0.005130,0.003910,0.005532,-0.005299,-0.006473,0.000740
"2019-04-16 05:08:38.695 +0000",1555391318.694787,-3.026544,1.485179,-0.175982,-0.009816,-0.996337,0.084947,0.000000,0.000000,0.000000,-1,0.011181,0.003922,0.006780,0.001180,-0.007401,-0.000231
"2019-04-16 05:08:38.717 +0000",1555391318.717089,-3.025485,1.484942,-0.176834,-0.009934,-0.996317,0.085171,0.000000,0.000000,0.000000,-1,0.012425,0.011308,0.005507,0.000794,-0.006918,-0.001340
"2019-04-16 05:08:38.739 +0000",1555391318.739395,-3.025453,1.484738,-0.176571,-0.009960,-0.996299,0.085374,0.000000,0.000000,0.000000,-1,0.013654,0.012515,-0.000705,-0.001850,-0.003243,-0.001114
"2019-04-16 05:08:38.762 +0000",1555391318.761688,-3.023527,1.484539,-0.178226,-0.010148,-0.996282,0.085550,0.000000,0.000000,0.000000,-1,0.009890,0.011283,-0.000695,-0.006454,-0.002772,-0.001459
"2019-04-16 05:08:38.784 +0000",1555391318.783976,-3.020648,1.484527,-0.180873,-0.010395,-0.996281,0.085533,0.000000,0.000000,0.000000,-1,0.006136,0.011291,0.001785,-0.003688,-0.008495,-0.005058
"2019-04-16 05:08:38.806 +0000",1555391318.806281,-3.017404,1.484429,-0.183856,-0.010685,-0.996273,0.085596,0.000000,0.000000,0.000000,-1,0.007379,0.010052,-0.000683,-0.006313,-0.006016,-0.001597
"2019-04-16 05:08:38.829 +0000",1555391318.828586,-3.016980,1.484360,-0.183866,-0.010730,-0.996267,0.085660,0.000000,0.000000,0.000000,-1,0.003630,0.023587,0.000436,0.001254,-0.008677,-0.002820
"2019-04-16 05:08:38.851 +0000",1555391318.850887,-3.013290,1.484294,-0.186984,-0.011054,-0.996261,0.085685,0.000000,0.000000,0.000000,-1,0.004889,0.023592,0.001678,-0.006509,-0.007386,0.000070
"2019-04-16 05:08:38.873 +0000",1555391318.873168,-3.010923,1.484096,-0.188861,-0.011283,-0.996244,0.085853,0.000000,0.000000,0.000000,-1,0.009910,0.021139,0.002943,-0.002420,-0.005267,0.000725
"2019-04-16 05:08:38.895 +0000",1555391318.895474,-3.007704,1.484020,-0.191693,-0.011569,-0.996237,0.085892,0.000000,0.000000,0.000000,-1,0.007404,0.016238,0.005487,-0.003735,-0.006616,-0.003555
"2019-04-16 05:08:38.918 +0000",1555391318.917751,-3.006940,1.483989,-0.192101,-0.011639,-0.996235,0.085914,0.000000,0.000000,0.000000,-1,0.004884,0.014998,0.003015,0.002774,-0.004574,-0.003776
"2019-04-16 05:08:38.940 +0000",1555391318.940055,-3.007068,1.483989,-0.191612,-0.011628,-0.996235,0.085915,0.000000,0.000000,0.000000,-1,-0.000146,0.018671,-0.000741,0.000642,-0.004437,-0.000527
"2019-04-16 05:08:38.962 +0000",1555391318.962361,-3.007179,1.483969,-0.191115,-0.011621,-0.996233,0.085937,0.000000,0.000000,0.000000,-1,0.006134,0.016223,0.001764,0.001505,-0.006697,-0.000365
"2019-04-16 05:08:38.985 +0000",1555391318.984665,-3.008384,1.483865,-0.189446,-0.011531,-0.996224,0.086054,0.000000,0.000000,0.000000,-1,0.004853,0.022345,-0.005735,0.002742,-0.006416,0.001593
"2019-04-16 05:08:39.007 +0000",1555391319.006941,-3.010515,1.483856,-0.186978,-0.011349,-0.996223,0.086087,0.000000,0.000000,0.000000,-1,-0.002661,0.010060,-0.000668,0.004269,-0.005486,0.000095
"2019-04-16 05:08:39.029 +0000",1555391319.029248,-3.012590,1.483955,-0.184797,-0.011158,-0.996232,0.086011,0.000000,0.000000,0.000000,-1,-0.005171,-0.001008,0.000669,0.005085,-0.008743,0.000460
"2019-04-16 05:08:39.052 +0000",1555391319.051553,-3.014680,1.484256,-0.182727,-0.010940,-0.996258,0.085737,0.000000,0.000000,0.000000,-1,-0.010202,-0.004710,-0.001782,0.006423,-0.008930,-0.000914
"2019-04-16 05:08:39.074 +0000",1555391319.073827,-3.017395,1.484348,-0.180108,-0.010696,-0.996266,0.085676,0.000000,0.000000,0.000000,-1,0.002339,-0.002234,-0.003032,0.007415,-0.007931,0.000811
"2019-04-16 05:08:39.096 +0000",1555391319.096134,-3.020495,1.484398,-0.177038,-0.010424,-0.996270,0.085659,0.000000,0.000000,0.000000,-1,0.004853,-0.000998,-0.001803,0.005877,-0.007270,-0.001659
"2019-04-16 05:08:39.118 +0000",1555391319.118433,-3.022941,1.484428,-0.174591,-0.010211,-0.996273,0.085654,0.000000,0.000000,0.000000,-1,-0.001419,-0.001000,-0.001806,0.002994,-0.006138,0.001794
"2019-04-16 05:08:39.141 +0000",1555391319.140724,-3.024264,1.484434,-0.173236,-0.010097,-0.996273,0.085662,0.000000,0.000000,0.000000,-1,-0.000164,-0.001000,-0.001806,0.002681,-0.005741,0.001801
"2019-04-16 05:08:39.163 +0000",1555391319.163016,-3.026136,1.484367,-0.171362,-0.009944,-0.996267,0.085747,0.000000,0.000000,0.000000,-1,0.001090,0.006377,-0.003112,0.003475,-0.008066,0.000709
"2019-04-16 05:08:39.185 +0000",1555391319.185325,-3.028597,1.484520,-0.168646,-0.009716,-0.996281,0.085619,0.000000,0.000000,0.000000,-1,-0.011430,0.012541,0.001789,0.001156,-0.004742,-0.000201
"2019-04-16 05:08:39.208 +0000",1555391319.207627,-3.026107,1.484665,-0.170785,-0.009913,-0.996293,0.085452,0.000000,0.000000,0.000000,-1,-0.005159,0.011314,0.001803,-0.003500,-0.009612,0.001020
"2019-04-16 05:08:39.230 +0000",1555391319.229908,-3.025113,1.484375,-0.171617,-0.010031,-0.996268,0.085729,0.000000,0.000000,0.000000,-1,0.011163,0.002729,0.006848,0.003546,-0.010141,0.004542
"2019-04-16 05:08:39.252 +0000",1555391319.252214,-3.027561,1.483866,-0.169398,-0.009879,-0.996224,0.086258,0.000000,0.000000,0.000000,-1,0.019917,-0.024317,0.004607,0.009238,-0.002174,0.002732
"2019-04-16 05:08:39.275 +0000",1555391319.274519,-3.034703,1.483426,-0.163241,-0.009309,-0.996186,0.086762,0.000000,0.000000,0.000000,-1,0.017387,-0.051385,0.003603,0.011934,0.001328,0.001938
"2019-04-16 05:08:39.297 +0000",1555391319.296795,-3.038029,1.483344,-0.161544,-0.009029,-0.996179,0.086874,0.000000,0.000000,0.000000,-1,-0.006441,-0.083355,0.010078,0.004604,-0.010566,0.002406
"2019-04-16 05:08:39.319 +0000",1555391319.319102,-3.038682,1.483495,-0.163011,-0.008957,-0.996192,0.086729,0.000000,0.000000,0.000000,-1,-0.013969,-0.101800,0.012719,0.001816,-0.008859,0.003725
"2019-04-16 05:08:39.341 +0000",1555391319.341403,-3.038955,1.483623,-0.165499,-0.008920,-0.996203,0.086604,0.000000,0.000000,0.000000,-1,-0.016425,-0.132487,0.030356,0.007211,-0.011091,0.007802
"2019-04-16 05:08:39.364 +0000",1555391319.363680,-3.038561,1.483729,-0.169240,-0.008943,-0.996212,0.086496,0.000000,0.000000,0.000000,-1,-0.011493,-0.155924,0.013197,0.007708,-0.015736,0.011893
"2019-04-16 05:08:39.386 +0000",1555391319.385988,-3.047125,1.483490,-0.164263,-0.008225,-0.996191,0.086807,0.000000,0.000000,0.000000,-1,-0.000275,-0.160907,-0.004124,0.012894,-0.007059,0.012910
"2019-04-16 05:08:39.408 +0000",1555391319.408293,-3.057868,1.483046,-0.157015,-0.007329,-0.996152,0.087331,0.000000,0.000000,0.000000,-1,0.010926,-0.151152,-0.027777,0.002492,-0.000445,0.008983
"2019-04-16 05:08:39.431 +0000",1555391319.430589,-3.066406,1.482888,-0.151819,-0.006595,-0.996139,0.087547,0.000000,0.000000,0.000000,-1,0.003403,-0.154830,-0.026518,-0.013593,0.000945,0.005746
"2019-04-16 05:08:39.453 +0000",1555391319.452875,-3.066961,1.482448,-0.154732,-0.006579,-0.996100,0.087987,0.000000,0.000000,0.000000,-1,0.009730,-0.157234,-0.012844,-0.016096,-0.003976,0.005824
"2019-04-16 05:08:39.475 +0000",1555391319.475175,-3.064462,1.482216,-0.160573,-0.006817,-0.996079,0.088201,0.000000,0.000000,0.000000,-1,-0.000251,-0.152269,-0.000484,-0.018467,-0.009048,0.003001
"2019-04-16 05:08:39.497 +0000",1555391319.497479,-3.061779,1.482093,-0.166367,-0.007063,-0.996068,0.088306,0.000000,0.000000,0.000000,-1,-0.007748,-0.125200,0.001756,-0.001100,-0.006281,0.002942
"2019-04-16 05:08:39.520 +0000",1555391319.519761,-3.062614,1.482357,-0.168183,-0.006968,-0.996092,0.088048,0.000000,0.000000,0.000000,-1,-0.011476,-0.117792,0.009132,0.001140,-0.005602,0.000285
"2019-04-16 05:08:39.542 +0000",1555391319.542052,-3.064005,1.482428,-0.169290,-0.006841,-0.996098,0.087988,0.000000,0.000000,0.000000,-1,0.003604,-0.098090,0.012684,0.001698,-0.007274,-0.000830
"2019-04-16 05:08:39.564 +0000",1555391319.564374,-3.065832,1.482532,-0.168909,-0.006672,-0.996107,0.087897,0.000000,0.000000,0.000000,-1,-0.008954,-0.035412,-0.001524,0.004154,-0.007738,-0.004309
"2019-04-16 05:08:39.587 +0000",1555391319.586650,-3.066508,1.483421,-0.168243,-0.006546,-0.996185,0.087019,0.000000,0.000000,0.000000,-1,-0.035249,0.015026,0.001738,-0.000336,-0.005982,-0.008039
"2019-04-16 05:08:39.609 +0000",1555391319.608956,-3.061336,1.484466,-0.172728,-0.006913,-0.996276,0.085946,0.000000,0.000000,0.000000,-1,-0.028962,0.038417,0.002757,-0.010223,-0.009629,-0.006036
"2019-04-16 05:08:39.631 +0000",1555391319.631260,-3.054108,1.485049,-0.178553,-0.007483,-0.996326,0.085315,0.000000,0.000000,0.000000,-1,-0.012609,0.080267,0.007356,-0.009119,-0.009411,-0.003116
"2019-04-16 05:08:39.654 +0000",1555391319.653537,-3.047374,1.485220,-0.183165,-0.008041,-0.996341,0.085093,0.000000,0.000000,0.000000,-1,-0.003820,0.102408,0.005924,-0.009629,-0.008893,-0.003092
"2019-04-16 05:08:39.676 +0000",1555391319.675843,-3.043378,1.485422,-0.184545,-0.008361,-0.996358,0.084860,0.000000,0.000000,0.000000,-1,0.007456,0.123301,-0.000459,-0.000428,-0.005489,-0.006674
"2019-04-16 05:08:39.698 +0000",1555391319.698148,-3.040929,1.485590,-0.184090,-0.008552,-0.996372,0.084672,0.000000,0.000000,0.000000,-1,-0.006347,0.131896,-0.003023,0.000511,-0.006039,-0.007996
"2019-04-16 05:08:39.720 +0000",1555391319.720454,-3.040142,1.486108,-0.181965,-0.008567,-0.996416,0.084153,0.000000,0.000000,0.000000,-1,-0.007595,0.128215,-0.000510,0.000312,-0.001341,-0.005814
"2019-04-16 05:08:39.743 +0000",1555391319.742741,-3.042904,1.486452,-0.176743,-0.008301,-0.996445,0.083835,0.000000,0.000000,0.000000,-1,-0.008837,0.101181,0.007170,0.014084,-0.007614,-0.001651
"2019-04-16 05:08:39.765 +0000",1555391319.765035,-3.041451,1.486689,-0.176052,-0.008399,-0.996465,0.083588,0.000000,0.000000,0.000000,-1,-0.010082,0.092584,0.010965,0.016852,-0.009623,-0.000793
"2019-04-16 05:08:39.787 +0000",1555391319.787342,-3.043027,1.486834,-0.172235,-0.008253,-0.996477,0.083456,0.000000,0.000000,0.000000,-1,-0.012588,0.106124,0.010820,0.012388,-0.009779,-0.000555
"2019-04-16 05:08:39.810 +0000",1555391319.809612,-3.049323,1.486879,-0.164389,-0.007723,-0.996481,0.083463,0.000000,0.000000,0.000000,-1,0.003646,0.093767,-0.005193,0.018694,-0.006922,0.005313
"2019-04-16 05:08:39.832 +0000",1555391319.831922,-3.052943,1.487601,-0.159135,-0.007357,-0.996541,0.082773,0.000000,0.000000,0.000000,-1,-0.037706,0.056909,0.011241,0.011691,-0.003062,-0.003748
"2019-04-16 05:08:39.854 +0000",1555391319.854227,-3.050949,1.488513,-0.159839,-0.007440,-0.996617,0.081853,0.000000,0.000000,0.000000,-1,-0.038938,0.053242,0.017474,0.007379,-0.002544,0.002680
"2019-04-16 05:08:39.877 +0000",1555391319.876503,-3.048858,1.489043,-0.160916,-0.007562,-0.996660,0.081311,0.000000,0.000000,0.000000,-1,-0.017689,0.045803,0.000181,-0.004325,-0.021177,0.006152
"2019-04-16 05:08:39.899 +0000",1555391319.898810,-3.051320,1.489068,-0.157219,-0.007360,-0.996662,0.081305,0.000000,0.000000,0.000000,-1,0.001050,0.053115,-0.019725,-0.002147,-0.001003,-0.001913
"2019-04-16 05:08:39.921 +0000",1555391319.921115,-3.050873,1.489366,-0.156831,-0.007369,-0.996686,0.081007,0.000000,0.000000,0.000000,-1,-0.005177,0.029798,-0.004633,-0.002488,0.008680,-0.006040
"2019-04-16 05:08:39.943 +0000",1555391319.943413,-3.038622,1.489625,-0.168225,-0.008334,-0.996707,0.080653,0.000000,0.000000,0.000000,-1,-0.006397,0.038437,0.002737,-0.023251,-0.011136,0.001043
"2019-04-16 05:08:39.966 +0000",1555391319.965697,-3.032757,1.489493,-0.172836,-0.008822,-0.996697,0.080733,0.000000,0.000000,0.000000,-1,0.002390,0.059358,0.002532,-0.017088,-0.011925,0.002549
"2019-04-16 05:08:39.988 +0000",1555391319.988003,-3.027269,1.489117,-0.177248,-0.009307,-0.996666,0.081057,0.000000,0.000000,0.000000,-1,0.004906,0.038466,0.007682,-0.003754,-0.004829,0.005689
"2019-04-16 05:08:40.010 +0000",1555391320.010310,-3.026058,1.488866,-0.178142,-0.009434,-0.996646,0.081292,0.000000,0.000000,0.000000,-1,-0.002618,0.000353,0.014219,0.004307,-0.000181,0.003760
"2019-04-16 05:08:40.033 +0000",1555391320.032593,-3.024707,1.488797,-0.180142,-0.009552,-0.996640,0.081349,0.000000,0.000000,0.000000,-1,0.003651,-0.042674,0.020805,0.000275,-0.001987,-0.003407
"2019-04-16 05:08:40.055 +0000",1555391320.054891,-3.021117,1.488792,-0.184752,-0.009845,-0.996640,0.081318,0.000000,0.000000,0.000000,-1,-0.005147,-0.046382,0.017112,0.001574,-0.009861,0.004116
"2019-04-16 05:08:40.077 +0000",1555391320.077197,-3.023380,1.488878,-0.183702,-0.009650,-0.996647,0.081256,0.000000,0.000000,0.000000,-1,-0.010178,-0.061151,0.015999,0.013313,-0.013592,0.006528
"2019-04-16 05:08:40.099 +0000",1555391320.099472,-3.024983,1.489082,-0.183553,-0.009497,-0.996663,0.081069,0.000000,0.000000,0.000000,-1,-0.008971,-0.063654,0.004855,0.013433,-0.008906,-0.001510
"2019-04-16 05:08:40.122 +0000",1555391320.121777,-3.030495,1.489052,-0.179434,-0.009053,-0.996661,0.081150,0.000000,0.000000,0.000000,-1,0.009831,-0.052594,-0.000198,0.007512,-0.010374,-0.000065
"2019-04-16 05:08:40.144 +0000",1555391320.144063,-3.036922,1.488766,-0.174206,-0.008561,-0.996637,0.081489,0.000000,0.000000,0.000000,-1,0.016087,-0.057477,-0.001418,0.007706,-0.000235,-0.001335
"2019-04-16 05:08:40.166 +0000",1555391320.166359,-3.040613,1.488562,-0.171669,-0.008281,-0.996621,0.081725,0.000000,0.000000,0.000000,-1,0.007334,-0.037784,0.002124,0.003642,0.002724,-0.000655
"2019-04-16 05:08:40.189 +0000",1555391320.188665,-3.039821,1.488451,-0.173214,-0.008356,-0.996612,0.081826,0.000000,0.000000,0.000000,-1,0.006111,-0.029150,0.008250,-0.003194,-0.011567,0.001609
"2019-04-16 05:08:40.211 +0000",1555391320.210970,-3.035176,1.488383,-0.178469,-0.008744,-0.996606,0.081854,0.000000,0.000000,0.000000,-1,-0.001396,-0.031594,0.013231,-0.001876,-0.005042,-0.001562
"2019-04-16 05:08:40.233 +0000",1555391320.233277,-3.035847,1.488336,-0.179015,-0.008694,-0.996602,0.081906,0.000000,0.000000,0.000000,-1,0.001079,-0.067276,0.011066,0.011532,-0.005275,0.002139
"2019-04-16 05:08:40.256 +0000",1555391320.255568,-3.042772,1.488356,-0.173621,-0.008124,-0.996604,0.081944,0.000000,0.000000,0.000000,-1,-0.000208,-0.056244,0.001041,0.011771,-0.014993,0.000072
"2019-04-16 05:08:40.278 +0000",1555391320.277858,-3.044635,1.488544,-0.172972,-0.007954,-0.996619,0.081775,0.000000,0.000000,0.000000,-1,-0.003970,-0.061161,0.002323,0.000019,-0.006875,-0.000918
"2019-04-16 05:08:40.300 +0000",1555391320.300164,-3.047352,1.488619,-0.171775,-0.007724,-0.996625,0.081721,0.000000,0.000000,0.000000,-1,-0.007754,-0.071018,-0.001314,0.002658,-0.007449,0.002690
"2019-04-16 05:08:40.322 +0000",1555391320.322440,-3.046627,1.488834,-0.173783,-0.007763,-0.996643,0.081501,0.000000,0.000000,0.000000,-1,-0.017756,-0.058584,0.005990,-0.006031,-0.007431,0.001797
"2019-04-16 05:08:40.345 +0000",1555391320.344745,-3.044441,1.489542,-0.177244,-0.007873,-0.996701,0.080782,0.000000,0.000000,0.000000,-1,-0.030291,-0.052434,0.007171,-0.002518,-0.010044,0.000273
"2019-04-16 05:08:40.367 +0000",1555391320.367051,-3.034784,1.490081,-0.188425,-0.008595,-0.996744,0.080168,0.000000,0.000000,0.000000,-1,-0.038999,-0.083104,0.029771,-0.007060,-0.004949,0.006807
"2019-04-16 05:08:40.389 +0000",1555391320.389328,-3.027566,1.490729,-0.197784,-0.009100,-0.996796,0.079463,0.000000,0.000000,0.000000,-1,-0.040274,-0.092959,0.026136,-0.002771,-0.008010,0.010427
"2019-04-16 05:08:40.412 +0000",1555391320.411646,-3.016377,1.491339,-0.210780,-0.009913,-0.996845,0.078752,0.000000,0.000000,0.000000,-1,-0.047807,-0.080676,0.022304,-0.008672,-0.008831,0.006103
"2019-04-16 05:08:40.434 +0000",1555391320.433939,-3.011347,1.491974,-0.217887,-0.010227,-0.996895,0.078074,0.000000,0.000000,0.000000,-1,-0.049064,-0.104039,0.024992,0.004611,-0.006935,0.011831
"2019-04-16 05:08:40.456 +0000",1555391320.456233,-3.012634,1.492861,-0.218919,-0.010012,-0.996965,0.077210,0.000000,0.000000,0.000000,-1,-0.056616,-0.090544,0.016182,0.014025,0.002671,0.006851
"2019-04-16 05:08:40.479 +0000",1555391320.478528,-3.010534,1.493989,-0.223400,-0.010028,-0.997052,0.076074,0.000000,0.000000,0.000000,-1,-0.055337,-0.116338,0.026335,-0.005582,-0.015918,0.004432
"2019-04-16 05:08:40.501 +0000",1555391320.500827,-2.999148,1.494730,-0.238023,-0.010788,-0.997108,0.075224,0.000000,0.000000,0.000000,-1,-0.036524,-0.165394,0.034197,-0.001724,-0.013878,0.006915
"2019-04-16 05:08:40.523 +0000",1555391320.523132,-2.999742,1.494953,-0.240903,-0.010712,-0.997125,0.075010,0.000000,0.000000,0.000000,-1,-0.012736,-0.134693,0.017805,0.010666,-0.005270,0.002948
"2019-04-16 05:08:40.545 +0000",1555391320.545408,-3.002251,1.495175,-0.240732,-0.010493,-0.997142,0.074818,0.000000,0.000000,0.000000,-1,-0.001491,-0.133501,0.006634,0.003383,0.003993,0.003292
"2019-04-16 05:08:40.568 +0000",1555391320.567703,-3.001475,1.495131,-0.243573,-0.010557,-0.997139,0.074852,0.000000,0.000000,0.000000,-1,-0.001494,-0.081870,-0.002507,-0.011339,-0.009468,0.000236
"2019-04-16 05:08:40.590 +0000",1555391320.590021,-3.001907,1.495186,-0.245892,-0.010517,-0.997143,0.074802,0.000000,0.000000,0.000000,-1,0.008550,-0.138408,0.009164,-0.004253,-0.009418,-0.003772
"2019-04-16 05:08:40.612 +0000",1555391320.612295,-3.003064,1.495356,-0.246639,-0.010407,-0.997156,0.074647,0.000000,0.000000,0.000000,-1,-0.008988,-0.046190,-0.000346,-0.007445,-0.001135,-0.007158
"2019-04-16 05:08:40.635 +0000",1555391320.634609,-2.988118,1.495656,-0.262357,-0.011476,-0.997178,0.074187,0.000000,0.000000,0.000000,-1,-0.001436,-0.036326,0.004537,-0.030165,-0.007247,-0.007262
"2019-04-16 05:08:40.657 +0000",1555391320.656908,-2.974956,1.495494,-0.275482,-0.012478,-0.997166,0.074189,0.000000,0.000000,0.000000,-1,0.024941,0.021501,0.004039,-0.022998,-0.000225,-0.010743
"2019-04-16 05:08:40.679 +0000",1555391320.679183,-2.962152,1.495342,-0.287062,-0.013454,-0.997155,0.074172,0.000000,0.000000,0.000000,-1,0.009904,0.065844,-0.001347,-0.018391,-0.012596,-0.005157
"2019-04-16 05:08:40.701 +0000",1555391320.701498,-2.958869,1.495093,-0.289466,-0.013743,-0.997136,0.074371,0.000000,0.000000,0.000000,-1,0.013736,0.024113,0.022595,0.013697,0.002461,-0.005676
"2019-04-16 05:08:40.724 +0000",1555391320.723795,-2.949411,1.495158,-0.299313,-0.014433,-0.997141,0.074175,0.000000,0.000000,0.000000,-1,0.008723,-0.050873,0.036904,0.001311,-0.001303,-0.012514
"2019-04-16 05:08:40.746 +0000",1555391320.746100,-2.943468,1.494659,-0.306040,-0.014972,-0.997103,0.074577,0.000000,0.000000,0.000000,-1,0.031190,-0.050969,0.009623,-0.009656,-0.010710,0.003563
"2019-04-16 05:08:40.768 +0000",1555391320.768378,-2.945031,1.494482,-0.303392,-0.014890,-0.997090,0.074772,0.000000,0.000000,0.000000,-1,-0.001488,0.075580,-0.027489,-0.010211,-0.011181,0.002559
"2019-04-16 05:08:40.791 +0000",1555391320.790684,-2.951949,1.494427,-0.294815,-0.014382,-0.997085,0.074928,0.000000,0.000000,0.000000,-1,-0.001451,0.060862,-0.016194,0.008569,0.007705,0.005745
"2019-04-16 05:08:40.813 +0000",1555391320.812990,-2.961765,1.494733,-0.283852,-0.013592,-0.997109,0.074765,0.000000,0.000000,0.000000,-1,-0.008979,0.064544,-0.017472,0.015926,-0.018165,-0.003674
"2019-04-16 05:08:40.835 +0000",1555391320.835266,-2.962652,1.495454,-0.282406,-0.013397,-0.997163,0.074070,0.000000,0.000000,0.000000,-1,-0.028915,-0.031227,0.031748,0.011444,-0.015578,-0.001911
"2019-04-16 05:08:40.858 +0000",1555391320.857584,-2.968770,1.495669,-0.277700,-0.012907,-0.997179,0.073938,0.000000,0.000000,0.000000,-1,-0.012728,-0.043568,0.000817,0.010267,-0.010145,0.000479
"2019-04-16 05:08:40.880 +0000",1555391320.879878,-2.968743,1.496149,-0.277262,-0.012827,-0.997215,0.073466,0.000000,0.000000,0.000000,-1,-0.013957,0.043740,-0.007401,-0.005331,-0.010109,-0.010386
"2019-04-16 05:08:40.902 +0000",1555391320.902153,-2.969602,1.496981,-0.274515,-0.012621,-0.997277,0.072660,0.000000,0.000000,0.000000,-1,-0.035306,0.122387,-0.026717,0.005328,-0.003608,0.001864
"2019-04-16 05:08:40.924 +0000",1555391320.924474,-2.967217,1.497166,-0.273731,-0.012763,-0.997290,0.072449,0.000000,0.000000,0.000000,-1,0.002395,0.121240,-0.009322,-0.021417,-0.014688,0.004608
"2019-04-16 05:08:40.947 +0000",1555391320.946765,-2.959539,1.496441,-0.279828,-0.013450,-0.997237,0.073060,0.000000,0.000000,0.000000,-1,0.050019,0.073277,-0.011354,-0.015847,0.010649,-0.005189
"2019-04-16 05:08:40.969 +0000",1555391320.969066,-2.944998,1.495955,-0.292193,-0.014605,-0.997201,0.073331,0.000000,0.000000,0.000000,-1,0.027454,0.074512,-0.007648,-0.028379,-0.003028,-0.007245
"2019-04-16 05:08:40.991 +0000",1555391320.991345,-2.944183,1.495192,-0.290890,-0.014814,-0.997143,0.074066,0.000000,0.000000,0.000000,-1,0.036199,0.128574,-0.025489,-0.029192,-0.000858,-0.003372
"2019-04-16 05:08:41.014 +0000",1555391321.013653,-2.934135,1.494388,-0.297404,-0.015723,-0.997082,0.074697,0.000000,0.000000,0.000000,-1,0.029993,0.151992,-0.013289,-0.030573,-0.003696,0.001475
"2019-04-16 05:08:41.036 +0000",1555391321.035960,-2.926208,1.493280,-0.302095,-0.016550,-0.996997,0.075649,0.000000,0.000000,0.000000,-1,0.032555,0.149649,-0.004616,-0.011480,-0.011075,0.007771
"2019-04-16 05:08:41.058 +0000",1555391321.058235,-2.921936,1.492811,-0.302813,-0.016975,-0.996961,0.076035,0.000000,0.000000,0.000000,-1,0.012529,0.170582,0.002634,-0.000145,-0.002109,-0.000916
"2019-04-16 05:08:41.081 +0000",1555391321.080551,-2.922876,1.492615,-0.298494,-0.016946,-0.996945,0.076241,0.000000,0.000000,0.000000,-1,0.003731,0.133679,0.004196,0.012415,-0.002002,0.006492
"2019-04-16 05:08:41.103 +0000",1555391321.102846,-2.926228,1.492532,-0.292723,-0.016708,-0.996939,0.076378,0.000000,0.000000,0.000000,-1,-0.005087,0.089382,0.002102,0.027374,-0.012140,0.013878
"2019-04-16 05:08:41.125 +0000",1555391321.125124,-2.939920,1.492542,-0.277565,-0.015659,-0.996940,0.076590,0.000000,0.000000,0.000000,-1,-0.021481,0.053639,-0.013719,0.026142,-0.012933,0.012887
"2019-04-16 05:08:41.147 +0000",1555391321.147414,-2.950386,1.493244,-0.266864,-0.014724,-0.996994,0.076063,0.000000,0.000000,0.000000,-1,-0.039094,-0.005429,-0.016926,0.027358,-0.016159,0.012331
"2019-04-16 05:08:41.170 +0000",1555391321.169737,-2.956406,1.494224,-0.261533,-0.014085,-0.997070,0.075189,0.000000,0.000000,0.000000,-1,-0.036648,-0.039909,-0.026543,0.029802,-0.006897,0.015876
"2019-04-16 05:08:41.192 +0000",1555391321.192009,-2.973521,1.494323,-0.245581,-0.012780,-0.997077,0.075322,0.000000,0.000000,0.000000,-1,-0.014025,-0.068135,-0.011400,0.017434,-0.006096,0.016765
"2019-04-16 05:08:41.214 +0000",1555391321.214316,-2.987522,1.493849,-0.232476,-0.011797,-0.997041,0.075961,0.000000,0.000000,0.000000,-1,0.023702,-0.012618,-0.005720,0.018175,-0.001647,0.007748
"2019-04-16 05:08:41.237 +0000",1555391321.236622,-2.999541,1.493231,-0.220578,-0.010970,-0.996993,0.076707,0.000000,0.000000,0.000000,-1,0.023770,-0.033453,0.014309,0.024001,-0.004670,0.000029
"2019-04-16 05:08:41.259 +0000",1555391321.258926,-3.014361,1.493171,-0.208119,-0.009840,-0.996989,0.076921,0.000000,0.000000,0.000000,-1,-0.012702,-0.119615,0.005129,0.031416,0.003107,0.002150
"2019-04-16 05:08:41.281 +0000",1555391321.281203,-3.033080,1.493845,-0.191874,-0.008326,-0.997041,0.076424,0.000000,0.000000,0.000000,-1,-0.020244,-0.096275,-0.002530,0.036615,-0.007781,-0.003319
"2019-04-16 05:08:41.304 +0000",1555391321.303508,-3.024025,1.494169,-0.202161,-0.008979,-0.997066,0.076024,0.000000,0.000000,0.000000,-1,-0.047822,-0.045866,-0.006708,-0.015252,-0.031621,-0.000615
"2019-04-16 05:08:41.326 +0000",1555391321.325817,-3.028983,1.492856,-0.195865,-0.008749,-0.996964,0.077369,0.000000,0.000000,0.000000,-1,0.060178,0.261636,-0.027998,-0.013483,-0.002837,0.016152
"2019-04-16 05:08:41.348 +0000",1555391321.348091,-3.026070,1.494365,-0.200289,-0.008801,-0.997081,0.075847,0.000000,0.000000,0.000000,-1,-0.050331,-0.065539,-0.004050,-0.009555,-0.002279,-0.003261
"2019-04-16 05:08:41.370 +0000",1555391321.370393,-3.023061,1.495077,-0.203289,-0.008946,-0.997135,0.075117,0.000000,0.000000,0.000000,-1,-0.003835,0.042745,-0.001269,-0.060879,-0.001095,0.012835
"2019-04-16 05:08:41.393 +0000",1555391321.392703,-3.019403,1.495393,-0.205676,-0.009182,-0.997159,0.074770,0.000000,0.000000,0.000000,-1,-0.006279,0.029425,0.004998,-0.002125,0.009350,-0.012163
"2019-04-16 05:08:41.415 +0000",1555391321.414978,-3.014856,1.495130,-0.208759,-0.009555,-0.997139,0.074987,0.000000,0.000000,0.000000,-1,0.010105,0.078680,0.015732,-0.011029,0.004951,-0.002493
"2019-04-16 05:08:41.437 +0000",1555391321.437286,-3.009426,1.494604,-0.211908,-0.010031,-0.997099,0.075455,0.000000,0.000000,0.000000,-1,0.005099,0.111881,0.012954,0.001334,-0.020403,-0.008759
"2019-04-16 05:08:41.460 +0000",1555391321.459591,-2.993583,1.493835,-0.226571,-0.011338,-0.997040,0.076044,0.000000,0.000000,0.000000,-1,0.032772,0.115655,0.031541,0.002534,0.010941,-0.008372
"2019-04-16 05:08:41.482 +0000",1555391321.481894,-2.985479,1.494047,-0.234329,-0.011921,-0.997056,0.075742,0.000000,0.000000,0.000000,-1,-0.030120,0.009738,0.006403,0.019398,-0.015517,0.002154
"2019-04-16 05:08:41.504 +0000",1555391321.504173,-2.986835,1.495231,-0.234349,-0.011637,-0.997146,0.074591,0.000000,0.000000,0.000000,-1,-0.032760,-0.075212,-0.011452,0.022226,-0.049820,0.008356
"2019-04-16 05:08:41.526 +0000",1555391321.526488,-2.992187,1.494685,-0.228580,-0.011318,-0.997105,0.075191,0.000000,0.000000,0.000000,-1,0.032503,0.035492,-0.021091,-0.012287,0.021824,0.008061
"2019-04-16 05:08:41.549 +0000",1555391321.548785,-2.998729,1.493826,-0.222011,-0.010948,-0.997039,0.076111,0.000000,0.000000,0.000000,-1,0.031184,-0.018662,-0.028053,-0.007958,0.005309,0.010391
"2019-04-16 05:08:41.571 +0000",1555391321.571062,-3.006434,1.493982,-0.215710,-0.010340,-0.997051,0.076040,0.000000,0.000000,0.000000,-1,-0.032736,-0.077610,-0.017687,0.015849,-0.023960,-0.001256
"2019-04-16 05:08:41.593 +0000",1555391321.593369,-3.020703,1.494913,-0.202524,-0.009143,-0.997122,0.075259,0.000000,0.000000,0.000000,-1,0.001056,0.008388,-0.050691,0.000506,-0.013513,-0.001452
"2019-04-16 05:08:41.616 +0000",1555391321.615652,-3.064440,1.493340,-0.156199,-0.005964,-0.997002,0.077148,0.000000,0.000000,0.000000,-1,0.034074,0.135447,-0.281304,-0.004290,-0.018303,0.017868
"2019-04-16 05:08:41.638 +0000",1555391321.637948,3.114061,1.495786,-0.056454,0.002063,-0.997188,0.074912,0.000000,0.000000,0.000000,-1,-0.108075,-0.362891,-0.298029,-0.021335,-0.009266,0.023767
"2019-04-16 05:08:41.660 +0000",1555391321.660255,3.046032,1.497956,0.006495,0.006944,-0.997348,0.072444,0.000000,0.000000,0.000000,-1,-0.152555,-0.247939,-0.151443,-0.062501,-0.000714,-0.006755
"2019-04-16 05:08:41.683 +0000",1555391321.682561,3.010746,1.499858,0.037709,0.009248,-0.997485,0.070272,0.000000,0.000000,0.000000,-1,-0.019011,-0.051862,-0.041478,-0.042359,-0.006971,0.013316
"2019-04-16 05:08:41.705 +0000",1555391321.704837,2.990581,1.499633,0.059271,0.010697,-0.997469,0.070294,0.000000,0.000000,0.000000,-1,-0.008699,0.018478,0.014961,0.045685,-0.072554,0.006122
"2019-04-16 05:08:41.727 +0000",1555391321.727143,3.006211,1.499941,0.042547,0.009555,-0.997491,0.070149,0.000000,0.000000,0.000000,-1,-0.001035,-0.066214,0.062857,0.044018,-0.041282,0.004467
"2019-04-16 05:08:41.749 +0000",1555391321.749432,3.026828,1.499267,0.020986,0.008184,-0.997443,0.070998,0.000000,0.000000,0.000000,-1,0.063022,0.001652,0.059746,-0.000784,-0.010049,-0.006713
"2019-04-16 05:08:41.772 +0000",1555391321.771724,3.029173,1.498112,0.019155,0.008147,-0.997360,0.072162,0.000000,0.000000,0.000000,-1,0.035081,0.022212,-0.028527,0.009050,-0.029877,-0.008152
"2019-04-16 05:08:41.794 +0000",1555391321.794029,3.009914,1.498675,0.038016,0.009461,-0.997400,0.071436,0.000000,0.000000,0.000000,-1,-0.076705,-0.043132,-0.054046,0.000945,0.005121,-0.008295
"2019-04-16 05:08:41.816 +0000",1555391321.816320,2.986631,1.500642,0.060888,0.010819,-0.997540,0.069257,0.000000,0.000000,0.000000,-1,-0.101658,0.014764,-0.031001,-0.021500,-0.018680,0.000918
"2019-04-16 05:08:41.839 +0000",1555391321.838643,2.954070,1.499579,0.094995,0.013265,-0.997465,0.069909,0.000000,0.000000,0.000000,-1,0.136176,0.168069,-0.177403,-0.033498,0.021666,0.005042
"2019-04-16 05:08:41.861 +0000",1555391321.860918,2.898627,1.489163,0.160699,0.019618,-0.996670,0.079149,0.000000,0.000000,0.000000,-1,0.564517,0.605290,-0.409360,-0.026668,0.061413,-0.014207
"2019-04-16 05:08:41.883 +0000",1555391321.883219,2.894973,1.481188,0.175223,0.021847,-0.995988,0.086781,0.000000,0.000000,0.000000,-1,0.067823,0.298954,-0.043375,-0.014416,-0.012633,-0.015324
"2019-04-16 05:08:41.906 +0000",1555391321.905504,2.947062,1.483218,0.127417,0.016908,-0.996167,0.085817,0.000000,0.000000,0.000000,-1,0.026261,0.204081,0.240300,-0.035722,0.127790,-0.074739
"2019-04-16 05:08:41.928 +0000",1555391321.927807,3.079464,1.483190,0.000093,0.005432,-0.996165,0.087325,0.000000,0.000000,0.000000,-1,0.089455,0.282071,0.639037,0.180832,-0.021169,-0.010742
"2019-04-16 05:08:41.950 +0000",1555391321.950113,-2.994407,1.477913,-0.199438,-0.013602,-0.995690,0.091747,0.000000,0.000000,0.000000,-1,0.224926,0.602950,0.893039,0.060935,-0.256935,0.043767
"2019-04-16 05:08:41.972 +0000",1555391321.972412,-2.743089,1.469703,-0.441901,-0.039162,-0.994894,0.093014,0.000000,0.000000,0.000000,-1,-0.057602,0.297624,1.178471,0.208519,-0.021783,-0.021206
"2019-04-16 05:08:41.995 +0000",1555391321.994694,-2.508901,1.460260,-0.675116,-0.065229,-0.993897,0.088959,0.000000,0.000000,0.000000,-1,-0.208192,0.029496,1.206838,0.172025,0.008607,0.003661
"2019-04-16 05:08:42.017 +0000",1555391322.017002,-2.311572,1.444426,-0.872952,-0.093006,-0.992026,0.085055,0.000000,0.000000,0.000000,-1,-0.172533,0.148038,1.318690,0.149463,-0.002649,0.023008
"2019-04-16 05:08:42.039 +0000",1555391322.039313,-2.144867,1.423171,-1.043674,-0.123510,-0.989123,0.079877,0.000000,0.000000,0.000000,-1,-0.299169,-0.260111,1.400413,0.110967,-0.023740,0.031588
"2019-04-16 05:08:42.062 +0000",1555391322.061612,-2.021264,1.396460,-1.174156,-0.156151,-0.984842,0.075519,0.000000,0.000000,0.000000,-1,-0.192811,-0.126356,1.621328,0.124565,-0.045767,0.025189
"2019-04-16 05:08:42.084 +0000",1555391322.083888,-1.916764,1.365161,-1.284172,-0.192091,-0.978931,0.069242,0.000000,0.000000,0.000000,-1,-0.414759,-0.287427,1.666081,0.119673,-0.013256,0.011340
"2019-04-16 05:08:42.106 +0000",1555391322.106196,-1.834668,1.336309,-1.383317,-0.224302,-0.972634,0.060600,0.000000,0.000000,0.000000,-1,-0.604231,-0.953771,1.442373,0.119688,-0.108452,0.012718
"2019-04-16 05:08:42.129 +0000",1555391322.128502,-1.786139,1.311973,-1.461328,-0.250031,-0.966692,0.054690,0.000000,0.000000,0.000000,-1,-0.478610,-1.142821,1.212124,0.032182,-0.090941,0.032147
"2019-04-16 05:08:42.151 +0000",1555391322.150777,-1.769116,1.288443,-1.494308,-0.273156,-0.960402,0.054894,0.000000,0.000000,0.000000,-1,0.051319,-0.446176,0.933248,-0.024665,-0.078950,0.012825
"2019-04-16 05:08:42.173 +0000",1555391322.173082,-1.776336,1.269325,-1.491275,-0.290675,-0.954901,0.060601,0.000000,0.000000,0.000000,-1,0.156347,-0.210414,0.810868,-0.086598,-0.044962,0.005653
"2019-04-16 05:08:42.195 +0000",1555391322.195389,-1.776521,1.257316,-1.506486,-0.301869,-0.951266,0.062993,0.000000,0.000000,0.000000,-1,-0.161885,-0.853068,0.394652,-0.016979,-0.125348,-0.008458
"2019-04-16 05:08:42.218 +0000",1555391322.217665,-1.773505,1.253413,-1.525318,-0.305691,-0.950055,0.062829,0.000000,0.000000,0.000000,-1,-0.202727,-0.556245,0.172424,-0.004535,-0.076983,-0.025857
"2019-04-16 05:08:42.240 +0000",1555391322.239971,-1.786183,1.249694,-1.523857,-0.308320,-0.948888,0.067455,0.000000,0.000000,0.000000,-1,0.237420,-0.436934,0.120691,-0.105391,0.005483,0.016866
"2019-04-16 05:08:42.262 +0000",1555391322.262264,-1.829243,1.251244,-1.481686,-0.303708,-0.949376,0.080288,0.000000,0.000000,0.000000,-1,0.716032,-0.005705,-0.394034,-0.032596,-0.093684,-0.024609
"2019-04-16 05:08:42.285 +0000",1555391322.284553,-1.894506,1.258140,-1.417057,-0.291612,-0.951520,0.097839,0.000000,0.000000,0.000000,-1,0.688390,-0.256508,-0.670942,-0.014693,-0.124591,-0.043976
"2019-04-16 05:08:42.307 +0000",1555391322.306859,-1.943321,1.275212,-1.373030,-0.271319,-0.956632,0.106023,0.000000,0.000000,0.000000,-1,0.071141,-0.292482,-0.999630,-0.143140,-0.282015,-0.045599
"2019-04-16 05:08:42.329 +0000",1555391322.329165,-1.960918,1.295260,-1.361049,-0.251621,-0.962279,0.103466,0.000000,0.000000,0.000000,-1,-0.261451,-0.233836,-0.748463,-0.208568,-0.116410,-0.098400
"2019-04-16 05:08:42.351 +0000",1555391322.351471,-1.978637,1.312617,-1.347063,-0.234379,-0.966856,0.101267,0.000000,0.000000,0.000000,-1,-0.018842,-0.127474,-0.946550,-0.215724,-0.198640,0.086538
"2019-04-16 05:08:42.374 +0000",1555391322.373748,-2.029448,1.329396,-1.294486,-0.214355,-0.971004,0.105842,0.000000,0.000000,0.000000,-1,0.326748,-0.023452,-0.805903,-0.106186,0.075710,0.094033
"2019-04-16 05:08:42.396 +0000",1555391322.396054,-2.094170,1.340668,-1.229837,-0.197569,-0.973637,0.114007,0.000000,0.000000,0.000000,-1,0.330282,0.005838,-0.866948,0.045347,0.185063,-0.001001
