timestamp,timeIntervalSince1970,attitude.roll,attitude.pitch,attitude.yaw,gravity.x,gravity.y,gravity.z,magneticField.x,magneticField.y,magneticField.z,magneticField.accuracy,rotationRate.x,rotationRate.y,rotationRate.z,userAcceleration.x,userAcceleration.y,userAcceleration.z
"2019-11-26 16:54:13.547 +0000",1574787253.547104,-0.184923,0.377607,0.035432,-0.170917,-0.368697,-0.913701,0.000000,0.000000,0.000000,-1,-0.127336,-0.047938,0.013148,-0.016431,-0.003664,0.139409
"2019-11-26 16:54:13.567 +0000",1574787253.567246,-0.181134,0.369076,0.035093,-0.168014,-0.360754,-0.917403,0.000000,0.000000,0.000000,-1,-0.218087,0.259097,0.022745,-0.044877,0.003378,0.060393
"2019-11-26 16:54:13.587 +0000",1574787253.587388,-0.179383,0.362708,0.035675,-0.166815,-0.354808,-0.919937,0.000000,0.000000,0.000000,-1,-0.173324,0.106660,0.040142,-0.017801,0.007731,-0.045624
"2019-11-26 16:54:13.608 +0000",1574787253.607530,-0.180471,0.367089,0.035911,-0.167535,-0.358900,-0.918217,0.000000,0.000000,0.000000,-1,0.075797,-0.169160,0.047383,-0.053993,-0.016024,-0.142787
"2019-11-26 16:54:13.628 +0000",1574787253.627671,-0.191931,0.381392,0.042185,-0.177049,-0.372212,-0.911105,0.000000,0.000000,0.000000,-1,0.142546,-0.180779,0.198257,0.018785,-0.009929,-0.074522
"2019-11-26 16:54:13.648 +0000",1574787253.647813,-0.204978,0.378416,0.049633,-0.189145,-0.369449,-0.909797,0.000000,0.000000,0.000000,-1,-0.238618,-0.124053,0.221567,-0.029086,-0.003262,0.070167
"2019-11-26 16:54:13.668 +0000",1574787253.667954,-0.203446,0.369259,0.049019,-0.188427,-0.360924,-0.913361,0.000000,0.000000,0.000000,-1,-0.269195,0.079324,-0.079605,-0.202259,-0.025932,-0.019058
"2019-11-26 16:54:13.688 +0000",1574787253.688096,-0.199829,0.363090,0.044221,-0.185560,-0.355165,-0.916202,0.000000,0.000000,0.000000,-1,-0.080761,0.084001,-0.204792,-0.129915,-0.014922,-0.026059
"2019-11-26 16:54:13.708 +0000",1574787253.708237,-0.197986,0.361299,0.040283,-0.183996,-0.353490,-0.917164,0.000000,0.000000,0.000000,-1,-0.003335,-0.154009,-0.118959,-0.048105,-0.047526,0.009617
"2019-11-26 16:54:13.728 +0000",1574787253.728380,-0.205894,0.363630,0.040219,-0.191074,-0.355669,-0.914872,0.000000,0.000000,0.000000,-1,-0.076354,-0.359466,0.013878,-0.046917,-0.037214,0.016511
"2019-11-26 16:54:13.749 +0000",1574787253.748522,-0.223137,0.362951,0.044089,-0.206874,-0.355035,-0.911676,0.000000,0.000000,0.000000,-1,-0.084479,-0.444866,0.071171,-0.053350,-0.015602,-0.020224
"2019-11-26 16:54:13.769 +0000",1574787253.768663,-0.239980,0.361250,0.047440,-0.222342,-0.353444,-0.908648,0.000000,0.000000,0.000000,-1,-0.043303,-0.368669,0.010362,-0.056055,-0.001338,-0.024244
"2019-11-26 16:54:13.789 +0000",1574787253.788805,-0.245304,0.362909,0.046770,-0.227033,-0.354996,-0.906881,0.000000,0.000000,0.000000,-1,-0.082787,-0.162621,-0.052876,-0.005450,0.010848,0.007773
"2019-11-26 16:54:13.809 +0000",1574787253.808948,-0.248683,0.364423,0.046360,-0.229964,-0.356411,-0.905587,0.000000,0.000000,0.000000,-1,-0.111589,-0.156602,0.023412,0.075255,0.024653,-0.012839
"2019-11-26 16:54:13.829 +0000",1574787253.829089,-0.255292,0.364059,0.049160,-0.235977,-0.356070,-0.904173,0.000000,0.000000,0.000000,-1,0.013926,-0.241211,0.144635,0.130737,0.022101,-0.040468
"2019-11-26 16:54:13.849 +0000",1574787253.849232,-0.267347,0.363542,0.054952,-0.246908,-0.355587,-0.901440,0.000000,0.000000,0.000000,-1,0.110570,-0.461071,0.237261,0.126577,0.029003,-0.021259
"2019-11-26 16:54:13.869 +0000",1574787253.869372,-0.277924,0.362241,0.061475,-0.256555,-0.354370,-0.899222,0.000000,0.000000,0.000000,-1,0.050978,-0.372558,0.326303,0.118325,0.013229,0.043311
"2019-11-26 16:54:13.890 +0000",1574787253.889514,-0.275367,0.356794,0.066222,-0.254777,-0.349272,-0.901719,0.000000,0.000000,0.000000,-1,-0.190732,-0.006097,0.397792,0.077789,0.004560,0.064485
"2019-11-26 16:54:13.910 +0000",1574787253.909657,-0.267004,0.349327,0.069649,-0.247908,-0.342265,-0.906309,0.000000,0.000000,0.000000,-1,-0.241800,0.067899,0.383434,0.060072,0.013636,0.013289
"2019-11-26 16:54:13.930 +0000",1574787253.929798,-0.263871,0.344099,0.074378,-0.245530,-0.337348,-0.908797,0.000000,0.000000,0.000000,-1,-0.110819,-0.124283,0.388269,0.078156,0.021674,0.001769
"2019-11-26 16:54:13.950 +0000",1574787253.949939,-0.268584,0.341739,0.081708,-0.250021,-0.335126,-0.908394,0.000000,0.000000,0.000000,-1,-0.036767,-0.386288,0.469590,0.088369,-0.002033,0.019890
"2019-11-26 16:54:13.970 +0000",1574787253.970082,-0.280393,0.340293,0.091886,-0.260865,-0.333763,-0.905843,0.000000,0.000000,0.000000,-1,0.003958,-0.582990,0.559050,0.041474,-0.010216,-0.003764
"2019-11-26 16:54:13.990 +0000",1574787253.990223,-0.294729,0.340065,0.103471,-0.273845,-0.333548,-0.902083,0.000000,0.000000,0.000000,-1,0.175889,-0.668824,0.585924,0.011012,-0.007151,-0.057267
"2019-11-26 16:54:14.010 +0000",1574787254.010366,-0.307605,0.340511,0.115799,-0.285393,-0.333969,-0.898341,0.000000,0.000000,0.000000,-1,0.238643,-0.637324,0.615542,0.007087,-0.007310,-0.022283
"2019-11-26 16:54:14.031 +0000",1574787254.030507,-0.316669,0.339455,0.127308,-0.293633,-0.332973,-0.896052,0.000000,0.000000,0.000000,-1,0.073830,-0.487755,0.634748,0.006828,-0.023915,0.020594
"2019-11-26 16:54:14.051 +0000",1574787254.050648,-0.325254,0.335683,0.139275,-0.301714,-0.329414,-0.894681,0.000000,0.000000,0.000000,-1,-0.044815,-0.411827,0.683717,0.032701,-0.018563,-0.019976
"2019-11-26 16:54:14.071 +0000",1574787254.070791,-0.339347,0.330747,0.154297,-0.314830,-0.324749,-0.891863,0.000000,0.000000,0.000000,-1,0.041419,-0.621140,0.812265,0.075892,-0.008534,-0.047330
"2019-11-26 16:54:14.091 +0000",1574787254.090933,-0.359030,0.325606,0.172624,-0.332905,-0.319883,-0.887045,0.000000,0.000000,0.000000,-1,0.059003,-0.790942,0.959428,0.070850,-0.000857,-0.031747
"2019-11-26 16:54:14.111 +0000",1574787254.111074,-0.384090,0.323084,0.194202,-0.355328,-0.317493,-0.879170,0.000000,0.000000,0.000000,-1,0.287011,-1.017979,1.039975,0.050197,0.037097,-0.059215
"2019-11-26 16:54:14.131 +0000",1574787254.131216,-0.416059,0.325138,0.220117,-0.382984,-0.319440,-0.866765,0.000000,0.000000,0.000000,-1,0.637435,-1.265150,1.116482,0.065799,0.057232,-0.008677
"2019-11-26 16:54:14.151 +0000",1574787254.151357,-0.448767,0.326562,0.246447,-0.410926,-0.320789,-0.853366,0.000000,0.000000,0.000000,-1,0.527034,-1.162369,1.079005,0.042593,0.052615,0.072910
"2019-11-26 16:54:14.172 +0000",1574787254.171500,-0.478913,0.322398,0.270159,-0.437073,-0.316842,-0.841771,0.000000,0.000000,0.000000,-1,0.258012,-1.125212,1.110150,0.105331,0.031273,0.027303
"2019-11-26 16:54:14.192 +0000",1574787254.191643,-0.514158,0.316148,0.298309,-0.467428,-0.310907,-0.827555,0.000000,0.000000,0.000000,-1,0.421754,-1.389559,1.397695,0.211477,0.045938,-0.051336
"2019-11-26 16:54:14.212 +0000",1574787254.211783,-0.560508,0.310952,0.337642,-0.506122,-0.305965,-0.806366,0.000000,0.000000,0.000000,-1,0.830874,-1.793086,1.845073,0.281618,0.062984,0.021500
"2019-11-26 16:54:14.232 +0000",1574787254.231925,-0.610757,0.299599,0.382371,-0.547942,-0.295137,-0.782722,0.000000,0.000000,0.000000,-1,0.612276,-1.775620,2.130617,0.127790,0.082780,0.122154
"2019-11-26 16:54:14.252 +0000",1574787254.252067,-0.650933,0.281275,0.423054,-0.582117,-0.277581,-0.764257,0.000000,0.000000,0.000000,-1,0.366848,-1.303282,2.080860,0.069894,0.086983,0.033346
"2019-11-26 16:54:14.272 +0000",1574787254.272209,-0.690827,0.262517,0.463337,-0.615345,-0.259513,-0.744314,0.000000,0.000000,0.000000,-1,0.522919,-1.543395,2.110208,0.225330,0.092612,-0.106699
"2019-11-26 16:54:14.292 +0000",1574787254.292352,-0.742888,0.244047,0.512556,-0.656374,-0.241632,-0.714693,0.000000,0.000000,0.000000,-1,0.987938,-2.121710,2.495775,0.375963,0.111917,-0.075330
"2019-11-26 16:54:14.312 +0000",1574787254.312492,-0.801695,0.218269,0.573379,-0.701488,-0.216540,-0.678989,0.000000,0.000000,0.000000,-1,1.148720,-2.226056,3.197482,0.466822,0.177996,0.081791
"2019-11-26 16:54:14.333 +0000",1574787254.332635,-0.857796,0.176945,0.640127,-0.744592,-0.176023,-0.643893,0.000000,0.000000,0.000000,-1,0.969029,-2.083306,3.853567,0.409661,0.200071,0.087116
"2019-11-26 16:54:14.353 +0000",1574787254.352776,-0.907383,0.122465,0.704408,-0.781994,-0.122159,-0.611198,0.000000,0.000000,0.000000,-1,0.611284,-1.929839,4.157125,0.224269,0.218548,0.087578
"2019-11-26 16:54:14.373 +0000",1574787254.372918,-0.944152,0.061865,0.758580,-0.808450,-0.061825,-0.585308,0.000000,0.000000,0.000000,-1,0.260021,-1.435919,3.925542,-0.039359,0.218899,0.041714
"2019-11-26 16:54:14.393 +0000",1574787254.393059,-0.970435,0.008980,0.805860,-0.825098,-0.008980,-0.564918,0.000000,0.000000,0.000000,-1,0.503290,-1.195862,3.355713,-0.085730,0.193245,-0.090630
"2019-11-26 16:54:14.413 +0000",1574787254.413201,-0.997525,-0.033156,0.856950,-0.839669,0.033149,-0.542085,0.000000,0.000000,0.000000,-1,1.100140,-1.467614,3.102420,0.056740,0.151634,-0.103498
"2019-11-26 16:54:14.433 +0000",1574787254.433343,-1.027744,-0.073219,0.912003,-0.853841,0.073154,-0.515367,0.000000,0.000000,0.000000,-1,1.259382,-1.687439,3.144032,0.073979,0.131543,0.029223
"2019-11-26 16:54:14.453 +0000",1574787254.453485,-1.055674,-0.117522,0.962722,-0.864230,0.117252,-0.489243,0.000000,0.000000,0.000000,-1,0.975505,-1.580469,3.162753,-0.121229,0.137219,0.054688
"2019-11-26 16:54:14.474 +0000",1574787254.473627,-1.076265,-0.162007,1.007760,-0.868665,0.161299,-0.468405,0.000000,0.000000,0.000000,-1,0.871044,-1.243149,2.949528,-0.284518,0.151674,-0.060083
"2019-11-26 16:54:14.494 +0000",1574787254.493769,-1.093661,-0.194830,1.053322,-0.871508,0.193600,-0.450547,0.000000,0.000000,0.000000,-1,1.334857,-1.334772,2.304507,-0.256575,0.134083,-0.153227
"2019-11-26 16:54:14.514 +0000",1574787254.513911,-1.122584,-0.214117,1.103173,-0.880643,0.212485,-0.423459,0.000000,0.000000,0.000000,-1,1.870949,-2.137118,1.864830,-0.065585,0.070887,-0.110766
"2019-11-26 16:54:14.534 +0000",1574787254.534053,-1.154081,-0.234162,1.155324,-0.889468,0.232028,-0.393713,0.000000,0.000000,0.000000,-1,1.813219,-2.047391,2.010773,0.026781,0.134381,0.080222
"2019-11-26 16:54:14.554 +0000",1574787254.554195,-1.169242,-0.262431,1.198879,-0.888941,0.259429,-0.377467,0.000000,0.000000,0.000000,-1,1.218268,-0.983162,2.145399,-0.037665,0.126359,0.124157
"2019-11-26 16:54:14.574 +0000",1574787254.574336,-1.165287,-0.293449,1.234353,-0.879620,0.289255,-0.377623,0.000000,0.000000,0.000000,-1,0.889163,-0.069379,2.056668,-0.097049,0.114065,0.017654
"2019-11-26 16:54:14.594 +0000",1574787254.594478,-1.150714,-0.324276,1.271880,-0.865468,0.318623,-0.386580,0.000000,0.000000,0.000000,-1,1.090314,0.170551,2.108452,-0.141338,0.122936,-0.068223
"2019-11-26 16:54:14.615 +0000",1574787254.614620,-1.138956,-0.347535,1.313609,-0.853901,0.340581,-0.393521,0.000000,0.000000,0.000000,-1,1.338061,-0.210354,1.769037,-0.197034,0.097728,0.016415
"2019-11-26 16:54:14.635 +0000",1574787254.634763,-1.138380,-0.365714,1.348984,-0.847911,0.357616,-0.391353,0.000000,0.000000,0.000000,-1,1.032356,-0.738502,1.414086,-0.180012,0.098195,-0.000203
"2019-11-26 16:54:14.655 +0000",1574787254.654903,-1.149442,-0.381322,1.382538,-0.846991,0.372148,-0.379620,0.000000,0.000000,0.000000,-1,1.154111,-1.286267,1.365406,0.010626,0.139602,-0.152454
"2019-11-26 16:54:14.675 +0000",1574787254.675046,-1.158897,-0.399891,1.423900,-0.844065,0.389318,-0.368764,0.000000,0.000000,0.000000,-1,1.399235,-1.143416,1.706620,0.023477,0.152476,-0.093226
"2019-11-26 16:54:14.695 +0000",1574787254.695188,-1.156338,-0.419608,1.464282,-0.835928,0.407402,-0.367760,0.000000,0.000000,0.000000,-1,1.247979,-0.520933,1.557519,-0.238428,0.091301,-0.019035
"2019-11-26 16:54:14.715 +0000",1574787254.715329,-1.148293,-0.430602,1.498037,-0.828807,0.417418,-0.372613,0.000000,0.000000,0.000000,-1,1.164223,-0.251092,0.968001,-0.265447,0.030641,-0.015005
"2019-11-26 16:54:14.735 +0000",1574787254.735472,-1.142214,-0.434295,1.528486,-0.825119,0.420771,-0.377002,0.000000,0.000000,0.000000,-1,1.174973,-0.385037,0.691666,-0.060593,0.098547,-0.038327
"2019-11-26 16:54:14.756 +0000",1574787254.755613,-1.144643,-0.439290,1.559576,-0.824108,0.425297,-0.374123,0.000000,0.000000,0.000000,-1,1.177823,-0.925632,0.865818,0.055889,0.141826,-0.146903
"2019-11-26 16:54:14.776 +0000",1574787254.775754,-1.152011,-0.447503,1.599896,-0.823623,0.432716,-0.366609,0.000000,0.000000,0.000000,-1,1.605654,-1.303208,1.189316,0.039825,0.131692,-0.229567
"2019-11-26 16:54:14.796 +0000",1574787254.795896,-1.158306,-0.454192,1.648572,-0.823245,0.438736,-0.360248,0.000000,0.000000,0.000000,-1,1.912614,-1.350868,1.155079,-0.098646,0.037475,-0.120251
"2019-11-26 16:54:14.816 +0000",1574787254.816039,-1.155468,-0.454917,1.693847,-0.821928,0.439388,-0.362454,0.000000,0.000000,0.000000,-1,1.774334,-0.622265,0.721599,-0.203890,0.004383,0.080487
"2019-11-26 16:54:14.836 +0000",1574787254.836179,-1.143519,-0.449937,1.728882,-0.819519,0.434909,-0.373152,0.000000,0.000000,0.000000,-1,1.451620,-0.066278,0.323799,-0.077606,0.006696,0.118956
"2019-11-26 16:54:14.856 +0000",1574787254.856322,-1.137216,-0.445614,1.760247,-0.818850,0.431012,-0.379095,0.000000,0.000000,0.000000,-1,1.361690,-0.502458,0.452813,0.121462,-0.005170,0.038428
"2019-11-26 16:54:14.876 +0000",1574787254.876464,-1.140671,-0.448499,1.794561,-0.819021,0.433613,-0.375745,0.000000,0.000000,0.000000,-1,1.331087,-0.994783,0.889053,0.161810,0.022457,0.022855
"2019-11-26 16:54:14.897 +0000",1574787254.896606,-1.149358,-0.459792,1.830096,-0.817734,0.443762,-0.366589,0.000000,0.000000,0.000000,-1,1.140892,-1.331889,1.236956,0.110596,-0.040090,0.048138
"2019-11-26 16:54:14.917 +0000",1574787254.916747,-1.169547,-0.475257,1.864155,-0.818552,0.457567,-0.347284,0.000000,0.000000,0.000000,-1,1.068957,-1.889675,1.334850,0.103311,-0.048082,0.034830
"2019-11-26 16:54:14.937 +0000",1574787254.936889,-1.185216,-0.492946,1.896163,-0.816264,0.473223,-0.331320,0.000000,0.000000,0.000000,-1,0.918284,-1.308341,1.346664,0.055491,-0.049395,0.096655
"2019-11-26 16:54:14.957 +0000",1574787254.957031,-1.194186,-0.509068,1.920180,-0.812003,0.487363,-0.321137,0.000000,0.000000,0.000000,-1,0.581660,-1.003748,1.023550,-0.068765,-0.076276,0.131271
"2019-11-26 16:54:14.977 +0000",1574787254.977174,-1.217029,-0.523187,1.932659,-0.812589,0.499643,-0.300092,0.000000,0.000000,0.000000,-1,0.170410,-1.575512,0.825698,0.049070,0.008642,0.117658
"2019-11-26 16:54:14.997 +0000",1574787254.997316,-1.244310,-0.541800,1.943171,-0.811523,0.515679,-0.274784,0.000000,0.000000,0.000000,-1,0.078358,-1.641850,1.099210,0.043198,0.135948,0.071476
"2019-11-26 16:54:15.017 +0000",1574787255.017456,-1.274551,-0.564326,1.947827,-0.808143,0.534847,-0.246667,0.000000,0.000000,0.000000,-1,-0.213822,-1.558820,1.117860,-0.161660,0.112003,0.121132
"2019-11-26 16:54:15.038 +0000",1574787255.037598,-1.295007,-0.587767,1.946869,-0.800733,0.554504,-0.226608,0.000000,0.000000,0.000000,-1,-0.421641,-0.771842,1.100310,-0.121461,0.078384,0.139418
"2019-11-26 16:54:15.058 +0000",1574787255.057741,-1.308237,-0.615608,1.940261,-0.788443,0.577455,-0.211905,0.000000,0.000000,0.000000,-1,-0.709556,-0.473450,1.352834,0.131004,0.030302,0.000585
"2019-11-26 16:54:15.078 +0000",1574787255.077882,-1.331286,-0.651558,1.936735,-0.772442,0.606426,-0.188629,0.000000,0.000000,0.000000,-1,-0.513851,-1.293697,1.791952,0.238142,-0.017666,-0.161302
"2019-11-26 16:54:15.098 +0000",1574787255.098023,-1.370246,-0.690632,1.936368,-0.755394,0.637025,-0.153559,0.000000,0.000000,0.000000,-1,-0.409787,-2.082955,1.916431,0.202309,-0.079896,-0.029471
"2019-11-26 16:54:15.118 +0000",1574787255.118166,-1.428392,-0.736775,1.930465,-0.733142,0.671903,-0.105114,0.000000,0.000000,0.000000,-1,-0.709410,-2.843369,2.343184,0.378544,-0.140196,0.002681
"2019-11-26 16:54:15.138 +0000",1574787255.138307,-1.492009,-0.787124,1.907174,-0.703696,0.708326,-0.055557,0.000000,0.000000,0.000000,-1,-1.210711,-2.034527,2.262066,-0.324532,-0.230773,0.108687
"2019-11-26 16:54:15.158 +0000",1574787255.158450,-1.516022,-0.821775,1.880498,-0.679901,0.732356,-0.037278,0.000000,0.000000,0.000000,-1,-0.996011,0.320937,1.578937,-0.637084,-0.083126,-0.197709
"2019-11-26 16:54:15.179 +0000",1574787255.178591,-1.526218,-0.857166,1.845298,-0.653932,0.755991,-0.029171,0.000000,0.000000,0.000000,-1,-1.325469,0.751108,1.744083,0.150836,0.034871,0.177149
"2019-11-26 16:54:15.199 +0000",1574787255.198733,-1.554848,-0.893750,1.818934,-0.626414,0.779427,-0.009991,0.000000,0.000000,0.000000,-1,-0.696438,-0.781596,1.782064,0.006313,-0.012018,-0.148122
"2019-11-26 16:54:15.219 +0000",1574787255.218875,-1.592692,-0.926274,1.805162,-0.600673,0.799387,0.013154,0.000000,0.000000,0.000000,-1,-0.353979,-1.395430,1.520422,-0.016788,-0.211024,-0.148410
"2019-11-26 16:54:15.239 +0000",1574787255.239017,-1.634667,-0.955412,1.782232,-0.576095,0.816552,0.036845,0.000000,0.000000,0.000000,-1,-0.699680,-0.959377,1.461562,0.034043,-0.075708,0.006793
"2019-11-26 16:54:15.259 +0000",1574787255.259159,-1.672251,-0.980012,1.745172,-0.554148,0.830504,0.056415,0.000000,0.000000,0.000000,-1,-0.959834,-0.242490,1.239951,0.046428,0.027130,-0.059773
"2019-11-26 16:54:15.279 +0000",1574787255.279300,-1.711270,-1.000780,1.725601,-0.534331,0.841892,0.075557,0.000000,0.000000,0.000000,-1,-0.605115,-1.067284,1.029549,0.141571,-0.153020,0.259967
"2019-11-26 16:54:15.299 +0000",1574787255.299442,-1.763050,-1.016970,1.689695,-0.516255,0.850518,0.100493,0.000000,0.000000,0.000000,-1,-0.864636,-1.016012,0.942963,0.048498,-0.126735,0.048324
"2019-11-26 16:54:15.320 +0000",1574787255.319584,-1.818700,-1.033998,1.643149,-0.495754,0.859351,0.125480,0.000000,0.000000,0.000000,-1,-1.027693,-0.704476,1.131501,0.065731,-0.136375,0.127280
"2019-11-26 16:54:15.340 +0000",1574787255.339726,-1.861851,-1.051304,1.599780,-0.475561,0.868071,0.142460,0.000000,0.000000,0.000000,-1,-0.734886,-0.111163,1.099440,-0.044641,-0.132446,0.108042
"2019-11-26 16:54:15.360 +0000",1574787255.359867,-1.895748,-1.063702,1.558636,-0.460224,0.874159,0.155046,0.000000,0.000000,0.000000,-1,-0.786738,0.169318,0.836348,0.042561,-0.118942,0.009273
"2019-11-26 16:54:15.380 +0000",1574787255.380009,-1.924240,-1.076007,1.520682,-0.445495,0.880069,0.164359,0.000000,0.000000,0.000000,-1,-0.604581,0.248006,0.903387,0.111313,-0.094349,0.004462
"2019-11-26 16:54:15.400 +0000",1574787255.400151,-1.951566,-1.095072,1.484662,-0.425182,0.888961,0.170203,0.000000,0.000000,0.000000,-1,-0.368543,0.256772,1.287521,0.080212,-0.092774,-0.024117
"2019-11-26 16:54:15.420 +0000",1574787255.420293,-1.966854,-1.120737,1.460509,-0.401344,0.900421,0.167824,0.000000,0.000000,0.000000,-1,0.103230,0.314345,1.429443,-0.024986,-0.113924,-0.011026
"2019-11-26 16:54:15.440 +0000",1574787255.440434,-1.972063,-1.153986,1.440086,-0.372688,0.914385,0.158127,0.000000,0.000000,0.000000,-1,0.283150,0.701455,1.720319,0.163506,-0.249057,-0.015856
"2019-11-26 16:54:15.461 +0000",1574787255.460576,-1.978543,-1.187794,1.419769,-0.343070,0.927547,0.148191,0.000000,0.000000,0.000000,-1,0.282377,0.511509,1.702972,0.058876,-0.149792,-0.036803
"2019-11-26 16:54:15.481 +0000",1574787255.480718,-2.003630,-1.222539,1.384802,-0.309790,0.939969,0.143140,0.000000,0.000000,0.000000,-1,0.104304,0.341834,1.930311,0.143530,-0.044569,-0.048980
"2019-11-26 16:54:15.501 +0000",1574787255.500860,-2.041098,-1.251551,1.341130,-0.279777,0.949472,0.142223,0.000000,0.000000,0.000000,-1,-0.070133,0.114247,1.470695,0.054985,0.261479,-0.107802
"2019-11-26 16:54:15.521 +0000",1574787255.521002,-2.084419,-1.270009,1.282519,-0.258045,0.955103,0.145570,0.000000,0.000000,0.000000,-1,-0.569957,0.920443,1.072765,-0.077037,0.709629,0.083295
"2019-11-26 16:54:15.541 +0000",1574787255.541143,-2.128244,-1.272486,1.216645,-0.249411,0.955835,0.155483,0.000000,0.000000,0.000000,-1,-0.739648,0.822848,0.479590,-0.221536,0.852575,-0.107694
"2019-11-26 16:54:15.561 +0000",1574787255.561294,-2.148897,-1.273085,1.194545,-0.245668,0.956010,0.160288,0.000000,0.000000,0.000000,-1,-0.134957,-0.100453,0.104452,-0.108702,0.302808,-0.142910
"2019-11-26 16:54:15.581 +0000",1574787255.581436,-2.171586,-1.269637,1.176166,-0.244686,0.954993,0.167682,0.000000,0.000000,0.000000,-1,-0.365092,-0.299417,-0.060116,-0.072376,0.063926,-0.031225
"2019-11-26 16:54:15.602 +0000",1574787255.601577,-2.192206,-1.268787,1.160489,-0.241836,0.954741,0.173164,0.000000,0.000000,0.000000,-1,-0.182253,-0.245526,0.212407,-0.000854,-0.179001,-0.057718
"2019-11-26 16:54:15.622 +0000",1574787255.621719,-2.238013,-1.268682,1.116922,-0.233732,0.954709,0.184118,0.000000,0.000000,0.000000,-1,-0.669463,-0.185576,0.430092,0.010298,-0.071426,0.040321
"2019-11-26 16:54:15.642 +0000",1574787255.641861,-2.266419,-1.267964,1.091248,-0.228934,0.954496,0.191122,0.000000,0.000000,0.000000,-1,-0.193482,-0.189997,0.083322,-0.051186,0.198838,-0.121681
"2019-11-26 16:54:15.662 +0000",1574787255.662003,-2.266083,-1.268147,1.094789,-0.228864,0.954550,0.190933,0.000000,0.000000,0.000000,-1,0.059958,-0.143022,-0.045314,0.032743,0.039909,-0.034304
"2019-11-26 16:54:15.682 +0000",1574787255.682144,-2.264369,-1.267500,1.099678,-0.229666,0.954357,0.190935,0.000000,0.000000,0.000000,-1,0.034197,-0.104522,-0.081252,0.029303,0.002642,-0.001072
"2019-11-26 16:54:15.702 +0000",1574787255.702287,-2.259039,-1.267005,1.106668,-0.231046,0.954209,0.190009,0.000000,0.000000,0.000000,-1,0.071830,-0.064093,-0.084912,0.071271,-0.023485,0.009865
"2019-11-26 16:54:15.722 +0000",1574787255.722429,-2.247370,-1.268492,1.117959,-0.232140,0.954653,0.186410,0.000000,0.000000,0.000000,-1,0.034360,0.001573,-0.025842,0.053093,-0.030155,-0.057308
"2019-11-26 16:54:15.743 +0000",1574787255.742570,-2.248714,-1.271122,1.121342,-0.229934,0.955433,0.185148,0.000000,0.000000,0.000000,-1,0.036987,-0.327737,0.050914,0.037582,-0.031529,-0.098281
"2019-11-26 16:54:15.763 +0000",1574787255.762713,-2.262143,-1.272327,1.114529,-0.226539,0.955788,0.187484,0.000000,0.000000,0.000000,-1,-0.088787,-0.381859,0.026044,0.035973,0.011664,-0.055604
"2019-11-26 16:54:15.783 +0000",1574787255.782854,-2.274556,-1.273627,1.101376,-0.223247,0.956169,0.189478,0.000000,0.000000,0.000000,-1,-0.064024,0.018506,0.088031,0.028133,0.001899,-0.027126
"2019-11-26 16:54:15.803 +0000",1574787255.802996,-2.293333,-1.278930,1.086876,-0.215843,0.957709,0.190280,0.000000,0.000000,0.000000,-1,0.006966,-0.328524,0.372263,0.050698,-0.173194,-0.035542
"2019-11-26 16:54:15.823 +0000",1574787255.823138,-2.350359,-1.290396,1.036737,-0.196823,0.960945,0.194540,0.000000,0.000000,0.000000,-1,-0.190614,-0.478424,1.047272,0.106110,-0.237176,-0.017081
"2019-11-26 16:54:15.843 +0000",1574787255.843280,-2.424717,-1.307734,0.967290,-0.170854,0.965598,0.196034,0.000000,0.000000,0.000000,-1,0.054445,-0.335055,1.305948,0.076052,-0.104835,-0.044256
"2019-11-26 16:54:15.863 +0000",1574787255.863420,-2.507548,-1.325543,0.883208,-0.143838,0.970076,0.195611,0.000000,0.000000,0.000000,-1,0.056666,0.104429,1.431836,0.085840,-0.189117,0.096258
"2019-11-26 16:54:15.884 +0000",1574787255.883563,-2.600180,-1.345594,0.773714,-0.115080,0.974749,0.191368,0.000000,0.000000,0.000000,-1,0.103160,0.815467,1.664034,0.145002,-0.329532,0.047339
"2019-11-26 16:54:15.904 +0000",1574787255.903704,-2.718682,-1.364804,0.624897,-0.083946,0.978859,0.186518,0.000000,0.000000,0.000000,-1,0.149343,1.537405,1.909028,0.110817,-0.329201,0.110996
"2019-11-26 16:54:15.924 +0000",1574787255.923846,-2.865031,-1.385862,0.439708,-0.050209,0.982948,0.176896,0.000000,0.000000,0.000000,-1,0.435573,1.779327,2.048357,0.118035,-0.202203,-0.040454
"2019-11-26 16:54:15.944 +0000",1574787255.943988,-3.017638,-1.392247,0.277709,-0.021958,0.984102,0.176239,0.000000,0.000000,0.000000,-1,-0.317854,-0.394829,1.241040,-0.081405,0.305355,-0.387697
"2019-11-26 16:54:15.964 +0000",1574787255.964130,3.135407,-1.384811,0.153726,0.001144,0.982754,0.184913,0.000000,0.000000,0.000000,-1,-0.359855,-0.231426,1.155946,-0.060729,0.490999,0.098273
"2019-11-26 16:54:15.984 +0000",1574787255.984272,3.012415,-1.379548,0.031356,0.024487,0.981768,0.188502,0.000000,0.000000,0.000000,-1,-0.142489,-0.100549,1.099389,-0.063747,0.429349,0.020237
"2019-11-26 16:54:16.004 +0000",1574787256.004414,2.939765,-1.375570,-0.042781,0.038887,0.981004,0.190053,0.000000,0.000000,0.000000,-1,-0.049086,0.026692,0.599001,-0.019402,0.266096,0.023554
"2019-11-26 16:54:16.025 +0000",1574787256.024556,2.915647,-1.374884,-0.068979,0.043610,0.980871,0.189714,0.000000,0.000000,0.000000,-1,0.056260,0.118919,0.130831,0.046554,0.094903,0.016019
"2019-11-26 16:54:16.045 +0000",1574787256.044697,2.923184,-1.377521,-0.065985,0.041618,0.981380,0.187512,0.000000,0.000000,0.000000,-1,0.148156,0.230579,-0.096527,-0.057442,0.003863,-0.001295
"2019-11-26 16:54:16.065 +0000",1574787256.064839,2.951334,-1.379727,-0.039659,0.035914,0.981802,0.186483,0.000000,0.000000,0.000000,-1,0.002337,0.056541,-0.334508,-0.036174,-0.098655,-0.046165
"2019-11-26 16:54:16.085 +0000",1574787256.084982,3.023325,-1.382557,0.029356,0.022080,0.982335,0.185824,0.000000,0.000000,0.000000,-1,0.054031,0.268040,-0.733958,-0.069276,0.010965,0.045253
"2019-11-26 16:54:16.105 +0000",1574787256.105122,3.070881,-1.382187,0.072795,0.013247,0.982266,0.187025,0.000000,0.000000,0.000000,-1,-0.120566,0.202447,-0.191758,-0.205676,0.057467,0.040726
"2019-11-26 16:54:16.125 +0000",1574787256.125264,3.067691,-1.375957,0.063274,0.014295,0.981079,0.193081,0.000000,0.000000,0.000000,-1,-0.348857,0.364183,0.072454,-0.118375,0.042922,0.065890
"2019-11-26 16:54:16.145 +0000",1574787256.145406,3.067377,-1.365440,0.055893,0.015120,0.978988,0.203355,0.000000,0.000000,0.000000,-1,-0.555582,0.309986,0.130972,-0.081816,0.075606,-0.013201
"2019-11-26 16:54:16.166 +0000",1574787256.165548,3.062880,-1.354542,0.047201,0.016872,0.976708,0.213908,0.000000,0.000000,0.000000,-1,-0.505699,0.127732,0.203092,-0.048290,0.034659,-0.051434
"2019-11-26 16:54:16.186 +0000",1574787256.185690,3.064556,-1.344876,0.049879,0.017239,0.974588,0.223338,0.000000,0.000000,0.000000,-1,-0.490521,-0.162117,0.273625,-0.055188,-0.057338,-0.034040
"2019-11-26 16:54:16.206 +0000",1574787256.205831,3.071342,-1.333470,0.061089,0.016503,0.971970,0.234526,0.000000,0.000000,0.000000,-1,-0.549782,-0.292192,0.261610,-0.089837,-0.078707,0.110138
"2019-11-26 16:54:16.226 +0000",1574787256.225973,3.069688,-1.326181,0.062736,0.017399,0.970231,0.241557,0.000000,0.000000,0.000000,-1,-0.457340,-0.158799,0.107820,-0.093006,-0.091784,0.038668
"2019-11-26 16:54:16.246 +0000",1574787256.246115,3.074314,-1.323311,0.072124,0.016469,0.969532,0.244412,0.000000,0.000000,0.000000,-1,-0.290372,-0.289570,-0.054636,0.058696,-0.090749,0.086763
"2019-11-26 16:54:16.266 +0000",1574787256.266257,3.084735,-1.321425,0.089819,0.014025,0.969068,0.246397,0.000000,0.000000,0.000000,-1,-0.226414,-0.347143,-0.188808,0.108793,0.039720,0.131074
"2019-11-26 16:54:16.286 +0000",1574787256.286398,3.107032,-1.314543,0.120525,0.008758,0.967346,0.253308,0.000000,0.000000,0.000000,-1,-0.196869,-0.419012,-0.285660,0.122330,0.102842,0.086000
"2019-11-26 16:54:16.307 +0000",1574787256.306540,3.132064,-1.308901,0.155398,0.002467,0.965901,0.258899,0.000000,0.000000,0.000000,-1,-0.156774,-0.465478,-0.344243,0.083043,0.047967,0.095850
"2019-11-26 16:54:16.327 +0000",1574787256.326683,-3.137554,-1.303620,0.179435,-0.001066,0.964520,0.264008,0.000000,0.000000,0.000000,-1,-0.128717,-0.462264,-0.366126,0.062651,-0.074294,0.107892
"2019-11-26 16:54:16.347 +0000",1574787256.346825,-3.131138,-1.299212,0.195705,-0.002805,0.963347,0.268245,0.000000,0.000000,0.000000,-1,-0.005211,-0.389417,-0.346875,0.072186,-0.115571,0.126727
"2019-11-26 16:54:16.367 +0000",1574787256.366966,-3.124344,-1.298876,0.210578,-0.004633,0.963257,0.268543,0.000000,0.000000,0.000000,-1,0.085924,-0.320322,-0.335097,0.098184,-0.128069,0.129770
"2019-11-26 16:54:16.387 +0000",1574787256.387108,-3.113629,-1.299890,0.226781,-0.007482,0.963529,0.267501,0.000000,0.000000,0.000000,-1,0.147822,-0.194843,-0.305347,0.081197,-0.138778,0.140821
"2019-11-26 16:54:16.407 +0000",1574787256.407250,-3.096024,-1.300868,0.248693,-0.012147,0.963790,0.266386,0.000000,0.000000,0.000000,-1,0.220836,-0.146150,-0.368883,0.092943,-0.202394,0.127043
"2019-11-26 16:54:16.427 +0000",1574787256.427392,-3.072154,-1.304668,0.274043,-0.018248,0.964796,0.262365,0.000000,0.000000,0.000000,-1,0.304306,0.045603,-0.362493,0.015471,-0.136842,0.167426
"2019-11-26 16:54:16.448 +0000",1574787256.447533,-3.050666,-1.308664,0.294823,-0.023531,0.965840,0.258071,0.000000,0.000000,0.000000,-1,0.410733,0.107763,-0.353247,0.028658,-0.090720,0.144682
"2019-11-26 16:54:16.468 +0000",1574787256.467675,-3.027394,-1.313530,0.317429,-0.028993,0.967089,0.252780,0.000000,0.000000,0.000000,-1,0.387700,0.091985,-0.342481,0.020906,-0.018499,0.191384
"2019-11-26 16:54:16.488 +0000",1574787256.487817,-3.006403,-1.315398,0.338612,-0.034049,0.967563,0.250327,0.000000,0.000000,0.000000,-1,0.243645,0.049550,-0.360237,0.031944,-0.002615,0.201772
"2019-11-26 16:54:16.508 +0000",1574787256.507959,-2.985339,-1.312828,0.358281,-0.039701,0.966910,0.252009,0.000000,0.000000,0.000000,-1,0.072250,0.177996,-0.331432,-0.024416,0.012243,0.198976
"2019-11-26 16:54:16.528 +0000",1574787256.528101,-2.966507,-1.309410,0.371580,-0.045015,0.966033,0.254470,0.000000,0.000000,0.000000,-1,0.071588,0.367073,-0.268778,-0.042708,0.012663,0.197232
"2019-11-26 16:54:16.548 +0000",1574787256.548241,-2.948695,-1.306298,0.382525,-0.050116,0.965224,0.256577,0.000000,0.000000,0.000000,-1,0.054829,0.399541,-0.225978,-0.057321,-0.035753,0.191219
"2019-11-26 16:54:16.568 +0000",1574787256.568384,-2.942459,-1.302773,0.381532,-0.052388,0.964296,0.259593,0.000000,0.000000,0.000000,-1,0.022708,0.383374,-0.085807,-0.086864,-0.082616,0.144898
"2019-11-26 16:54:16.589 +0000",1574787256.588526,-2.943400,-1.298786,0.374711,-0.052900,0.963233,0.263409,0.000000,0.000000,0.000000,-1,-0.139508,0.267356,0.054228,-0.127871,0.054144,0.155074
"2019-11-26 16:54:16.609 +0000",1574787256.608668,-2.953236,-1.295418,0.363032,-0.050914,0.962322,0.267102,0.000000,0.000000,0.000000,-1,-0.136299,-0.013071,0.144786,-0.064183,0.237457,0.016081
"2019-11-26 16:54:16.629 +0000",1574787256.628809,-2.968859,-1.294391,0.353622,-0.046905,0.962043,0.268839,0.000000,0.000000,0.000000,-1,-0.066523,-0.419459,0.099370,-0.085038,0.272771,-0.035994
"2019-11-26 16:54:16.649 +0000",1574787256.648950,-2.989060,-1.291981,0.344999,-0.041817,0.961382,0.272023,0.000000,0.000000,0.000000,-1,-0.164261,-0.644335,0.103902,-0.076911,-0.013037,-0.002023
"2019-11-26 16:54:16.669 +0000",1574787256.669092,-3.017790,-1.288794,0.330968,-0.034364,0.960500,0.276150,0.000000,0.000000,0.000000,-1,-0.169647,-0.801645,0.190537,-0.012328,-0.175607,-0.089876
"2019-11-26 16:54:16.689 +0000",1574787256.689235,-3.056548,-1.290553,0.312096,-0.023494,0.960988,0.275590,0.000000,0.000000,0.000000,-1,0.134420,-1.110211,0.304260,0.057445,-0.206643,-0.182837
"2019-11-26 16:54:16.709 +0000",1574787256.709375,-3.102995,-1.296348,0.288664,-0.010458,0.962575,0.270814,0.000000,0.000000,0.000000,-1,0.305131,-1.211912,0.338213,0.009405,-0.055367,-0.240760
"2019-11-26 16:54:16.730 +0000",1574787256.729518,3.138229,-1.304847,0.272112,0.000884,0.964843,0.262826,0.000000,0.000000,0.000000,-1,0.461290,-1.325768,0.181426,0.034532,0.046368,-0.307355
"2019-11-26 16:54:16.750 +0000",1574787256.749660,3.106453,-1.316512,0.267995,0.008838,0.967844,0.251398,0.000000,0.000000,0.000000,-1,0.620990,-1.382787,-0.005334,0.076062,0.058627,-0.361648
"2019-11-26 16:54:16.770 +0000",1574787256.769802,3.084232,-1.330385,0.270820,0.013650,0.971240,0.237712,0.000000,0.000000,0.000000,-1,0.695934,-1.189830,-0.073798,0.147391,0.085504,-0.306762
"2019-11-26 16:54:16.790 +0000",1574787256.789943,3.063345,-1.344804,0.271589,0.017515,0.974572,0.223388,0.000000,0.000000,0.000000,-1,0.718714,-1.039888,-0.047359,0.180132,0.019748,-0.193120
"2019-11-26 16:54:16.810 +0000",1574787256.810085,3.043984,-1.359277,0.271320,0.020460,0.977713,0.208947,0.000000,0.000000,0.000000,-1,0.714067,-0.915996,-0.061081,0.166307,-0.076792,-0.112775
"2019-11-26 16:54:16.830 +0000",1574787256.830226,3.024738,-1.374374,0.268839,0.022754,0.980771,0.193831,0.000000,0.000000,0.000000,-1,0.763428,-0.790852,-0.043725,0.129285,-0.145067,-0.109531
"2019-11-26 16:54:16.850 +0000",1574787256.850370,3.002329,-1.389903,0.257353,0.024974,0.983683,0.178167,0.000000,0.000000,0.000000,-1,0.773285,-0.449581,0.023460,0.085088,-0.093490,-0.090434
"2019-11-26 16:54:16.871 +0000",1574787256.870511,2.975016,-1.404839,0.236105,0.027391,0.986261,0.162911,0.000000,0.000000,0.000000,-1,0.763334,-0.297946,0.078365,0.087767,-0.100064,-0.150769
"2019-11-26 16:54:16.891 +0000",1574787256.890652,2.939461,-1.419623,0.206996,0.030234,0.988595,0.147533,0.000000,0.000000,0.000000,-1,0.762828,-0.366208,0.085806,0.083383,-0.051328,-0.151032
"2019-11-26 16:54:16.911 +0000",1574787256.910794,2.905531,-1.433255,0.180657,0.032067,0.990556,0.133308,0.000000,0.000000,0.000000,-1,0.686457,-0.370015,-0.016598,0.022880,0.016475,-0.085247
"2019-11-26 16:54:16.931 +0000",1574787256.930936,2.859713,-1.445040,0.146151,0.034889,0.992103,0.120477,0.000000,0.000000,0.000000,-1,0.608937,-0.621481,0.028811,0.030953,-0.057796,-0.115782
"2019-11-26 16:54:16.951 +0000",1574787256.951079,2.813736,-1.456684,0.113774,0.036667,0.993496,0.107803,0.000000,0.000000,0.000000,-1,0.607387,-0.705567,0.005718,0.085205,-0.048371,-0.066303
"2019-11-26 16:54:16.971 +0000",1574787256.971219,2.774838,-1.467809,0.088417,0.036865,0.994702,0.095969,0.000000,0.000000,0.000000,-1,0.531733,-0.684601,-0.071640,0.126236,-0.024506,-0.007533
"2019-11-26 16:54:16.991 +0000",1574787256.991361,2.756247,-1.478416,0.082573,0.034675,0.995736,0.085485,0.000000,0.000000,0.000000,-1,0.464973,-0.650561,-0.197064,0.131966,-0.036863,0.041814
"2019-11-26 16:54:17.012 +0000",1574787257.011504,2.759900,-1.488066,0.099648,0.030783,0.996580,0.076692,0.000000,0.000000,0.000000,-1,0.329329,-0.654598,-0.303447,0.105295,0.086775,0.086252
"2019-11-26 16:54:17.032 +0000",1574787257.031644,2.779229,-1.495165,0.133346,0.026785,0.997141,0.070654,0.000000,0.000000,0.000000,-1,0.235354,-0.728750,-0.334399,0.119806,0.186936,0.065526
"2019-11-26 16:54:17.052 +0000",1574787257.051786,2.804563,-1.499959,0.176216,0.023406,0.997492,0.066799,0.000000,0.000000,0.000000,-1,0.134769,-0.940905,-0.317795,0.132630,0.164308,0.112029
"2019-11-26 16:54:17.072 +0000",1574787257.071928,2.824814,-1.501924,0.216493,0.021438,0.997629,0.065397,0.000000,0.000000,0.000000,-1,0.041747,-0.991210,-0.255479,0.225479,0.091325,0.158185
"2019-11-26 16:54:17.092 +0000",1574787257.092070,2.867912,-1.503088,0.279818,0.018287,0.997709,0.065141,0.000000,0.000000,0.000000,-1,-0.027590,-0.992231,-0.213535,0.333398,0.124708,0.183282
"2019-11-26 16:54:17.112 +0000",1574787257.112211,2.913829,-1.502511,0.344256,0.015407,0.997669,0.066471,0.000000,0.000000,0.000000,-1,-0.094272,-0.876519,-0.201751,0.364918,0.122199,0.187689
"2019-11-26 16:54:17.132 +0000",1574787257.132353,2.953695,-1.501491,0.399769,0.012936,0.997599,0.068033,0.000000,0.000000,0.000000,-1,-0.081040,-0.730484,-0.162011,0.367389,0.079239,0.166260
"2019-11-26 16:54:17.152 +0000",1574787257.152495,2.963628,-1.500525,0.422074,0.012430,0.997532,0.069108,0.000000,0.000000,0.000000,-1,-0.058979,-0.552206,-0.023470,0.414587,0.103598,0.068871
"2019-11-26 16:54:17.173 +0000",1574787257.172637,2.926677,-1.497553,0.389255,0.015607,0.997319,0.071498,0.000000,0.000000,0.000000,-1,-0.152676,-0.108347,0.204079,0.223879,0.136969,0.036849
"2019-11-26 16:54:17.193 +0000",1574787257.192778,2.838699,-1.489610,0.299880,0.024191,0.996706,0.077409,0.000000,0.000000,0.000000,-1,-0.351585,0.138967,0.524937,0.130686,0.154336,-0.049673
"2019-11-26 16:54:17.213 +0000",1574787257.212921,2.725174,-1.474935,0.177028,0.038715,0.995409,0.087535,0.000000,0.000000,0.000000,-1,-0.540586,0.536241,0.836867,0.009808,0.173486,-0.141526
"2019-11-26 16:54:17.233 +0000",1574787257.233063,2.627077,-1.453782,0.063430,0.057453,0.993162,0.101633,0.000000,0.000000,0.000000,-1,-0.709897,0.801798,1.050095,-0.109196,0.116925,-0.195877
"2019-11-26 16:54:17.253 +0000",1574787257.253204,2.574045,-1.427243,-0.007531,0.076904,0.989714,0.120632,0.000000,0.000000,0.000000,-1,-0.966957,0.868638,1.060855,-0.247086,0.081234,-0.161973
"2019-11-26 16:54:17.273 +0000",1574787257.273346,2.573128,-1.398251,-0.023626,0.092429,0.985151,0.144690,0.000000,0.000000,0.000000,-1,-1.184766,0.717570,0.798449,-0.358634,0.176847,-0.087628
"2019-11-26 16:54:17.293 +0000",1574787257.293487,2.594653,-1.369417,-0.005090,0.104026,0.979792,0.170842,0.000000,0.000000,0.000000,-1,-1.344386,-0.052261,0.545000,-0.388664,0.272477,-0.150890
"2019-11-26 16:54:17.314 +0000",1574787257.313629,2.620715,-1.345926,0.029502,0.110965,0.974823,0.193410,0.000000,0.000000,0.000000,-1,-1.097772,-0.436198,0.173509,-0.313236,0.324870,-0.174557
"2019-11-26 16:54:17.334 +0000",1574787257.333772,2.660506,-1.330690,0.074553,0.110044,0.971313,0.210815,0.000000,0.000000,0.000000,-1,-0.872027,-0.082263,-0.147847,-0.012235,0.161098,-0.069738
"2019-11-26 16:54:17.354 +0000",1574787257.353914,2.710588,-1.318238,0.120533,0.104397,0.968276,0.227030,0.000000,0.000000,0.000000,-1,-0.754289,0.470776,-0.240379,0.157993,0.078914,-0.050508
"2019-11-26 16:54:17.374 +0000",1574787257.374054,2.762982,-1.306901,0.154679,0.096416,0.965381,0.242371,0.000000,0.000000,0.000000,-1,-0.679224,1.089971,-0.160397,0.110615,-0.019006,-0.041816
"2019-11-26 16:54:17.394 +0000",1574787257.394197,2.805549,-1.296681,0.168650,0.089263,0.962665,0.255554,0.000000,0.000000,0.000000,-1,-0.496873,1.553940,0.078291,0.126648,-0.065591,-0.070747
"2019-11-26 16:54:17.414 +0000",1574787257.414339,2.839481,-1.287249,0.166924,0.083240,0.960069,0.267093,0.000000,0.000000,0.000000,-1,-0.411658,1.840000,0.177857,0.002987,-0.147666,-0.099452
"2019-11-26 16:54:17.434 +0000",1574787257.434481,2.876458,-1.280235,0.165601,0.075072,0.958083,0.276479,0.000000,0.000000,0.000000,-1,-0.300387,1.897031,0.087511,-0.068801,-0.418889,-0.186872
"2019-11-26 16:54:17.455 +0000",1574787257.454622,2.915099,-1.274651,0.168192,0.065535,0.956469,0.284382,0.000000,0.000000,0.000000,-1,-0.280881,1.744692,0.013882,-0.088210,-0.511405,-0.156124
"2019-11-26 16:54:17.475 +0000",1574787257.474764,2.949597,-1.267862,0.171809,0.056925,0.954465,0.292841,0.000000,0.000000,0.000000,-1,-0.359948,1.476160,0.032112,-0.098079,-0.481143,-0.134172
"2019-11-26 16:54:17.495 +0000",1574787257.494906,2.976652,-1.260979,0.172302,0.050060,0.952389,0.300748,0.000000,0.000000,0.000000,-1,-0.322981,1.269095,0.056501,-0.119869,-0.442553,-0.107334
"2019-11-26 16:54:17.515 +0000",1574787257.515048,2.996359,-1.255585,0.169679,0.044867,0.950731,0.306754,0.000000,0.000000,0.000000,-1,-0.233807,1.047627,0.095220,-0.091239,-0.354972,-0.102720
"2019-11-26 16:54:17.535 +0000",1574787257.535189,3.007757,-1.252597,0.163165,0.041746,0.949800,0.310059,0.000000,0.000000,0.000000,-1,-0.089136,0.817092,0.131841,-0.067595,-0.327659,-0.080208
"2019-11-26 16:54:17.555 +0000",1574787257.555331,3.011699,-1.254173,0.153402,0.040330,0.950292,0.308737,0.000000,0.000000,0.000000,-1,0.159409,0.609101,0.139665,-0.033738,-0.253032,-0.108992
"2019-11-26 16:54:17.575 +0000",1574787257.575473,3.013416,-1.258949,0.145978,0.039219,0.951769,0.304301,0.000000,0.000000,0.000000,-1,0.276445,0.373645,0.060293,-0.054051,-0.015449,-0.090533
"2019-11-26 16:54:17.596 +0000",1574787257.595615,3.012548,-1.265409,0.141425,0.038691,0.953731,0.298162,0.000000,0.000000,0.000000,-1,0.332296,0.116533,0.019720,-0.071147,0.255935,0.026888
"2019-11-26 16:54:17.616 +0000",1574787257.615758,3.008313,-1.269072,0.133343,0.039489,0.954825,0.294532,0.000000,0.000000,0.000000,-1,0.125029,0.215837,0.126905,-0.058731,0.474780,0.191834
"2019-11-26 16:54:17.636 +0000",1574787257.635899,3.005985,-1.265145,0.124954,0.040681,0.953651,0.298153,0.000000,0.000000,0.000000,-1,-0.274275,0.287258,0.155094,-0.031221,0.294604,0.311489
"2019-11-26 16:54:17.656 +0000",1574787257.656040,3.006297,-1.255421,0.118879,0.041837,0.950680,0.307339,0.000000,0.000000,0.000000,-1,-0.520807,0.302260,0.155081,0.022539,0.136411,0.341640
"2019-11-26 16:54:17.676 +0000",1574787257.676183,3.002359,-1.240588,0.112537,0.044999,0.945975,0.321103,0.000000,0.000000,0.000000,-1,-0.811379,-0.005117,0.209083,-0.017595,0.298511,0.301860
"2019-11-26 16:54:17.696 +0000",1574787257.696326,2.981730,-1.226900,0.104384,0.053670,0.941448,0.332860,0.000000,0.000000,0.000000,-1,-0.505785,-0.857947,0.247431,0.084346,0.600371,-0.193921
"2019-11-26 16:54:17.716 +0000",1574787257.716467,2.956502,-1.224198,0.102506,0.062517,0.940534,0.333899,0.000000,0.000000,0.000000,-1,-0.045683,-1.199007,-0.045578,-0.244097,0.677579,-0.224089
"2019-11-26 16:54:17.737 +0000",1574787257.736609,2.942423,-1.223759,0.109222,0.067293,0.940385,0.333390,0.000000,0.000000,0.000000,-1,-0.047028,-0.952057,-0.084968,-0.328189,0.046426,-0.151345
"2019-11-26 16:54:17.757 +0000",1574787257.756751,2.915340,-1.222209,0.102160,0.076624,0.939856,0.332865,0.000000,0.000000,0.000000,-1,-0.036542,-1.077525,0.198836,-0.171869,-0.107693,-0.140307
"2019-11-26 16:54:17.777 +0000",1574787257.776893,2.879367,-1.222537,0.087292,0.088466,0.939968,0.329597,0.000000,0.000000,0.000000,-1,0.109190,-1.066640,0.233787,-0.157238,-0.200533,-0.132400
"2019-11-26 16:54:17.797 +0000",1574787257.797034,2.852875,-1.226049,0.078840,0.096225,0.941161,0.323971,0.000000,0.000000,0.000000,-1,0.233047,-0.865028,0.016584,-0.039676,-0.153996,-0.261616
"2019-11-26 16:54:17.817 +0000",1574787257.817175,2.846659,-1.237260,0.088425,0.095164,0.944890,0.313251,0.000000,0.000000,0.000000,-1,0.596135,-0.733559,-0.422438,0.001119,-0.164241,-0.522534
"2019-11-26 16:54:17.837 +0000",1574787257.837318,2.856687,-1.261412,0.112163,0.085577,0.952521,0.292198,0.000000,0.000000,0.000000,-1,1.180977,-0.592527,-0.787678,-0.073264,-0.151136,-0.568543
"2019-11-26 16:54:17.857 +0000",1574787257.857460,2.882724,-1.291527,0.146070,0.070564,0.961257,0.266468,0.000000,0.000000,0.000000,-1,1.300750,-0.253326,-0.859154,-0.048195,0.191324,-0.268522
"2019-11-26 16:54:17.878 +0000",1574787257.877601,2.884247,-1.313719,0.158329,0.064712,0.967137,0.245883,0.000000,0.000000,0.000000,-1,0.915324,-0.620341,-0.272407,-0.073272,0.165349,-0.033885
"2019-11-26 16:54:17.898 +0000",1574787257.897743,2.846020,-1.326954,0.138937,0.070327,0.970417,0.230964,0.000000,0.000000,0.000000,-1,0.644597,-1.093454,0.135539,-0.060562,-0.111277,-0.086471
"2019-11-26 16:54:17.918 +0000",1574787257.917885,2.789652,-1.337878,0.107984,0.079568,0.972997,0.216670,0.000000,0.000000,0.000000,-1,0.640158,-1.352382,0.161452,-0.132363,-0.390468,-0.179553
"2019-11-26 16:54:17.938 +0000",1574787257.938027,2.743872,-1.351837,0.085478,0.084131,0.976124,0.200261,0.000000,0.000000,0.000000,-1,0.764983,-1.100711,-0.080780,-0.074137,-0.350047,-0.199520
"2019-11-26 16:54:17.958 +0000",1574787257.958169,2.708738,-1.367350,0.067973,0.084751,0.979376,0.183412,0.000000,0.000000,0.000000,-1,0.773724,-0.840679,-0.151759,0.043514,-0.089001,-0.117821
"2019-11-26 16:54:17.978 +0000",1574787257.978310,2.678133,-1.382260,0.053917,0.083786,0.982280,0.167651,0.000000,0.000000,0.000000,-1,0.710160,-0.859763,-0.223113,0.097549,-0.078233,-0.101344
"2019-11-26 16:54:17.998 +0000",1574787257.998452,2.663658,-1.397848,0.056448,0.079151,0.985082,0.152805,0.000000,0.000000,0.000000,-1,0.676530,-0.817841,-0.428661,0.107433,-0.108745,-0.076686
"2019-11-26 16:54:18.019 +0000",1574787258.018594,2.680563,-1.415217,0.086495,0.068934,0.987922,0.138775,0.000000,0.000000,0.000000,-1,0.643699,-0.568152,-0.660417,0.138539,-0.136183,-0.021289
"2019-11-26 16:54:18.039 +0000",1574787258.038736,2.732933,-1.433084,0.147725,0.054551,0.990533,0.125974,0.000000,0.000000,0.000000,-1,0.621563,-0.346959,-0.809289,0.160460,-0.092620,-0.030674
"2019-11-26 16:54:18.059 +0000",1574787258.058878,2.818654,-1.450155,0.238319,0.038194,0.992732,0.114129,0.000000,0.000000,0.000000,-1,0.568592,-0.149221,-0.836712,0.125579,-0.007112,0.005875
"2019-11-26 16:54:18.079 +0000",1574787258.079020,2.919476,-1.462599,0.343840,0.023789,0.994152,0.105336,0.000000,0.000000,0.000000,-1,0.390484,-0.227508,-0.696587,0.107253,0.115277,0.070087
"2019-11-26 16:54:18.099 +0000",1574787258.099161,3.001738,-1.468759,0.433899,0.014200,0.994799,0.100869,0.000000,0.000000,0.000000,-1,0.150059,-0.397985,-0.450000,0.120490,0.170646,0.177337
"2019-11-26 16:54:18.119 +0000",1574787258.119303,3.040990,-1.468806,0.483106,0.010226,0.994803,0.101301,0.000000,0.000000,0.000000,-1,-0.078048,-0.497011,-0.178807,0.170286,0.182772,0.158335
"2019-11-26 16:54:18.139 +0000",1574787258.139444,3.045274,-1.467583,0.496413,0.009908,0.994678,0.102554,0.000000,0.000000,0.000000,-1,-0.051281,-0.414899,-0.028532,0.240000,0.183370,0.111154
"2019-11-26 16:54:18.160 +0000",1574787258.159586,3.037397,-1.468721,0.495116,0.010598,0.994795,0.101345,0.000000,0.000000,0.000000,-1,0.095850,-0.292573,0.006224,0.262809,0.183833,0.075985
"2019-11-26 16:54:18.180 +0000",1574787258.179729,3.010766,-1.471347,0.471978,0.012952,0.995059,0.098438,0.000000,0.000000,0.000000,-1,0.139596,-0.099680,0.139958,0.273577,0.256735,0.058217
"2019-11-26 16:54:18.200 +0000",1574787258.199871,2.956971,-1.471082,0.415309,0.018275,0.995033,0.097858,0.000000,0.000000,0.000000,-1,-0.019005,0.170353,0.327072,0.078634,0.315065,0.118687
"2019-11-26 16:54:18.220 +0000",1574787258.220012,2.864624,-1.464394,0.323115,0.029040,0.994345,0.102155,0.000000,0.000000,0.000000,-1,-0.279215,-0.095693,0.603155,-0.000567,0.236972,0.030620
"2019-11-26 16:54:18.240 +0000",1574787258.240153,2.760304,-1.450072,0.219089,0.044815,0.992722,0.111783,0.000000,0.000000,0.000000,-1,-0.546579,0.040923,0.843024,-0.013916,0.217889,-0.069920
"2019-11-26 16:54:18.260 +0000",1574787258.260296,2.674053,-1.429854,0.121680,0.063312,0.990084,0.125402,0.000000,0.000000,0.000000,-1,-0.685025,0.650368,1.024525,-0.065098,0.082282,-0.169857
"2019-11-26 16:54:18.280 +0000",1574787258.280438,2.629813,-1.405362,0.061401,0.080650,0.986347,0.143582,0.000000,0.000000,0.000000,-1,-0.933688,0.777967,0.943999,-0.163734,-0.011042,-0.122227
"2019-11-26 16:54:18.301 +0000",1574787258.300579,2.643498,-1.378704,0.056415,0.091210,0.981607,0.167718,0.000000,0.000000,0.000000,-1,-1.184829,1.008088,0.584352,-0.364526,0.072998,-0.021439
"2019-11-26 16:54:18.321 +0000",1574787258.320721,2.670586,-1.356022,0.073143,0.096714,0.977025,0.189920,0.000000,0.000000,0.000000,-1,-0.992709,0.335378,0.309490,-0.441120,0.229985,-0.312547
"2019-11-26 16:54:18.341 +0000",1574787258.340863,2.693169,-1.340918,0.097440,0.098788,0.973694,0.205332,0.000000,0.000000,0.000000,-1,-0.748506,-0.140760,0.015818,-0.275927,0.280252,-0.223009
"2019-11-26 16:54:18.361 +0000",1574787258.361004,2.736540,-1.329196,0.142173,0.094284,0.970956,0.219897,0.000000,0.000000,0.000000,-1,-0.742286,0.065899,-0.306112,-0.098374,0.245422,-0.045635
"2019-11-26 16:54:18.381 +0000",1574787258.381147,2.796794,-1.316108,0.199199,0.085159,0.967742,0.237116,0.000000,0.000000,0.000000,-1,-0.892838,0.338368,-0.420608,0.062622,0.063151,-0.039614
"2019-11-26 16:54:18.401 +0000",1574787258.401288,2.851271,-1.301807,0.243638,0.076076,0.964040,0.254637,0.000000,0.000000,0.000000,-1,-0.845719,0.614078,-0.291036,0.036533,-0.095348,-0.155463
"2019-11-26 16:54:18.421 +0000",1574787258.421430,2.890658,-1.288453,0.265643,0.069181,0.960405,0.269881,0.000000,0.000000,0.000000,-1,-0.682995,1.013359,-0.045026,-0.049040,-0.182946,-0.150231
"2019-11-26 16:54:18.442 +0000",1574787258.441573,2.918542,-1.275948,0.270895,0.064281,0.956846,0.283396,0.000000,0.000000,0.000000,-1,-0.607365,1.144519,0.108059,-0.068935,-0.226628,-0.121463
"2019-11-26 16:54:18.462 +0000",1574787258.461715,2.943385,-1.265177,0.272862,0.059248,0.953661,0.294994,0.000000,0.000000,0.000000,-1,-0.494316,1.145348,0.065532,-0.066328,-0.400978,-0.164051
"2019-11-26 16:54:18.482 +0000",1574787258.481855,2.969593,-1.258298,0.278923,0.052619,0.951568,0.302901,0.000000,0.000000,0.000000,-1,-0.304654,0.968219,-0.050215,-0.045219,-0.547598,-0.140388
"2019-11-26 16:54:18.502 +0000",1574787258.501997,2.992797,-1.254499,0.283550,0.046112,0.950394,0.307613,0.000000,0.000000,0.000000,-1,-0.164565,0.923929,-0.030815,-0.049973,-0.489508,-0.058537
"2019-11-26 16:54:18.522 +0000",1574787258.522140,3.014719,-1.253338,0.286202,0.039498,0.950032,0.309644,0.000000,0.000000,0.000000,-1,-0.031339,0.979043,-0.035670,-0.123482,-0.373409,-0.013693
"2019-11-26 16:54:18.542 +0000",1574787258.542281,3.036117,-1.252007,0.289936,0.032997,0.949616,0.311676,0.000000,0.000000,0.000000,-1,-0.104970,0.846712,-0.048665,-0.052086,-0.235770,0.046134
"2019-11-26 16:54:18.562 +0000",1574787258.562424,3.050094,-1.247519,0.289953,0.029026,0.948200,0.316348,0.000000,0.000000,0.000000,-1,-0.243369,0.635574,0.053700,0.039073,-0.152612,0.025471
"2019-11-26 16:54:18.583 +0000",1574787258.582564,3.050341,-1.244445,0.281639,0.029214,0.947218,0.319256,0.000000,0.000000,0.000000,-1,-0.096269,0.329208,0.170877,-0.015603,-0.098943,-0.030370
"2019-11-26 16:54:18.603 +0000",1574787258.602706,3.042412,-1.243519,0.266912,0.031831,0.946921,0.319886,0.000000,0.000000,0.000000,-1,-0.012876,0.308885,0.261257,-0.043107,0.006182,0.084738
"2019-11-26 16:54:18.623 +0000",1574787258.622847,3.037644,-1.242307,0.251748,0.033475,0.946531,0.320872,0.000000,0.000000,0.000000,-1,-0.041962,0.548650,0.216477,-0.038938,0.302700,0.185650
"2019-11-26 16:54:18.643 +0000",1574787258.642990,3.041555,-1.237259,0.240444,0.032697,0.944890,0.325751,0.000000,0.000000,0.000000,-1,-0.312239,0.737701,0.205163,0.033786,0.316212,0.331818
"2019-11-26 16:54:18.663 +0000",1574787258.663131,3.049443,-1.225430,0.232440,0.031152,0.940952,0.337105,0.000000,0.000000,0.000000,-1,-0.656838,0.782714,0.187873,-0.038477,0.239783,0.425322
"2019-11-26 16:54:18.683 +0000",1574787258.683273,3.054193,-1.206815,0.226115,0.031075,0.934487,0.354639,0.000000,0.000000,0.000000,-1,-1.012938,0.356754,0.181930,-0.108757,0.335252,0.312344
"2019-11-26 16:54:18.703 +0000",1574787258.703415,3.033615,-1.192505,0.215112,0.039802,0.929297,0.367182,0.000000,0.000000,0.000000,-1,-0.481257,-0.776516,0.307453,0.007713,0.596758,-0.321812
"2019-11-26 16:54:18.724 +0000",1574787258.723557,3.004386,-1.190658,0.207678,0.050751,0.928613,0.367563,0.000000,0.000000,0.000000,-1,0.015561,-1.118294,0.053318,-0.252961,0.591553,-0.271808
"2019-11-26 16:54:18.744 +0000",1574787258.743698,2.987917,-1.189075,0.208992,0.057022,0.928025,0.368128,0.000000,0.000000,0.000000,-1,-0.106953,-0.813771,-0.029662,-0.256287,0.202386,-0.118306
"2019-11-26 16:54:18.764 +0000",1574787258.763839,2.969078,-1.188002,0.209370,0.064118,0.927625,0.367970,0.000000,0.000000,0.000000,-1,-0.004749,-0.999008,0.005083,-0.097260,0.046811,-0.240324
"2019-11-26 16:54:18.784 +0000",1574787258.783982,2.953298,-1.191955,0.211688,0.069229,0.929094,0.363307,0.000000,0.000000,0.000000,-1,0.249569,-0.817480,-0.122726,-0.059876,-0.064522,-0.318806
"2019-11-26 16:54:18.804 +0000",1574787258.804124,2.956841,-1.203636,0.226746,0.065943,0.933351,0.352858,0.000000,0.000000,0.000000,-1,0.611708,-0.435067,-0.463184,-0.030207,-0.211601,-0.531578
"2019-11-26 16:54:18.824 +0000",1574787258.824265,2.974782,-1.226746,0.250750,0.056005,0.941396,0.332621,0.000000,0.000000,0.000000,-1,1.230090,-0.158680,-0.643814,-0.019995,-0.341137,-0.621632
"2019-11-26 16:54:18.844 +0000",1574787258.844408,3.005057,-1.261103,0.284409,0.041482,0.952427,0.301931,0.000000,0.000000,0.000000,-1,1.692896,-0.015173,-0.834106,-0.095132,-0.115321,-0.417876
"2019-11-26 16:54:18.865 +0000",1574787258.864550,3.036829,-1.294043,0.318119,0.028573,0.961948,0.271737,0.000000,0.000000,0.000000,-1,1.480685,-0.104718,-0.562534,-0.084496,0.137609,-0.110400
"2019-11-26 16:54:18.885 +0000",1574787258.884691,3.032477,-1.318123,0.322148,0.027224,0.968248,0.248507,0.000000,0.000000,0.000000,-1,1.085505,-0.519450,-0.081824,-0.027407,-0.027321,-0.093578
"2019-11-26 16:54:18.905 +0000",1574787258.904833,3.006866,-1.336825,0.308142,0.031141,0.972753,0.229742,0.000000,0.000000,0.000000,-1,0.906564,-0.603653,0.067763,-0.035047,-0.264386,-0.170456
"2019-11-26 16:54:18.925 +0000",1574787258.924974,2.984284,-1.354247,0.295428,0.033660,0.976645,0.212209,0.000000,0.000000,0.000000,-1,0.870021,-0.467095,-0.009390,-0.061691,-0.354413,-0.185668
"2019-11-26 16:54:18.945 +0000",1574787258.945117,2.969956,-1.371433,0.288096,0.033825,0.980193,0.195135,0.000000,0.000000,0.000000,-1,0.841438,-0.331456,-0.076988,-0.032223,-0.219168,-0.144042
"2019-11-26 16:54:18.965 +0000",1574787258.965258,2.956259,-1.387378,0.282281,0.033610,0.983226,0.179269,0.000000,0.000000,0.000000,-1,0.767390,-0.458382,-0.093663,0.001301,-0.109576,-0.076403
"2019-11-26 16:54:18.985 +0000",1574787258.985401,2.948818,-1.399740,0.286167,0.032612,0.985406,0.167071,0.000000,0.000000,0.000000,-1,0.531865,-0.576409,-0.175447,0.004406,-0.054336,-0.018062
"2019-11-26 16:54:19.006 +0000",1574787259.005541,2.962138,-1.408752,0.311012,0.028798,0.986899,0.158747,0.000000,0.000000,0.000000,-1,0.348989,-0.545331,-0.310778,0.155238,0.014925,-0.042941
"2019-11-26 16:54:19.026 +0000",1574787259.025683,2.998149,-1.415264,0.357763,0.022144,0.987929,0.153317,0.000000,0.000000,0.000000,-1,0.251180,-0.497238,-0.448318,0.226284,-0.029715,-0.088948
"2019-11-26 16:54:19.046 +0000",1574787259.045825,3.061611,-1.422507,0.426546,0.011805,0.989025,0.147274,0.000000,0.000000,0.000000,-1,0.313612,-0.153123,-0.588052,0.178152,0.009274,-0.086583
"2019-11-26 16:54:19.066 +0000",1574787259.065968,-3.137289,-1.428345,0.514682,-0.000611,0.989871,0.141969,0.000000,0.000000,0.000000,-1,0.230622,-0.155121,-0.649233,0.131730,0.079656,0.064809
"2019-11-26 16:54:19.086 +0000",1574787259.086108,-3.066915,-1.430565,0.593386,-0.010428,0.990184,0.139384,0.000000,0.000000,0.000000,-1,0.097002,-0.453632,-0.494634,0.148307,0.103635,0.148175
"2019-11-26 16:54:19.106 +0000",1574787259.106250,-3.074765,-1.432834,0.596950,-0.009184,0.990498,0.137221,0.000000,0.000000,0.000000,-1,0.014068,-0.524668,-0.244912,0.239622,0.106739,0.145730
"2019-11-26 16:54:19.126 +0000",1574787259.126392,-3.094094,-1.437104,0.585571,-0.006329,0.991076,0.133146,0.000000,0.000000,0.000000,-1,0.145595,-0.328544,-0.065325,0.372281,0.089773,0.068674
"2019-11-26 16:54:19.147 +0000",1574787259.146535,-3.090865,-1.442644,0.594377,-0.006480,0.991800,0.127638,0.000000,0.000000,0.000000,-1,0.332777,-0.267868,-0.048905,0.349193,0.152373,0.024255
"2019-11-26 16:54:19.167 +0000",1574787259.166676,-3.093252,-1.450644,0.595330,-0.005792,0.992790,0.119723,0.000000,0.000000,0.000000,-1,0.399609,-0.121923,0.039484,0.326776,0.251556,-0.014064
"2019-11-26 16:54:19.187 +0000",1574787259.186818,-3.117034,-1.456740,0.570378,-0.002795,0.993503,0.113776,0.000000,0.000000,0.000000,-1,0.250190,0.077597,0.203659,0.069308,0.327657,0.061722
"2019-11-26 16:54:19.207 +0000",1574787259.206960,3.088737,-1.457486,0.494520,0.005974,0.993587,0.112912,0.000000,0.000000,0.000000,-1,-0.022741,-0.173348,0.506350,-0.021370,0.244091,0.009821
"2019-11-26 16:54:19.227 +0000",1574787259.227102,2.962167,-1.450914,0.370758,0.021344,0.992823,0.117676,0.000000,0.000000,0.000000,-1,-0.299040,-0.145315,0.828062,-0.060101,0.187452,-0.082101
"2019-11-26 16:54:19.247 +0000",1574787259.247243,2.824952,-1.437482,0.228957,0.041388,0.991127,0.126311,0.000000,0.000000,0.000000,-1,-0.463250,0.319061,1.087607,-0.098242,0.084091,-0.182579
"2019-11-26 16:54:19.267 +0000",1574787259.267385,2.711977,-1.418152,0.104091,0.063334,0.988372,0.138236,0.000000,0.000000,0.000000,-1,-0.611068,0.560849,1.185884,-0.176371,-0.013160,-0.191010
"2019-11-26 16:54:19.288 +0000",1574787259.287527,2.648923,-1.393771,0.027002,0.083293,0.984372,0.155160,0.000000,0.000000,0.000000,-1,-0.867453,0.716761,1.033395,-0.330166,0.054942,-0.033922
"2019-11-26 16:54:19.308 +0000",1574787259.307669,2.630941,-1.367600,-0.003518,0.098630,0.979427,0.176057,0.000000,0.000000,0.000000,-1,-1.036194,0.459671,0.825492,-0.522810,0.248227,-0.164837
"2019-11-26 16:54:19.328 +0000",1574787259.327810,2.622955,-1.343348,-0.009491,0.111777,0.974245,0.195840,0.000000,0.000000,0.000000,-1,-1.006117,-0.291727,0.585871,-0.468910,0.366568,-0.213169
"2019-11-26 16:54:19.348 +0000",1574787259.347952,2.630617,-1.325402,0.008483,0.118804,0.970042,0.211908,0.000000,0.000000,0.000000,-1,-0.825674,-0.486231,0.119721,-0.275223,0.346662,-0.140644
"2019-11-26 16:54:19.368 +0000",1574787259.368094,2.670384,-1.312110,0.054360,0.116129,0.966727,0.227933,0.000000,0.000000,0.000000,-1,-0.895716,-0.150674,-0.280645,-0.011439,0.163896,-0.034904
"2019-11-26 16:54:19.388 +0000",1574787259.388236,2.731280,-1.299327,0.106992,0.106963,0.963378,0.245890,0.000000,0.000000,0.000000,-1,-0.849731,0.738084,-0.343228,0.154236,-0.080756,-0.138692
"2019-11-26 16:54:19.408 +0000",1574787259.408378,2.794252,-1.288068,0.148264,0.094963,0.960298,0.262317,0.000000,0.000000,0.000000,-1,-0.658560,1.329068,-0.302346,0.015067,-0.113824,-0.186414
"2019-11-26 16:54:19.429 +0000",1574787259.428519,2.849829,-1.275718,0.174074,0.083651,0.956779,0.278525,0.000000,0.000000,0.000000,-1,-0.716613,1.575741,-0.089049,0.023816,-0.115692,-0.082506
"2019-11-26 16:54:19.449 +0000",1574787259.448661,2.891916,-1.261102,0.187099,0.075306,0.952427,0.295319,0.000000,0.000000,0.000000,-1,-0.763805,1.426724,0.017216,-0.067952,-0.288875,-0.119349
"2019-11-26 16:54:19.469 +0000",1574787259.468807,2.925586,-1.247102,0.196901,0.068172,0.948067,0.310679,0.000000,0.000000,0.000000,-1,-0.680783,1.152664,0.015296,-0.072811,-0.444123,-0.179770
"2019-11-26 16:54:19.489 +0000",1574787259.488946,2.950523,-1.236027,0.200631,0.062395,0.944486,0.322573,0.000000,0.000000,0.000000,-1,-0.506510,1.030362,0.067469,-0.059847,-0.490911,-0.133679
"2019-11-26 16:54:19.509 +0000",1574787259.509087,2.968052,-1.229016,0.197196,0.057874,0.942159,0.330132,0.000000,0.000000,0.000000,-1,-0.270500,1.051164,0.132956,-0.079008,-0.442045,-0.080296
"2019-11-26 16:54:19.529 +0000",1574787259.529229,2.982653,-1.227467,0.190747,0.053278,0.941639,0.332382,0.000000,0.000000,0.000000,-1,0.023913,0.992407,0.105573,-0.123560,-0.392056,-0.065807
"2019-11-26 16:54:19.549 +0000",1574787259.549370,2.994035,-1.231145,0.186040,0.048982,0.942871,0.329539,0.000000,0.000000,0.000000,-1,0.225047,0.728502,0.028180,-0.087023,-0.305244,0.048044
"2019-11-26 16:54:19.570 +0000",1574787259.569512,3.002883,-1.234762,0.184215,0.045592,0.944070,0.326579,0.000000,0.000000,0.000000,-1,0.160132,0.458270,0.004274,-0.024795,-0.234117,0.078470
"2019-11-26 16:54:19.590 +0000",1574787259.589654,3.005230,-1.237125,0.179872,0.044523,0.944846,0.324474,0.000000,0.000000,0.000000,-1,0.120736,0.290027,0.078351,-0.002485,-0.056228,0.018914
"2019-11-26 16:54:19.610 +0000",1574787259.609795,3.003179,-1.239463,0.173240,0.044883,0.945610,0.322194,0.000000,0.000000,0.000000,-1,0.135308,0.185771,0.085348,-0.040077,0.191742,0.032623
"2019-11-26 16:54:19.630 +0000",1574787259.629938,3.004363,-1.241034,0.169851,0.044298,0.946119,0.320774,0.000000,0.000000,0.000000,-1,0.061785,0.242338,0.012310,-0.061984,0.450967,0.118133
"2019-11-26 16:54:19.650 +0000",1574787259.650080,3.014519,-1.239039,0.170754,0.041277,0.945471,0.323080,0.000000,0.000000,0.000000,-1,-0.178059,0.493541,0.002699,0.004773,0.373918,0.312727
"2019-11-26 16:54:19.670 +0000",1574787259.670221,3.028945,-1.230219,0.173487,0.037548,0.942562,0.331915,0.000000,0.000000,0.000000,-1,-0.537719,0.638027,0.009986,-0.019085,0.134059,0.434965
"2019-11-26 16:54:19.690 +0000",1574787259.690364,3.041217,-1.212808,0.171167,0.035112,0.936604,0.348628,0.000000,0.000000,0.000000,-1,-0.982851,0.710484,0.178368,-0.019945,0.185169,0.422448
"2019-11-26 16:54:19.711 +0000",1574787259.710506,3.025987,-1.195545,0.157499,0.042276,0.930416,0.364060,0.000000,0.000000,0.000000,-1,-0.682618,-0.480353,0.387686,0.165503,0.398113,-0.268506
"2019-11-26 16:54:19.731 +0000",1574787259.730648,2.988139,-1.190876,0.139372,0.056685,0.928694,0.366489,0.000000,0.000000,0.000000,-1,-0.030504,-1.129617,0.290962,-0.245910,0.634179,-0.371643
"2019-11-26 16:54:19.751 +0000",1574787259.750789,2.970767,-1.190406,0.138655,0.063117,0.928520,0.365880,0.000000,0.000000,0.000000,-1,-0.038734,-0.741282,-0.040015,-0.421439,0.325348,-0.229111
"2019-11-26 16:54:19.771 +0000",1574787259.770931,2.959260,-1.188135,0.140843,0.067705,0.927674,0.367201,0.000000,0.000000,0.000000,-1,-0.155634,-0.721600,-0.004096,-0.212465,0.157096,-0.169596
"2019-11-26 16:54:19.791 +0000",1574787259.791073,2.944009,-1.185288,0.141884,0.073815,0.926607,0.368715,0.000000,0.000000,0.000000,-1,-0.131480,-0.809562,0.008474,-0.124673,-0.041132,-0.219496
"2019-11-26 16:54:19.811 +0000",1574787259.811214,2.937610,-1.186013,0.148424,0.076037,0.926880,0.367576,0.000000,0.000000,0.000000,-1,0.065746,-0.542048,-0.189411,-0.051257,-0.177437,-0.403034
"2019-11-26 16:54:19.831 +0000",1574787259.831356,2.947101,-1.195824,0.166590,0.070784,0.930518,0.359342,0.000000,0.000000,0.000000,-1,0.556327,-0.309358,-0.495900,-0.019179,-0.299438,-0.583139
"2019-11-26 16:54:19.851 +0000",1574787259.851498,2.966471,-1.219431,0.191150,0.059966,0.938904,0.338915,0.000000,0.000000,0.000000,-1,1.244455,-0.153338,-0.684470,-0.067748,-0.270348,-0.594588
"2019-11-26 16:54:19.872 +0000",1574787259.871639,2.998603,-1.251284,0.225613,0.044761,0.949389,0.310899,0.000000,0.000000,0.000000,-1,1.492564,0.036642,-0.842768,-0.128974,0.105215,-0.246060
"2019-11-26 16:54:19.892 +0000",1574787259.891782,3.014281,-1.278010,0.246810,0.036646,0.957443,0.286286,0.000000,0.000000,0.000000,-1,1.184925,-0.333926,-0.334984,-0.085612,0.207633,-0.080791
"2019-11-26 16:54:19.912 +0000",1574787259.911924,2.992484,-1.297373,0.238397,0.040115,0.962852,0.267033,0.000000,0.000000,0.000000,-1,0.901515,-0.795428,0.065665,-0.013198,-0.061462,-0.098465
"2019-11-26 16:54:19.932 +0000",1574787259.932065,2.957651,-1.313710,0.220775,0.046506,0.967135,0.249975,0.000000,0.000000,0.000000,-1,0.838178,-0.891721,0.077246,-0.061140,-0.296916,-0.171540
"2019-11-26 16:54:19.952 +0000",1574787259.952207,2.932707,-1.331447,0.210846,0.049161,0.971492,0.231918,0.000000,0.000000,0.000000,-1,0.906928,-0.698512,-0.102685,-0.061262,-0.364414,-0.186671
"2019-11-26 16:54:19.972 +0000",1574787259.972350,2.920784,-1.351195,0.210009,0.047711,0.975984,0.212553,0.000000,0.000000,0.000000,-1,0.978061,-0.514228,-0.217879,-0.030332,-0.202235,-0.167229
"2019-11-26 16:54:19.992 +0000",1574787259.992491,2.907899,-1.371549,0.209317,0.045836,0.980216,0.192552,0.000000,0.000000,0.000000,-1,0.976192,-0.654145,-0.230499,0.037965,-0.059433,-0.114391
"2019-11-26 16:54:20.013 +0000",1574787260.012631,2.905296,-1.389897,0.221267,0.042119,0.983682,0.174915,0.000000,0.000000,0.000000,-1,0.817506,-0.709405,-0.359844,0.058696,-0.059496,-0.017271
"2019-11-26 16:54:20.033 +0000",1574787260.032774,2.930507,-1.403637,0.259000,0.034861,0.986061,0.162690,0.000000,0.000000,0.000000,-1,0.506318,-0.546644,-0.502610,0.153005,-0.071107,0.058064
"2019-11-26 16:54:20.053 +0000",1574787260.052917,2.987651,-1.412972,0.325089,0.024100,0.987572,0.155311,0.000000,0.000000,0.000000,-1,0.346058,-0.276147,-0.659951,0.182184,-0.008149,-0.058641
"2019-11-26 16:54:20.073 +0000",1574787260.073058,3.062024,-1.420545,0.405252,0.011898,0.988733,0.149213,0.000000,0.000000,0.000000,-1,0.319141,-0.163804,-0.646931,0.140614,0.011777,-0.089912
"2019-11-26 16:54:20.093 +0000",1574787260.093200,3.137405,-1.425559,0.485543,0.000606,0.989472,0.144726,0.000000,0.000000,0.000000,-1,0.184754,-0.227566,-0.570382,0.108754,0.080985,0.014642
"2019-11-26 16:54:20.113 +0000",1574787260.113342,-3.095387,-1.426737,0.544764,-0.006631,0.989641,0.143409,0.000000,0.000000,0.000000,-1,0.026786,-0.471391,-0.359938,0.153802,0.094808,0.109892
"2019-11-26 16:54:20.133 +0000",1574787260.133484,-3.102518,-1.426280,0.550402,-0.005626,0.989576,0.143905,0.000000,0.000000,0.000000,-1,-0.089008,-0.635002,-0.159860,0.262447,0.087214,0.137778
"2019-11-26 16:54:20.154 +0000",1574787260.153626,-3.128016,-1.428726,0.536101,-0.001922,0.989925,0.141581,0.000000,0.000000,0.000000,-1,0.060026,-0.477146,-0.032748,0.347458,0.067058,0.078777
"2019-11-26 16:54:20.174 +0000",1574787260.173766,-3.135499,-1.434472,0.534157,-0.000828,0.990722,0.135901,0.000000,0.000000,0.000000,-1,0.321469,-0.235179,-0.028233,0.369511,0.064308,0.035660
"2019-11-26 16:54:20.194 +0000",1574787260.193908,-3.134600,-1.443656,0.536548,-0.000887,0.991929,0.126797,0.000000,0.000000,0.000000,-1,0.474653,0.006346,0.000979,0.381105,0.173270,0.025675
"2019-11-26 16:54:20.214 +0000",1574787260.214051,3.141395,-1.452233,0.524472,0.000023,0.992980,0.118287,0.000000,0.000000,0.000000,-1,0.398131,0.288513,0.106313,0.129692,0.295068,0.071065
"2019-11-26 16:54:20.234 +0000",1574787260.234192,3.092715,-1.456464,0.473383,0.005574,0.993471,0.113947,0.000000,0.000000,0.000000,-1,0.143043,0.028900,0.354451,0.046642,0.222234,0.070857
"2019-11-26 16:54:20.254 +0000",1574787260.254334,2.991476,-1.454532,0.371152,0.017349,0.993249,0.114698,0.000000,0.000000,0.000000,-1,-0.083092,0.036882,0.674745,-0.020645,0.206571,-0.095238
"2019-11-26 16:54:20.274 +0000",1574787260.274475,2.853656,-1.447299,0.224098,0.034981,0.992384,0.118113,0.000000,0.000000,0.000000,-1,-0.194568,0.587899,1.010480,-0.075921,0.097360,-0.149647
"2019-11-26 16:54:20.295 +0000",1574787260.294618,2.721078,-1.432640,0.073039,0.056221,0.990472,0.125721,0.000000,0.000000,0.000000,-1,-0.388168,0.878752,1.203711,-0.237221,0.061583,-0.223280
"2019-11-26 16:54:20.315 +0000",1574787260.314758,2.630551,-1.410810,-0.032764,0.077914,0.987229,0.138952,0.000000,0.000000,0.000000,-1,-0.711138,0.607451,1.168995,-0.407535,0.070166,-0.121796
"2019-11-26 16:54:20.335 +0000",1574787260.334901,2.598700,-1.384406,-0.075595,0.095736,0.982680,0.158669,0.000000,0.000000,0.000000,-1,-1.031257,0.406817,0.929153,-0.558993,0.156029,-0.077411
"2019-11-26 16:54:20.355 +0000",1574787260.355042,2.587062,-1.356903,-0.084006,0.111768,0.977212,0.180459,0.000000,0.000000,0.000000,-1,-1.125385,-0.357977,0.732790,-0.538924,0.278197,-0.186466
"2019-11-26 16:54:20.375 +0000",1574787260.375185,2.584819,-1.334420,-0.074050,0.123753,0.972193,0.198812,0.000000,0.000000,0.000000,-1,-0.958900,-0.631856,0.395953,-0.384695,0.312253,-0.183976
"2019-11-26 16:54:20.395 +0000",1574787260.395325,2.611341,-1.319562,-0.038239,0.125730,0.968606,0.214463,0.000000,0.000000,0.000000,-1,-0.833726,-0.310122,-0.106929,-0.158278,0.248975,-0.092708
"2019-11-26 16:54:20.415 +0000",1574787260.415468,2.669324,-1.307674,0.017958,0.118320,0.965583,0.231627,0.000000,0.000000,0.000000,-1,-0.868048,0.368190,-0.398612,0.041545,0.050751,-0.037958
"2019-11-26 16:54:20.436 +0000",1574787260.435610,2.737922,-1.297509,0.068983,0.106016,0.962889,0.248206,0.000000,0.000000,0.000000,-1,-0.719167,1.108161,-0.366579,0.061494,-0.131110,-0.172518
"2019-11-26 16:54:20.456 +0000",1574787260.455752,2.797622,-1.287452,0.102806,0.094279,0.960126,0.263193,0.000000,0.000000,0.000000,-1,-0.595631,1.401388,-0.192087,0.005986,-0.043767,-0.070592
"2019-11-26 16:54:20.476 +0000",1574787260.475893,2.838847,-1.276543,0.116349,0.086469,0.957019,0.276836,0.000000,0.000000,0.000000,-1,-0.583620,1.394487,0.040861,0.003450,-0.097911,-0.033134
"2019-11-26 16:54:20.496 +0000",1574787260.496035,2.872846,-1.264492,0.124466,0.080065,0.953454,0.290713,0.000000,0.000000,0.000000,-1,-0.602622,1.257489,0.054196,-0.050570,-0.306383,-0.108230
"2019-11-26 16:54:20.516 +0000",1574787260.516177,2.899651,-1.253972,0.128399,0.074644,0.950230,0.302477,0.000000,0.000000,0.000000,-1,-0.495383,1.132208,0.078569,-0.050093,-0.388669,-0.122969
"2019-11-26 16:54:20.536 +0000",1574787260.536319,2.923802,-1.245568,0.129753,0.069041,0.947578,0.311979,0.000000,0.000000,0.000000,-1,-0.377971,1.145369,0.073184,-0.032359,-0.394897,-0.116205
"2019-11-26 16:54:20.556 +0000",1574787260.556461,2.948505,-1.242054,0.129196,0.061952,0.946449,0.316854,0.000000,0.000000,0.000000,-1,-0.088812,1.281251,0.030752,-0.065493,-0.412415,-0.104112
"2019-11-26 16:54:20.577 +0000",1574787260.576602,2.971479,-1.244627,0.128373,0.054245,0.947277,0.315793,0.000000,0.000000,0.000000,-1,0.188959,1.100903,-0.025707,-0.083451,-0.421330,-0.087044
"2019-11-26 16:54:20.597 +0000",1574787260.596745,2.987832,-1.248935,0.126771,0.048448,0.948648,0.312601,0.000000,0.000000,0.000000,-1,0.204839,0.816788,0.005102,-0.070894,-0.287539,0.016276
"2019-11-26 16:54:20.617 +0000",1574787260.616886,2.992531,-1.251748,0.120332,0.046582,0.949534,0.310185,0.000000,0.000000,0.000000,-1,0.139437,0.438927,0.102033,-0.034406,-0.237812,0.020645
"2019-11-26 16:54:20.637 +0000",1574787260.637028,2.988561,-1.253742,0.111395,0.047524,0.950158,0.308126,0.000000,0.000000,0.000000,-1,0.120405,0.164284,0.128853,-0.024164,-0.110246,0.003722
"2019-11-26 16:54:20.657 +0000",1574787260.657169,2.983837,-1.257516,0.104399,0.048416,0.951328,0.304354,0.000000,0.000000,0.000000,-1,0.231142,0.092518,0.055547,-0.074631,0.128254,0.012529
"2019-11-26 16:54:20.677 +0000",1574787260.677312,2.984996,-1.261324,0.101342,0.047498,0.952494,0.300830,0.000000,0.000000,0.000000,-1,0.170408,0.250953,0.006150,-0.071973,0.416623,0.122056
"2019-11-26 16:54:20.697 +0000",1574787260.697453,2.989462,-1.261330,0.098896,0.046153,0.952496,0.301034,0.000000,0.000000,0.000000,-1,-0.064007,0.322669,0.049555,-0.071132,0.368342,0.280131
"2019-11-26 16:54:20.718 +0000",1574787260.717594,2.992062,-1.254451,0.096168,0.046345,0.950379,0.307624,0.000000,0.000000,0.000000,-1,-0.423302,0.254548,0.107611,-0.127934,0.163596,0.366756
"2019-11-26 16:54:20.738 +0000",1574787260.737736,2.994041,-1.237271,0.093973,0.048130,0.944894,0.323819,0.000000,0.000000,0.000000,-1,-0.994124,0.145396,0.172505,-0.148411,0.389997,0.319602
"2019-11-26 16:54:20.758 +0000",1574787260.757878,2.977230,-1.220544,0.087636,0.056145,0.939286,0.338511,0.000000,0.000000,0.000000,-1,-0.666212,-0.863632,0.241773,-0.035455,0.689718,-0.232322
"2019-11-26 16:54:20.778 +0000",1574787260.778021,2.947723,-1.214593,0.087381,0.067183,0.937227,0.342186,0.000000,0.000000,0.000000,-1,-0.152114,-1.515124,-0.029965,-0.266677,0.675145,-0.353917
"2019-11-26 16:54:20.798 +0000",1574787260.798162,2.934960,-1.210837,0.099431,0.072267,0.935911,0.344743,0.000000,0.000000,0.000000,-1,-0.283242,-1.138394,-0.211653,-0.374941,-0.172736,-0.040938
"2019-11-26 16:54:20.818 +0000",1574787260.818303,2.919707,-1.204921,0.108057,0.078734,0.933811,0.348996,0.000000,0.000000,0.000000,-1,-0.324710,-1.234797,-0.040430,-0.135482,-0.190136,-0.126505
"2019-11-26 16:54:20.838 +0000",1574787260.838445,2.897477,-1.202154,0.108797,0.087096,0.932817,0.349665,0.000000,0.000000,0.000000,-1,-0.057368,-1.055689,0.029841,-0.043197,-0.103053,-0.112419
"2019-11-26 16:54:20.859 +0000",1574787260.858588,2.886824,-1.204750,0.112710,0.090205,0.933750,0.346373,0.000000,0.000000,0.000000,-1,0.156550,-0.603759,-0.168806,0.028736,-0.001813,-0.310131
"2019-11-26 16:54:20.879 +0000",1574787260.878729,2.895373,-1.215126,0.130994,0.084875,0.937413,0.337718,0.000000,0.000000,0.000000,-1,0.519539,-0.373314,-0.528617,-0.024222,-0.089537,-0.588554
"2019-11-26 16:54:20.899 +0000",1574787260.898870,2.919570,-1.236510,0.160551,0.072248,0.944645,0.320043,0.000000,0.000000,0.000000,-1,1.058262,-0.106405,-0.777772,-0.014128,-0.093015,-0.586687
"2019-11-26 16:54:20.919 +0000",1574787260.919012,2.952977,-1.263207,0.195688,0.056768,0.953066,0.297393,0.000000,0.000000,0.000000,-1,1.165492,-0.041085,-0.797652,-0.084570,0.129002,-0.225674
"2019-11-26 16:54:20.939 +0000",1574787260.939154,2.968601,-1.284116,0.219142,0.048673,0.959188,0.278550,0.000000,0.000000,0.000000,-1,0.875864,-0.464704,-0.397403,-0.110304,0.073442,-0.058439
"2019-11-26 16:54:20.959 +0000",1574787260.959296,2.949279,-1.299253,0.215459,0.051265,0.963358,0.263274,0.000000,0.000000,0.000000,-1,0.723178,-0.892322,-0.010008,-0.092922,-0.125355,-0.096110
"2019-11-26 16:54:20.979 +0000",1574787260.979438,2.914384,-1.314514,0.201061,0.057100,0.967339,0.246972,0.000000,0.000000,0.000000,-1,0.811530,-1.063260,0.008409,-0.148180,-0.397890,-0.212697
"2019-11-26 16:54:21.000 +0000",1574787260.999579,2.888796,-1.332872,0.193072,0.058948,0.971829,0.228196,0.000000,0.000000,0.000000,-1,0.936354,-0.795155,-0.175333,-0.105442,-0.351126,-0.205304
"2019-11-26 16:54:21.020 +0000",1574787261.019722,2.872804,-1.352241,0.188938,0.057580,0.976212,0.209035,0.000000,0.000000,0.000000,-1,0.935512,-0.550347,-0.196229,0.010291,-0.080286,-0.161836
"2019-11-26 16:54:21.040 +0000",1574787261.039863,2.853680,-1.371122,0.182288,0.056322,0.980131,0.190186,0.000000,0.000000,0.000000,-1,0.922017,-0.672831,-0.200553,0.051374,-0.017891,-0.155269
"2019-11-26 16:54:21.060 +0000",1574787261.060005,2.845667,-1.390222,0.188646,0.052375,0.983741,0.171790,0.000000,0.000000,0.000000,-1,0.878327,-0.693202,-0.381702,0.044716,-0.079651,-0.073442
"2019-11-26 16:54:21.080 +0000",1574787261.080146,2.865567,-1.407867,0.220036,0.044208,0.986756,0.156071,0.000000,0.000000,0.000000,-1,0.721357,-0.491086,-0.537284,0.124325,-0.083964,0.020661
"2019-11-26 16:54:21.100 +0000",1574787261.100289,2.918787,-1.422626,0.280069,0.032621,0.989043,0.143980,0.000000,0.000000,0.000000,-1,0.552153,-0.271857,-0.637766,0.175920,-0.079140,-0.011850
"2019-11-26 16:54:21.120 +0000",1574787261.120430,2.999150,-1.433348,0.365131,0.019451,0.990569,0.135630,0.000000,0.000000,0.000000,-1,0.367812,-0.167962,-0.703200,0.145038,0.028907,0.014369
"2019-11-26 16:54:21.141 +0000",1574787261.140573,3.092532,-1.441460,0.461409,0.006325,0.991648,0.128821,0.000000,0.000000,0.000000,-1,0.330561,-0.100637,-0.659934,0.134056,0.054058,-0.023455
"2019-11-26 16:54:21.161 +0000",1574787261.160715,-3.113516,-1.445894,0.543717,-0.003497,0.992210,0.124531,0.000000,0.000000,0.000000,-1,0.176387,-0.244001,-0.521541,0.181552,0.061415,0.128922
"2019-11-26 16:54:21.181 +0000",1574787261.180856,-3.083370,-1.447226,0.579293,-0.007172,0.992375,0.123048,0.000000,0.000000,0.000000,-1,0.024927,-0.240483,-0.283860,0.219102,0.093492,0.149494
"2019-11-26 16:54:21.201 +0000",1574787261.200998,-3.082402,-1.447384,0.584538,-0.007282,0.992394,0.122885,0.000000,0.000000,0.000000,-1,-0.012396,-0.180655,-0.149445,0.234577,0.074246,0.081968
"2019-11-26 16:54:21.221 +0000",1574787261.221139,-3.072573,-1.450032,0.597055,-0.008308,0.992717,0.120184,0.000000,0.000000,0.000000,-1,0.165795,-0.105452,-0.099809,0.285194,0.128123,0.033933
"2019-11-26 16:54:21.241 +0000",1574787261.241282,-3.064190,-1.456138,0.606247,-0.008847,0.993434,0.114065,0.000000,0.000000,0.000000,-1,0.338296,0.005028,0.001743,0.343396,0.197001,-0.008608
"2019-11-26 16:54:21.261 +0000",1574787261.261423,-3.075438,-1.462289,0.588110,-0.007159,0.994119,0.108058,0.000000,0.000000,0.000000,-1,0.273974,0.447208,0.161655,0.158114,0.311977,-0.010261
"2019-11-26 16:54:21.282 +0000",1574787261.281564,-3.130507,-1.466164,0.522925,-0.001158,0.994531,0.104436,0.000000,0.000000,0.000000,-1,0.138331,0.470761,0.423583,0.064680,0.244151,0.001280
"2019-11-26 16:54:21.302 +0000",1574787261.301706,3.036033,-1.465093,0.396964,0.011117,0.994419,0.104921,0.000000,0.000000,0.000000,-1,-0.080464,0.402219,0.734133,-0.042413,0.218171,-0.089766
"2019-11-26 16:54:21.322 +0000",1574787261.321849,2.887191,-1.457411,0.239770,0.028474,0.993579,0.109501,0.000000,0.000000,0.000000,-1,-0.264925,0.366591,0.952031,-0.128618,0.168931,-0.118013
"2019-11-26 16:54:21.342 +0000",1574787261.341989,2.760951,-1.441636,0.105951,0.047852,0.991670,0.119583,0.000000,0.000000,0.000000,-1,-0.566029,0.326838,1.020876,-0.234071,0.099139,-0.160413
"2019-11-26 16:54:21.362 +0000",1574787261.362131,2.678726,-1.419475,0.015396,0.067311,0.988573,0.134884,0.000000,0.000000,0.000000,-1,-0.809554,0.382554,1.021493,-0.325627,-0.003110,-0.154352
"2019-11-26 16:54:21.382 +0000",1574787261.382273,2.643296,-1.391662,-0.028225,0.085157,0.983998,0.156513,0.000000,0.000000,0.000000,-1,-1.132423,0.407013,0.908405,-0.385177,0.059417,-0.011827
"2019-11-26 16:54:21.402 +0000",1574787261.402415,2.636138,-1.362994,-0.039682,0.099897,0.978487,0.180513,0.000000,0.000000,0.000000,-1,-1.199213,0.033200,0.743665,-0.489134,0.169863,-0.190338
"2019-11-26 16:54:21.423 +0000",1574787261.422556,2.629813,-1.338653,-0.039390,0.112669,0.973175,0.200587,0.000000,0.000000,0.000000,-1,-0.993833,-0.404980,0.523090,-0.392715,0.215717,-0.203195
"2019-11-26 16:54:21.443 +0000",1574787261.442699,2.640114,-1.323885,-0.023318,0.117494,0.969672,0.214317,0.000000,0.000000,0.000000,-1,-0.659150,-0.191258,0.076503,-0.246600,0.197782,-0.171683
"2019-11-26 16:54:21.463 +0000",1574787261.462841,2.677061,-1.313676,0.011923,0.113926,0.967126,0.227349,0.000000,0.000000,0.000000,-1,-0.652018,0.292328,-0.221205,-0.057516,0.137568,-0.058037
"2019-11-26 16:54:21.483 +0000",1574787261.482983,2.733012,-1.302274,0.056871,0.105408,0.964164,0.243469,0.000000,0.000000,0.000000,-1,-0.775036,0.706200,-0.281872,0.007231,0.042996,-0.068648
"2019-11-26 16:54:21.503 +0000",1574787261.503124,2.785873,-1.290250,0.090158,0.096428,0.960904,0.259547,0.000000,0.000000,0.000000,-1,-0.706292,1.148408,-0.168904,-0.008966,-0.026315,-0.092752
"2019-11-26 16:54:21.523 +0000",1574787261.523266,2.828888,-1.278685,0.109733,0.088591,0.957638,0.274010,0.000000,0.000000,0.000000,-1,-0.606158,1.206755,-0.028272,0.026124,-0.044945,-0.074089
"2019-11-26 16:54:21.543 +0000",1574787261.543408,2.864785,-1.266850,0.122596,0.081791,0.954163,0.287895,0.000000,0.000000,0.000000,-1,-0.620899,1.149590,-0.018114,-0.000967,-0.291912,-0.111839
"2019-11-26 16:54:21.564 +0000",1574787261.563549,2.898111,-1.257425,0.134598,0.074318,0.951300,0.299175,0.000000,0.000000,0.000000,-1,-0.447716,1.063389,-0.063300,-0.033578,-0.425172,-0.127452
"2019-11-26 16:54:21.584 +0000",1574787261.583691,2.927555,-1.252271,0.141553,0.066519,0.949698,0.306020,0.000000,0.000000,0.000000,-1,-0.218731,1.155460,-0.031708,-0.032813,-0.430071,-0.081624
"2019-11-26 16:54:21.604 +0000",1574787261.603833,2.952317,-1.251372,0.140065,0.059082,0.949416,0.308412,0.000000,0.000000,0.000000,-1,0.020835,1.354126,0.058248,-0.066193,-0.371348,-0.060975
"2019-11-26 16:54:21.624 +0000",1574787261.623976,2.972442,-1.254134,0.132611,0.052422,0.950280,0.306953,0.000000,0.000000,0.000000,-1,0.187810,1.321533,0.089490,-0.086938,-0.401829,-0.011161
"2019-11-26 16:54:21.644 +0000",1574787261.644116,2.989012,-1.256563,0.127453,0.046978,0.951034,0.305497,0.000000,0.000000,0.000000,-1,0.097292,0.991131,0.063567,-0.043561,-0.341639,0.054503
"2019-11-26 16:54:21.664 +0000",1574787261.664257,2.995769,-1.255666,0.118460,0.045037,0.950756,0.306652,0.000000,0.000000,0.000000,-1,-0.052619,0.676115,0.174009,0.034613,-0.220955,-0.009640
"2019-11-26 16:54:21.684 +0000",1574787261.684399,2.990917,-1.255569,0.103947,0.046538,0.950726,0.306520,0.000000,0.000000,0.000000,-1,0.066384,0.379013,0.229230,0.034440,-0.159081,-0.079104
"2019-11-26 16:54:21.705 +0000",1574787261.704541,2.981735,-1.259196,0.087958,0.048801,0.951844,0.302674,0.000000,0.000000,0.000000,-1,0.268297,0.297075,0.209582,-0.031376,0.038241,-0.021943
"2019-11-26 16:54:21.725 +0000",1574787261.724683,2.978985,-1.264647,0.074029,0.048792,0.953501,0.297414,0.000000,0.000000,0.000000,-1,0.296411,0.619644,0.145457,-0.101283,0.347971,0.107294
"2019-11-26 16:54:21.745 +0000",1574787261.744825,2.987925,-1.266291,0.065614,0.045892,0.953995,0.296289,0.000000,0.000000,0.000000,-1,0.024939,0.873740,0.095805,-0.058008,0.340915,0.245031
"2019-11-26 16:54:21.765 +0000",1574787261.764967,3.002156,-1.262987,0.062696,0.042109,0.953000,0.300032,0.000000,0.000000,0.000000,-1,-0.208484,0.824536,0.062196,-0.006556,0.164665,0.280656
"2019-11-26 16:54:21.785 +0000",1574787261.785109,3.015415,-1.253994,0.058782,0.039204,0.950236,0.309053,0.000000,0.000000,0.000000,-1,-0.530684,0.866256,0.140296,-0.051427,0.086816,0.409757
"2019-11-26 16:54:21.805 +0000",1574787261.805250,3.022786,-1.238800,0.054523,0.038632,0.945394,0.323633,0.000000,0.000000,0.000000,-1,-0.767477,0.400060,0.159800,-0.036572,0.301894,0.156743
"2019-11-26 16:54:21.825 +0000",1574787261.825391,3.008042,-1.226573,0.043856,0.044935,0.941338,0.334462,0.000000,0.000000,0.000000,-1,-0.514125,-0.427617,0.276549,-0.031203,0.711422,-0.217687
"2019-11-26 16:54:21.846 +0000",1574787261.845534,2.986557,-1.218994,0.035956,0.053210,0.938753,0.340457,0.000000,0.000000,0.000000,-1,-0.293770,-0.713070,0.132764,-0.265140,0.775270,-0.299000
"2019-11-26 16:54:21.866 +0000",1574787261.865675,2.976149,-1.216185,0.036488,0.057185,0.937782,0.342485,0.000000,0.000000,0.000000,-1,-0.123526,-0.478848,0.017193,-0.341426,0.016950,-0.187274
"2019-11-26 16:54:21.886 +0000",1574787261.885817,2.964060,-1.211439,0.035643,0.062106,0.936123,0.346146,0.000000,0.000000,0.000000,-1,-0.285466,-0.665043,0.061881,-0.233906,-0.268043,-0.144899
"2019-11-26 16:54:21.906 +0000",1574787261.905959,2.942249,-1.206951,0.025917,0.070472,0.934535,0.348824,0.000000,0.000000,0.000000,-1,-0.137547,-0.603483,0.255854,-0.113792,-0.156195,-0.154855
"2019-11-26 16:54:21.926 +0000",1574787261.926101,2.917075,-1.206765,0.012193,0.079268,0.934469,0.347109,0.000000,0.000000,0.000000,-1,0.104678,-0.619667,0.202598,-0.073044,-0.127229,-0.365893
"2019-11-26 16:54:21.946 +0000",1574787261.946242,2.903657,-1.215855,0.008638,0.081913,0.937667,0.337744,0.000000,0.000000,0.000000,-1,0.585365,-0.450727,-0.131997,-0.075154,-0.165324,-0.596336
"2019-11-26 16:54:21.966 +0000",1574787261.966384,2.914385,-1.234826,0.023326,0.074264,0.944091,0.321213,0.000000,0.000000,0.000000,-1,0.923237,-0.023925,-0.574968,-0.128266,-0.079982,-0.484940
"2019-11-26 16:54:21.987 +0000",1574787261.986526,2.949113,-1.256691,0.056525,0.059103,0.951073,0.303261,0.000000,0.000000,0.000000,-1,0.960903,0.196553,-0.759048,-0.041892,0.147716,-0.335976
"2019-11-26 16:54:22.007 +0000",1574787262.006668,2.971318,-1.276718,0.080845,0.049117,0.957070,0.285667,0.000000,0.000000,0.000000,-1,0.864032,-0.204590,-0.434182,0.004166,0.123622,-0.131477
"2019-11-26 16:54:22.027 +0000",1574787262.026809,2.962666,-1.291094,0.081085,0.049133,0.961138,0.271663,0.000000,0.000000,0.000000,-1,0.659794,-0.470552,-0.039928,-0.018311,-0.057860,-0.070735
"2019-11-26 16:54:22.047 +0000",1574787262.046952,2.938309,-1.304935,0.067984,0.053044,0.964867,0.257331,0.000000,0.000000,0.000000,-1,0.736811,-0.631669,0.046568,-0.103063,-0.224384,-0.198035
"2019-11-26 16:54:22.067 +0000",1574787262.067093,2.913662,-1.321272,0.055807,0.055800,0.969030,0.240556,0.000000,0.000000,0.000000,-1,0.853156,-0.626793,-0.054233,-0.113738,-0.311404,-0.207444
"2019-11-26 16:54:22.087 +0000",1574787262.087235,2.894457,-1.338845,0.047079,0.056234,0.973220,0.222893,0.000000,0.000000,0.000000,-1,0.866848,-0.485897,-0.116248,-0.069419,-0.164608,-0.113579
"2019-11-26 16:54:22.107 +0000",1574787262.107377,2.874658,-1.354921,0.036561,0.056502,0.976789,0.206617,0.000000,0.000000,0.000000,-1,0.775950,-0.497191,-0.079961,-0.032287,-0.006556,-0.100385
"2019-11-26 16:54:22.128 +0000",1574787262.127519,2.850520,-1.370302,0.025467,0.057153,0.979968,0.190777,0.000000,0.000000,0.000000,-1,0.755513,-0.714984,-0.115035,-0.041132,-0.041351,-0.107112
"2019-11-26 16:54:22.148 +0000",1574787262.147660,2.836294,-1.384843,0.026255,0.055572,0.982760,0.176336,0.000000,0.000000,0.000000,-1,0.663686,-0.720924,-0.257824,-0.034821,-0.082306,-0.038136
"2019-11-26 16:54:22.168 +0000",1574787262.167802,2.842083,-1.398411,0.046255,0.050611,0.985178,0.163897,0.000000,0.000000,0.000000,-1,0.560188,-0.697580,-0.392348,0.058946,-0.102226,-0.029024
"2019-11-26 16:54:22.188 +0000",1574787262.187944,2.866671,-1.411502,0.083269,0.043061,0.987339,0.152665,0.000000,0.000000,0.000000,-1,0.532695,-0.558440,-0.519971,0.111189,-0.057253,-0.022660
"2019-11-26 16:54:22.208 +0000",1574787262.208086,2.913729,-1.422989,0.141388,0.033268,0.989096,0.143465,0.000000,0.000000,0.000000,-1,0.395865,-0.511365,-0.562847,0.078792,0.012905,0.020095
"2019-11-26 16:54:22.228 +0000",1574787262.228228,2.974544,-1.431965,0.216056,0.023010,0.990378,0.136460,0.000000,0.000000,0.000000,-1,0.317063,-0.693636,-0.590316,0.053314,0.036968,0.023025
"2019-11-26 16:54:22.248 +0000",1574787262.248368,3.021852,-1.437774,0.280922,0.015843,0.991166,0.131681,0.000000,0.000000,0.000000,-1,0.194636,-0.878704,-0.467349,0.143809,0.080370,0.095263
"2019-11-26 16:54:22.269 +0000",1574787262.268511,3.039367,-1.441309,0.317204,0.013177,0.991628,0.128453,0.000000,0.000000,0.000000,-1,0.099164,-0.923036,-0.278630,0.240363,0.106045,0.084071
"2019-11-26 16:54:22.289 +0000",1574787262.288653,3.047577,-1.444295,0.342103,0.011844,0.992009,0.125609,0.000000,0.000000,0.000000,-1,0.154581,-0.775493,-0.206850,0.326336,0.059216,0.042544
"2019-11-26 16:54:22.309 +0000",1574787262.308794,3.058420,-1.449727,0.366483,0.010034,0.992680,0.120358,0.000000,0.000000,0.000000,-1,0.289481,-0.622487,-0.167846,0.368460,0.061445,0.045581
"2019-11-26 16:54:22.329 +0000",1574787262.328935,3.060497,-1.457489,0.377210,0.009159,0.993588,0.112695,0.000000,0.000000,0.000000,-1,0.390470,-0.339909,-0.052786,0.340450,0.162756,0.016562
"2019-11-26 16:54:22.349 +0000",1574787262.349078,3.034807,-1.464490,0.352561,0.011309,0.994355,0.105503,0.000000,0.000000,0.000000,-1,0.348811,0.015215,0.156858,0.127805,0.242250,0.019986
"2019-11-26 16:54:22.369 +0000",1574787262.369220,2.957841,-1.468871,0.275030,0.018591,0.994810,0.100036,0.000000,0.000000,0.000000,-1,0.237759,-0.018139,0.434211,-0.007712,0.194553,0.027238
"2019-11-26 16:54:22.389 +0000",1574787262.389361,2.830224,-1.467498,0.148908,0.031591,0.994669,0.098157,0.000000,0.000000,0.000000,-1,0.047060,-0.137908,0.710146,-0.117864,0.187384,-0.068524
"2019-11-26 16:54:22.410 +0000",1574787262.409503,2.678145,-1.459278,-0.001133,0.049750,0.993788,0.099550,0.000000,0.000000,0.000000,-1,-0.127848,-0.114924,0.950377,-0.238838,0.143344,-0.070039
"2019-11-26 16:54:22.430 +0000",1574787262.429645,2.555949,-1.442279,-0.122273,0.070842,0.991753,0.106809,0.000000,0.000000,0.000000,-1,-0.448122,-0.102947,1.070747,-0.372677,0.119058,-0.111310
"2019-11-26 16:54:22.450 +0000",1574787262.449786,2.481246,-1.418194,-0.193318,0.093243,0.988379,0.120056,0.000000,0.000000,0.000000,-1,-0.772005,-0.272669,1.107942,-0.468153,0.090266,-0.116608
"2019-11-26 16:54:22.470 +0000",1574787262.469928,2.459243,-1.389555,-0.209730,0.113670,0.983621,0.139892,0.000000,0.000000,0.000000,-1,-1.113496,-0.341792,0.960858,-0.536004,0.119942,0.025238
"2019-11-26 16:54:22.490 +0000",1574787262.490070,2.459706,-1.360148,-0.191651,0.131784,0.977895,0.162338,0.000000,0.000000,0.000000,-1,-1.264316,-1.046701,0.719189,-0.559535,0.285549,-0.132341
"2019-11-26 16:54:22.510 +0000",1574787262.510212,2.466186,-1.337565,-0.159963,0.144501,0.972925,0.180381,0.000000,0.000000,0.000000,-1,-1.000775,-1.188322,0.323636,-0.434558,0.265739,-0.178368
"2019-11-26 16:54:22.530 +0000",1574787262.530353,2.495045,-1.325126,-0.113471,0.146516,0.969974,0.194120,0.000000,0.000000,0.000000,-1,-0.795179,-0.649593,-0.167752,-0.230976,0.164609,-0.109817
"2019-11-26 16:54:22.550 +0000",1574787262.550495,2.552543,-1.314976,-0.046220,0.140581,0.967456,0.210394,0.000000,0.000000,0.000000,-1,-0.929278,-0.309201,-0.437987,-0.033680,0.040633,-0.017128
"2019-11-26 16:54:22.571 +0000",1574787262.570637,2.621642,-1.302764,0.026477,0.131580,0.964294,0.229835,0.000000,0.000000,0.000000,-1,-1.020465,0.058885,-0.466045,-0.023961,-0.046873,-0.023630
"2019-11-26 16:54:22.591 +0000",1574787262.590779,2.682508,-1.287164,0.081546,0.124007,0.960045,0.250869,0.000000,0.000000,0.000000,-1,-1.042719,0.468654,-0.225998,0.003921,-0.009650,-0.042544
"2019-11-26 16:54:22.611 +0000",1574787262.610921,2.727209,-1.271075,0.118398,0.118877,0.955419,0.270265,0.000000,0.000000,0.000000,-1,-0.909373,0.438694,-0.131116,0.003741,-0.062015,-0.076115
"2019-11-26 16:54:22.631 +0000",1574787262.631063,2.760066,-1.256929,0.147083,0.114956,0.951147,0.286541,0.000000,0.000000,0.000000,-1,-0.788234,0.223477,-0.113275,-0.000059,-0.323261,-0.084685
"2019-11-26 16:54:22.651 +0000",1574787262.651204,2.787637,-1.245204,0.170099,0.110870,0.947461,0.300041,0.000000,0.000000,0.000000,-1,-0.623353,0.319906,-0.125663,-0.022051,-0.355190,-0.076763
"2019-11-26 16:54:22.671 +0000",1574787262.671345,2.812964,-1.236066,0.186649,0.106027,0.944499,0.310935,0.000000,0.000000,0.000000,-1,-0.491767,0.521944,-0.091829,-0.070781,-0.333032,0.030676
"2019-11-26 16:54:22.691 +0000",1574787262.691488,2.839708,-1.229307,0.201837,0.099570,0.942257,0.319747,0.000000,0.000000,0.000000,-1,-0.355815,0.641415,-0.144979,-0.104576,-0.359781,0.029004
"2019-11-26 16:54:22.712 +0000",1574787262.711629,2.868150,-1.227895,0.218607,0.090796,0.941783,0.323730,0.000000,0.000000,0.000000,-1,-0.073552,0.627665,-0.296495,-0.040962,-0.436563,-0.038196
"2019-11-26 16:54:22.732 +0000",1574787262.731772,2.893966,-1.232325,0.235360,0.081386,0.943263,0.321918,0.000000,0.000000,0.000000,-1,0.219181,0.471742,-0.311831,0.036792,-0.428995,-0.054145
"2019-11-26 16:54:22.752 +0000",1574787262.751913,2.907204,-1.242654,0.241442,0.074850,0.946643,0.313473,0.000000,0.000000,0.000000,-1,0.564883,0.331348,-0.181700,0.061288,-0.336534,-0.063934
"2019-11-26 16:54:22.772 +0000",1574787262.772055,2.907648,-1.256422,0.237864,0.071683,0.950990,0.300799,0.000000,0.000000,0.000000,-1,0.689578,0.154333,-0.086416,0.016481,-0.172760,0.123819
"2019-11-26 16:54:22.792 +0000",1574787262.792197,2.910036,-1.265967,0.237721,0.068878,0.953898,0.292120,0.000000,0.000000,0.000000,-1,0.355315,0.130673,-0.118243,-0.090745,0.083441,0.338187
"2019-11-26 16:54:22.812 +0000",1574787262.812339,2.918171,-1.267712,0.243275,0.066130,0.954421,0.291047,0.000000,0.000000,0.000000,-1,-0.007411,0.146035,-0.090172,-0.106445,0.423648,0.305431
"2019-11-26 16:54:22.832 +0000",1574787262.832480,2.927823,-1.265487,0.246498,0.063768,0.953754,0.293747,0.000000,0.000000,0.000000,-1,-0.163030,0.394320,-0.006405,-0.082141,0.400938,0.353756
"2019-11-26 16:54:22.853 +0000",1574787262.852622,2.946146,-1.261006,0.252021,0.059205,0.952397,0.299056,0.000000,0.000000,0.000000,-1,-0.288671,0.729502,-0.050159,-0.144487,0.127728,0.382749
"2019-11-26 16:54:22.873 +0000",1574787262.872765,2.971112,-1.249164,0.264069,0.053631,0.948721,0.311533,0.000000,0.000000,0.000000,-1,-0.762616,0.583046,-0.096143,-0.113248,0.311367,0.343553
"2019-11-26 16:54:22.893 +0000",1574787262.892905,2.972787,-1.236202,0.267899,0.055171,0.944543,0.323719,0.000000,0.000000,0.000000,-1,-0.560440,-0.347659,0.128889,-0.007717,0.618950,-0.218652
"2019-11-26 16:54:22.913 +0000",1574787262.913047,2.952961,-1.231328,0.265535,0.062440,0.942932,0.327080,0.000000,0.000000,0.000000,-1,-0.159735,-0.987823,0.031701,-0.404070,0.698671,-0.293637
"2019-11-26 16:54:22.933 +0000",1574787262.933189,2.935098,-1.231344,0.264796,0.068269,0.942937,0.325897,0.000000,0.000000,0.000000,-1,0.000534,-0.806808,0.047588,-0.427325,-0.122166,-0.184575
"2019-11-26 16:54:22.953 +0000",1574787262.953332,2.904350,-1.231611,0.253008,0.078197,0.943026,0.323400,0.000000,0.000000,0.000000,-1,0.087414,-1.051993,0.242172,-0.287945,-0.280122,-0.113413
"2019-11-26 16:54:22.973 +0000",1574787262.973472,2.861299,-1.234146,0.233852,0.091381,0.943866,0.317436,0.000000,0.000000,0.000000,-1,0.194488,-1.271692,0.284412,-0.233518,-0.262454,-0.100979
"2019-11-26 16:54:22.994 +0000",1574787262.993614,2.824142,-1.238847,0.220525,0.101724,0.945409,0.309604,0.000000,0.000000,0.000000,-1,0.313900,-1.178447,0.070965,-0.079768,-0.029468,-0.212074
"2019-11-26 16:54:23.014 +0000",1574787263.013757,2.811934,-1.249399,0.227179,0.102261,0.948795,0.298883,0.000000,0.000000,0.000000,-1,0.479422,-0.827199,-0.356983,-0.034788,0.058302,-0.391233
"2019-11-26 16:54:23.034 +0000",1574787263.033897,2.820183,-1.268165,0.251114,0.094150,0.954556,0.282771,0.000000,0.000000,0.000000,-1,0.873274,-0.695574,-0.716646,-0.089375,0.066899,-0.571898
"2019-11-26 16:54:23.054 +0000",1574787263.054039,2.836601,-1.293849,0.278711,0.082104,0.961894,0.260803,0.000000,0.000000,0.000000,-1,1.119283,-0.380809,-0.752516,-0.049391,0.028402,-0.376254
"2019-11-26 16:54:23.074 +0000",1574787263.074182,2.849701,-1.317745,0.299141,0.072044,0.968153,0.239769,0.000000,0.000000,0.000000,-1,1.014337,-0.347078,-0.540690,-0.089837,0.104327,-0.051524
"2019-11-26 16:54:23.094 +0000",1574787263.094323,2.840138,-1.336173,0.301815,0.069025,0.972602,0.221994,0.000000,0.000000,0.000000,-1,0.783930,-0.723996,-0.176222,-0.118296,-0.064108,-0.011959
"2019-11-26 16:54:23.114 +0000",1574787263.114465,2.802937,-1.349990,0.283135,0.072762,0.975721,0.206578,0.000000,0.000000,0.000000,-1,0.721270,-1.017037,0.015104,-0.099069,-0.248074,-0.113715
"2019-11-26 16:54:23.135 +0000",1574787263.134606,2.761859,-1.365432,0.264298,0.075590,0.978987,0.189398,0.000000,0.000000,0.000000,-1,0.796660,-1.141533,-0.114007,-0.170775,-0.394376,-0.172371
"2019-11-26 16:54:23.155 +0000",1574787263.154749,2.731260,-1.382740,0.251861,0.074577,0.982369,0.171432,0.000000,0.000000,0.000000,-1,0.845442,-0.808538,-0.238092,-0.101022,-0.223747,-0.123597
"2019-11-26 16:54:23.175 +0000",1574787263.174889,2.709822,-1.399765,0.243325,0.071225,0.985410,0.154579,0.000000,0.000000,0.000000,-1,0.779208,-0.630742,-0.250675,-0.028471,0.002491,-0.092691
"2019-11-26 16:54:23.195 +0000",1574787263.195032,2.682136,-1.416268,0.229905,0.068256,0.988084,0.137954,0.000000,0.000000,0.000000,-1,0.790907,-0.778097,-0.269626,-0.015538,-0.045990,-0.111115
"2019-11-26 16:54:23.215 +0000",1574787263.215173,2.673873,-1.433423,0.237737,0.061741,0.990579,0.122234,0.000000,0.000000,0.000000,-1,0.715525,-0.774475,-0.461682,-0.005452,-0.128731,-0.020688
"2019-11-26 16:54:23.235 +0000",1574787263.235316,2.700871,-1.449849,0.278009,0.051470,0.992695,0.109124,0.000000,0.000000,0.000000,-1,0.579184,-0.596220,-0.628878,0.097394,-0.108325,0.053625
"2019-11-26 16:54:23.255 +0000",1574787263.255457,2.765003,-1.463981,0.350773,0.039207,0.994301,0.099142,0.000000,0.000000,0.000000,-1,0.466974,-0.333325,-0.671278,0.147942,-0.064460,0.053094
"2019-11-26 16:54:23.276 +0000",1574787263.275599,2.861399,-1.475087,0.452865,0.026428,0.995423,0.091839,0.000000,0.000000,0.000000,-1,0.323006,-0.232082,-0.658591,0.101929,0.007400,0.051487
"2019-11-26 16:54:23.296 +0000",1574787263.295741,2.975086,-1.483473,0.572168,0.014455,0.996190,0.086008,0.000000,0.000000,0.000000,-1,0.255196,-0.304865,-0.579527,0.073268,0.043347,0.098241
"2019-11-26 16:54:23.316 +0000",1574787263.315881,3.060427,-1.486049,0.665644,0.006863,0.996411,0.084367,0.000000,0.000000,0.000000,-1,0.077020,-0.404417,-0.415820,0.098575,0.095310,0.184264
"2019-11-26 16:54:23.336 +0000",1574787263.336024,3.096679,-1.485163,0.712008,0.003840,0.996336,0.085442,0.000000,0.000000,0.000000,-1,-0.030737,-0.515668,-0.239207,0.163686,0.118854,0.180717
"2019-11-26 16:54:23.356 +0000",1574787263.356165,3.107168,-1.484067,0.733690,0.002981,0.996241,0.086568,0.000000,0.000000,0.000000,-1,0.004604,-0.533959,-0.139275,0.200571,0.122122,0.152415
"2019-11-26 16:54:23.376 +0000",1574787263.376307,3.112663,-1.485502,0.749432,0.002464,0.996365,0.085156,0.000000,0.000000,0.000000,-1,0.146335,-0.494355,-0.094581,0.235573,0.138662,0.108188
"2019-11-26 16:54:23.396 +0000",1574787263.396449,3.096110,-1.489253,0.739678,0.003703,0.996677,0.081368,0.000000,0.000000,0.000000,-1,0.186647,-0.249751,0.089274,0.269658,0.254163,0.073524
"2019-11-26 16:54:23.417 +0000",1574787263.416591,3.025138,-1.491384,0.667374,0.009217,0.996848,0.078792,0.000000,0.000000,0.000000,-1,0.107637,0.119269,0.342518,0.080199,0.277261,0.089344
"2019-11-26 16:54:23.437 +0000",1574787263.436733,2.883090,-1.488693,0.526019,0.020966,0.996631,0.079289,0.000000,0.000000,0.000000,-1,-0.075274,-0.127184,0.665846,0.043594,0.226667,0.044429
"2019-11-26 16:54:23.457 +0000",1574787263.456875,2.710315,-1.477551,0.354211,0.038923,0.995656,0.084584,0.000000,0.000000,0.000000,-1,-0.338825,-0.030437,0.964564,-0.012587,0.221051,-0.040608
"2019-11-26 16:54:23.477 +0000",1574787263.477016,2.572186,-1.458125,0.209323,0.060616,0.993659,0.094693,0.000000,0.000000,0.000000,-1,-0.547605,0.399504,1.149999,-0.134073,0.125376,-0.130369
"2019-11-26 16:54:23.497 +0000",1574787263.497159,2.496409,-1.433489,0.123127,0.082311,0.990588,0.109364,0.000000,0.000000,0.000000,-1,-0.752064,0.490953,1.120589,-0.249838,0.023832,-0.156591
"2019-11-26 16:54:23.517 +0000",1574787263.517300,2.488266,-1.406098,0.101970,0.099658,0.986468,0.130192,0.000000,0.000000,0.000000,-1,-1.069207,0.734980,0.881428,-0.413548,0.035842,0.020182
"2019-11-26 16:54:23.537 +0000",1574787263.537441,2.515123,-1.377561,0.120099,0.112588,0.981388,0.155569,0.000000,0.000000,0.000000,-1,-1.263646,0.298289,0.656374,-0.558009,0.245099,-0.123924
"2019-11-26 16:54:23.558 +0000",1574787263.557583,2.532548,-1.354230,0.143823,0.122928,0.976641,0.176242,0.000000,0.000000,0.000000,-1,-1.009773,-0.466631,0.409417,-0.455923,0.318907,-0.209310
"2019-11-26 16:54:23.578 +0000",1574787263.577725,2.552736,-1.339393,0.175266,0.127380,0.973346,0.190718,0.000000,0.000000,0.000000,-1,-0.745527,-0.454379,0.028743,-0.197756,0.297728,-0.099915
"2019-11-26 16:54:23.598 +0000",1574787263.597867,2.610186,-1.327013,0.234380,0.122317,0.970432,0.208090,0.000000,0.000000,0.000000,-1,-0.978876,0.131595,-0.339680,0.033687,0.182569,0.017616
"2019-11-26 16:54:23.618 +0000",1574787263.618009,2.695072,-1.313120,0.306424,0.110045,0.966985,0.229849,0.000000,0.000000,0.000000,-1,-1.010551,0.975503,-0.465847,0.064071,-0.007282,-0.068674
"2019-11-26 16:54:23.638 +0000",1574787263.638149,2.773076,-1.297557,0.357486,0.097210,0.962902,0.251736,0.000000,0.000000,0.000000,-1,-0.963080,1.557758,-0.235270,0.019686,-0.073603,-0.108475
"2019-11-26 16:54:23.658 +0000",1574787263.658291,2.831031,-1.281225,0.383643,0.087260,0.958366,0.271883,0.000000,0.000000,0.000000,-1,-0.884331,1.617566,-0.003819,-0.043576,-0.089057,-0.133047
"2019-11-26 16:54:23.678 +0000",1574787263.678434,2.869179,-1.265423,0.392945,0.080892,0.953735,0.289563,0.000000,0.000000,0.000000,-1,-0.773420,1.394281,0.102588,-0.102011,-0.329466,-0.156953
"2019-11-26 16:54:23.699 +0000",1574787263.698575,2.902052,-1.252506,0.398935,0.074248,0.949772,0.304008,0.000000,0.000000,0.000000,-1,-0.645039,1.339058,0.074510,-0.088821,-0.526675,-0.187740
"2019-11-26 16:54:23.719 +0000",1574787263.718718,2.930950,-1.242640,0.400908,0.067389,0.946638,0.315176,0.000000,0.000000,0.000000,-1,-0.426667,1.362767,0.085193,-0.041832,-0.499386,-0.144709
"2019-11-26 16:54:23.739 +0000",1574787263.738859,2.955753,-1.237378,0.398474,0.060471,0.944929,0.321641,0.000000,0.000000,0.000000,-1,-0.241531,1.313481,0.099831,-0.078081,-0.453747,-0.114247
"2019-11-26 16:54:23.759 +0000",1574787263.759001,2.973782,-1.235122,0.392688,0.055019,0.944188,0.324780,0.000000,0.000000,0.000000,-1,-0.048742,1.107654,0.109597,-0.098431,-0.367268,-0.067796
"2019-11-26 16:54:23.779 +0000",1574787263.779143,2.988460,-1.236000,0.387592,0.050120,0.944477,0.324733,0.000000,0.000000,0.000000,-1,0.042186,0.924435,0.066748,-0.076106,-0.303256,0.005982
"2019-11-26 16:54:23.799 +0000",1574787263.799283,2.996333,-1.237065,0.381136,0.047416,0.944827,0.324122,0.000000,0.000000,0.000000,-1,0.072434,0.603660,0.107123,-0.045921,-0.226991,-0.023880
"2019-11-26 16:54:23.819 +0000",1574787263.819425,2.992963,-1.240294,0.370923,0.048056,0.945879,0.320941,0.000000,0.000000,0.000000,-1,0.190888,0.216968,0.151741,-0.052436,-0.115327,-0.065330
"2019-11-26 16:54:23.840 +0000",1574787263.839568,2.981247,-1.244760,0.357188,0.051138,0.947319,0.316183,0.000000,0.000000,0.000000,-1,0.264468,0.034325,0.184839,-0.094672,0.124551,0.061331
"2019-11-26 16:54:23.860 +0000",1574787263.859710,2.975833,-1.249411,0.348158,0.052121,0.948799,0.311551,0.000000,0.000000,0.000000,-1,0.193676,0.222090,0.065970,-0.180509,0.448678,0.206541
"2019-11-26 16:54:23.880 +0000",1574787263.879851,2.989211,-1.248101,0.350102,0.048137,0.948384,0.313449,0.000000,0.000000,0.000000,-1,-0.174005,0.652146,-0.033593,-0.115017,0.487301,0.407875
"2019-11-26 16:54:23.900 +0000",1574787263.899992,3.009226,-1.240143,0.356605,0.042849,0.945831,0.321822,0.000000,0.000000,0.000000,-1,-0.516174,0.701084,-0.049469,-0.050387,0.141955,0.451917
"2019-11-26 16:54:23.920 +0000",1574787263.920135,3.029693,-1.224372,0.361369,0.037915,0.940593,0.337414,0.000000,0.000000,0.000000,-1,-0.894140,0.806985,0.034400,-0.076505,-0.001367,0.494018
"2019-11-26 16:54:23.940 +0000",1574787263.940276,3.040246,-1.208205,0.362738,0.035886,0.934981,0.352878,0.000000,0.000000,0.000000,-1,-0.731968,0.302824,0.079183,0.032153,0.254337,0.043206
"2019-11-26 16:54:23.960 +0000",1574787263.960417,3.028490,-1.205221,0.358154,0.040347,0.933918,0.355202,0.000000,0.000000,0.000000,-1,0.002175,-0.602797,0.080568,-0.032092,0.495344,-0.225339
"2019-11-26 16:54:23.981 +0000",1574787263.980561,3.013374,-1.208502,0.357785,0.045319,0.935086,0.351512,0.000000,0.000000,0.000000,-1,0.184775,-0.693176,-0.045260,-0.315645,0.300069,-0.205718
"2019-11-26 16:54:24.001 +0000",1574787264.000702,3.005768,-1.212717,0.361632,0.047457,0.936572,0.347249,0.000000,0.000000,0.000000,-1,0.178734,-0.553869,-0.076014,-0.316348,0.149550,-0.159234
"2019-11-26 16:54:24.021 +0000",1574787264.020843,2.995785,-1.215203,0.365833,0.050583,0.937440,0.344453,0.000000,0.000000,0.000000,-1,0.022031,-0.724002,-0.083890,-0.257828,0.002793,-0.124975
"2019-11-26 16:54:24.041 +0000",1574787264.040985,2.984322,-1.216572,0.370080,0.054327,0.937916,0.342582,0.000000,0.000000,0.000000,-1,0.083410,-0.791111,-0.099508,-0.163702,-0.035433,-0.278072
"2019-11-26 16:54:24.061 +0000",1574787264.061127,2.976679,-1.223551,0.378372,0.055868,0.940314,0.335692,0.000000,0.000000,0.000000,-1,0.357109,-0.757418,-0.230913,-0.037237,-0.163167,-0.478672
"2019-11-26 16:54:24.081 +0000",1574787264.081268,2.976250,-1.239591,0.394998,0.053522,0.945651,0.320748,0.000000,0.000000,0.000000,-1,0.881260,-0.801739,-0.459222,0.030522,-0.291704,-0.627713
"2019-11-26 16:54:24.101 +0000",1574787264.101411,2.990999,-1.266434,0.423816,0.044960,0.954038,0.296294,0.000000,0.000000,0.000000,-1,1.294348,-0.571475,-0.705061,-0.031274,-0.137218,-0.465380
"2019-11-26 16:54:24.122 +0000",1574787264.121552,3.022426,-1.294568,0.460231,0.032423,0.962091,0.270794,0.000000,0.000000,0.000000,-1,1.281517,-0.050434,-0.673180,-0.070693,0.137993,-0.185120
"2019-11-26 16:54:24.142 +0000",1574787264.141695,3.038547,-1.317876,0.481156,0.025740,0.968186,0.248905,0.000000,0.000000,0.000000,-1,1.021203,-0.316078,-0.268028,-0.036498,0.094391,-0.054527
"2019-11-26 16:54:24.162 +0000",1574787264.161835,3.020360,-1.336364,0.474170,0.028092,0.972646,0.230586,0.000000,0.000000,0.000000,-1,0.904931,-0.636958,0.042415,-0.028230,-0.111836,-0.108549
"2019-11-26 16:54:24.182 +0000",1574787264.181978,2.992203,-1.354828,0.461037,0.031894,0.976769,0.211906,0.000000,0.000000,0.000000,-1,0.913461,-0.791282,0.017724,-0.122440,-0.291588,-0.148570
"2019-11-26 16:54:24.202 +0000",1574787264.202120,2.971793,-1.374171,0.453303,0.033013,0.980731,0.192553,0.000000,0.000000,0.000000,-1,0.978867,-0.568159,-0.110017,-0.066598,-0.309573,-0.152913
"2019-11-26 16:54:24.222 +0000",1574787264.222260,2.966607,-1.395216,0.455646,0.030411,0.984625,0.172014,0.000000,0.000000,0.000000,-1,1.019804,-0.321077,-0.205495,-0.012879,-0.161963,-0.103932
"2019-11-26 16:54:24.242 +0000",1574787264.242403,2.958721,-1.416097,0.454732,0.028021,0.988058,0.151515,0.000000,0.000000,0.000000,-1,1.024265,-0.381000,-0.166287,0.051324,-0.032736,-0.101240
"2019-11-26 16:54:24.263 +0000",1574787264.262544,2.962599,-1.437237,0.467761,0.023708,0.991094,0.131036,0.000000,0.000000,0.000000,-1,0.996295,-0.460685,-0.311126,0.010349,-0.111013,-0.034984
"2019-11-26 16:54:24.283 +0000",1574787264.282686,3.006743,-1.456829,0.519266,0.015289,0.993513,0.112690,0.000000,0.000000,0.000000,-1,0.856855,-0.321988,-0.486158,0.071259,-0.138212,0.061442
"2019-11-26 16:54:24.303 +0000",1574787264.302828,3.104497,-1.472191,0.622574,0.003651,0.995142,0.098380,0.000000,0.000000,0.000000,-1,0.683583,-0.174203,-0.673768,0.092433,-0.121241,0.061545
"2019-11-26 16:54:24.323 +0000",1574787264.322969,-3.037889,-1.482256,0.767384,-0.009154,0.996083,0.087951,0.000000,0.000000,0.000000,-1,0.463086,-0.178855,-0.632613,0.088652,0.026439,0.002700
"2019-11-26 16:54:24.343 +0000",1574787264.343111,-2.882806,-1.488007,0.928016,-0.021162,0.996575,0.079942,0.000000,0.000000,0.000000,-1,0.377760,-0.278427,-0.589692,-0.015870,0.117652,-0.034641
"2019-11-26 16:54:24.363 +0000",1574787264.363253,-2.765595,-1.489058,1.055854,-0.029981,0.996661,0.075944,0.000000,0.000000,0.000000,-1,0.165644,-0.572090,-0.447946,0.077894,0.131451,0.209302
"2019-11-26 16:54:24.383 +0000",1574787264.383395,-2.731704,-1.488028,1.105160,-0.032947,0.996577,0.075828,0.000000,0.000000,0.000000,-1,-0.006248,-0.780141,-0.119250,0.243626,0.122747,0.191322
"2019-11-26 16:54:24.404 +0000",1574787264.403537,-2.739782,-1.488332,1.110405,-0.032215,0.996602,0.075813,0.000000,0.000000,0.000000,-1,0.045116,-0.619950,0.005773,0.298497,0.110560,0.131018
"2019-11-26 16:54:24.424 +0000",1574787264.423677,-2.719463,-1.491885,1.140458,-0.032298,0.996888,0.071912,0.000000,0.000000,0.000000,-1,0.251719,-0.454409,-0.037275,0.368693,0.177718,0.060670
"2019-11-26 16:54:24.444 +0000",1574787264.443820,-2.694319,-1.498320,1.168288,-0.031320,0.997375,0.065291,0.000000,0.000000,0.000000,-1,0.336469,0.007469,0.075024,0.358103,0.363083,0.018996
"2019-11-26 16:54:24.464 +0000",1574787264.463962,-2.711880,-1.505683,1.144751,-0.027109,0.997881,0.059155,0.000000,0.000000,0.000000,-1,0.259140,0.368057,0.299700,0.231608,0.403104,0.074465
"2019-11-26 16:54:24.484 +0000",1574787264.484103,-2.851562,-1.511312,0.995662,-0.017002,0.998231,0.056969,0.000000,0.000000,0.000000,-1,0.036292,0.480271,0.613476,0.105091,0.363828,0.043127
"2019-11-26 16:54:24.504 +0000",1574787264.504246,-3.113167,-1.509929,0.724517,-0.001729,0.998148,0.060808,0.000000,0.000000,0.000000,-1,-0.287776,0.427952,0.851812,-0.057139,0.223286,-0.002644
"2019-11-26 16:54:24.524 +0000",1574787264.524387,2.909440,-1.497755,0.455082,0.016790,0.997334,0.071020,0.000000,0.000000,0.000000,-1,-0.573456,0.409523,0.971921,-0.161078,0.113718,-0.059517
"2019-11-26 16:54:24.545 +0000",1574787264.544528,2.757776,-1.477373,0.291961,0.034933,0.995639,0.086501,0.000000,0.000000,0.000000,-1,-0.830602,0.603628,0.946624,-0.235816,-0.029515,-0.088732
"2019-11-26 16:54:24.565 +0000",1574787264.564671,2.708174,-1.450639,0.226205,0.050343,0.992790,0.108786,0.000000,0.000000,0.000000,-1,-1.156879,0.895090,0.784065,-0.309682,-0.027947,0.053350
"2019-11-26 16:54:24.585 +0000",1574787264.584812,2.718159,-1.422531,0.217773,0.060698,0.989029,0.134676,0.000000,0.000000,0.000000,-1,-1.255549,0.847253,0.587818,-0.471390,0.128890,-0.120916
"2019-11-26 16:54:24.605 +0000",1574787264.604954,2.737178,-1.396804,0.231487,0.068118,0.984901,0.159152,0.000000,0.000000,0.000000,-1,-1.192326,0.065021,0.362847,-0.423267,0.134894,-0.216544
"2019-11-26 16:54:24.625 +0000",1574787264.625095,2.771345,-1.377918,0.267475,0.069361,0.981457,0.178697,0.000000,0.000000,0.000000,-1,-0.941970,-0.046554,-0.051876,-0.348476,0.073397,-0.149237
"2019-11-26 16:54:24.645 +0000",1574787264.645237,2.853306,-1.357697,0.339155,0.060129,0.977380,0.202762,0.000000,0.000000,0.000000,-1,-1.324213,0.814114,-0.418716,-0.167216,0.059941,0.026282
"2019-11-26 16:54:24.665 +0000",1574787264.665379,2.923323,-1.334161,0.390772,0.050764,0.972132,0.228871,0.000000,0.000000,0.000000,-1,-1.211517,1.062801,-0.172335,0.035020,0.499088,-0.066951
"2019-11-26 16:54:24.686 +0000",1574787264.685519,2.955137,-1.310233,0.395155,0.047758,0.966245,0.253161,0.000000,0.000000,0.000000,-1,-1.181883,1.480051,0.351787,0.130098,0.181123,-0.134973
"2019-11-26 16:54:24.706 +0000",1574787264.705662,2.965155,-1.287014,0.374533,0.049145,0.960003,0.275642,0.000000,0.000000,0.000000,-1,-1.061103,1.458404,0.509055,0.028125,-0.213377,-0.230499
"2019-11-26 16:54:24.726 +0000",1574787264.725803,2.976271,-1.267376,0.357265,0.049171,0.954320,0.294713,0.000000,0.000000,0.000000,-1,-0.868618,1.344969,0.359728,0.025657,-0.482444,-0.241086
"2019-11-26 16:54:24.746 +0000",1574787264.745945,2.994135,-1.252892,0.349024,0.045925,0.949892,0.309186,0.000000,0.000000,0.000000,-1,-0.658252,1.269411,0.233815,-0.034131,-0.504093,-0.156987
"2019-11-26 16:54:24.766 +0000",1574787264.766088,3.011882,-1.242209,0.339292,0.041741,0.946499,0.319996,0.000000,0.000000,0.000000,-1,-0.447659,1.371839,0.227409,-0.080118,-0.502470,-0.123609
"2019-11-26 16:54:24.786 +0000",1574787264.786229,3.028491,-1.236994,0.328009,0.036977,0.944803,0.325545,0.000000,0.000000,0.000000,-1,-0.191737,1.329766,0.224009,-0.155463,-0.533260,-0.094261
"2019-11-26 16:54:24.806 +0000",1574787264.806370,3.042332,-1.236122,0.316926,0.032550,0.944517,0.326846,0.000000,0.000000,0.000000,-1,0.023173,1.161726,0.168934,-0.152790,-0.543182,0.007908
"2019-11-26 16:54:24.827 +0000",1574787264.826512,3.054960,-1.238399,0.309877,0.028234,0.945263,0.325087,0.000000,0.000000,0.000000,-1,0.130323,0.893020,0.095700,-0.102728,-0.374448,0.041314
"2019-11-26 16:54:24.847 +0000",1574787264.846655,3.060591,-1.241937,0.302139,0.026132,0.946411,0.321905,0.000000,0.000000,0.000000,-1,0.204203,0.558271,0.121781,-0.015314,-0.280901,-0.011397
"2019-11-26 16:54:24.867 +0000",1574787264.866796,3.055407,-1.245958,0.290610,0.027473,0.947702,0.317972,0.000000,0.000000,0.000000,-1,0.190351,0.190395,0.189756,-0.052238,-0.083278,0.033277
"2019-11-26 16:54:24.887 +0000",1574787264.886937,3.040704,-1.248401,0.275287,0.031911,0.948479,0.315229,0.000000,0.000000,0.000000,-1,0.135474,-0.060360,0.246453,-0.130835,0.284139,0.085855
"2019-11-26 16:54:24.907 +0000",1574787264.907079,3.030552,-1.250724,0.262033,0.034865,0.949213,0.312697,0.000000,0.000000,0.000000,-1,0.082623,0.233269,0.183167,-0.165283,0.703403,0.258201
"2019-11-26 16:54:24.927 +0000",1574787264.927221,3.033607,-1.245820,0.254122,0.034411,0.947658,0.317428,0.000000,0.000000,0.000000,-1,-0.331899,0.609001,0.131299,-0.068805,0.370364,0.488365
"2019-11-26 16:54:24.947 +0000",1574787264.947363,3.053901,-1.232138,0.255772,0.029096,0.943201,0.330946,0.000000,0.000000,0.000000,-1,-0.832301,1.052135,0.031013,-0.128874,0.130039,0.647866
"2019-11-26 16:54:24.968 +0000",1574787264.967504,3.073820,-1.210017,0.261089,0.023905,0.935622,0.352193,0.000000,0.000000,0.000000,-1,-1.113551,0.511659,0.003631,0.079976,0.250854,0.199296
"2019-11-26 16:54:24.988 +0000",1574787264.987647,3.052050,-1.199363,0.249991,0.032456,0.931808,0.361498,0.000000,0.000000,0.000000,-1,-0.326045,-0.900288,0.335651,0.068846,0.655959,-0.457608
"2019-11-26 16:54:25.008 +0000",1574787265.007789,3.021103,-1.200916,0.236499,0.043452,0.932371,0.358884,0.000000,0.000000,0.000000,-1,0.202782,-0.859316,0.166121,-0.400417,0.379227,-0.349448
"2019-11-26 16:54:25.028 +0000",1574787265.027929,3.004044,-1.206233,0.232701,0.048887,0.934280,0.353174,0.000000,0.000000,0.000000,-1,0.259391,-0.641829,0.020028,-0.384368,0.061812,-0.119679
"2019-11-26 16:54:25.048 +0000",1574787265.048071,2.984283,-1.208478,0.230457,0.055528,0.935078,0.350067,0.000000,0.000000,0.000000,-1,0.046290,-0.948816,0.007158,-0.308764,-0.086767,-0.070262
"2019-11-26 16:54:25.068 +0000",1574787265.068214,2.969757,-1.209444,0.233811,0.060452,0.935420,0.348332,0.000000,0.000000,0.000000,-1,0.029619,-0.846428,-0.086744,-0.186155,-0.083371,-0.186493
"2019-11-26 16:54:25.088 +0000",1574787265.088355,2.965854,-1.214769,0.246662,0.060940,0.937289,0.343185,0.000000,0.000000,0.000000,-1,0.304759,-0.778016,-0.343886,-0.021161,-0.150640,-0.498667
"2019-11-26 16:54:25.108 +0000",1574787265.108496,2.969945,-1.232965,0.269623,0.056612,0.943476,0.326571,0.000000,0.000000,0.000000,-1,0.991362,-0.911966,-0.585005,0.016171,-0.278073,-0.729673
"2019-11-26 16:54:25.129 +0000",1574787265.128639,2.989985,-1.263513,0.308168,0.045681,0.953159,0.299001,0.000000,0.000000,0.000000,-1,1.505375,-0.722516,-0.934918,-0.127576,-0.040366,-0.536788
"2019-11-26 16:54:25.149 +0000",1574787265.148780,3.026269,-1.295503,0.353879,0.031279,0.962346,0.270024,0.000000,0.000000,0.000000,-1,1.419181,-0.303264,-0.777210,-0.116637,0.280526,-0.126829
"2019-11-26 16:54:25.169 +0000",1574787265.168921,3.036968,-1.319485,0.376611,0.025970,0.968587,0.247315,0.000000,0.000000,0.000000,-1,1.047941,-0.679546,-0.284523,-0.069244,0.047874,0.033225
"2019-11-26 16:54:25.189 +0000",1574787265.189064,3.015314,-1.336938,0.376236,0.029185,0.972780,0.229888,0.000000,0.000000,0.000000,-1,0.784628,-1.185822,-0.051539,-0.029720,-0.162251,-0.069023
"2019-11-26 16:54:25.209 +0000",1574787265.209206,2.983524,-1.352293,0.370369,0.034122,0.976223,0.214067,0.000000,0.000000,0.000000,-1,0.781160,-1.310622,-0.053567,-0.130009,-0.362808,-0.187861
"2019-11-26 16:54:25.229 +0000",1574787265.229347,2.970671,-1.371343,0.378097,0.033701,0.980175,0.195247,0.000000,0.000000,0.000000,-1,0.950943,-0.866553,-0.298136,-0.151896,-0.346878,-0.213367
"2019-11-26 16:54:25.249 +0000",1574787265.249489,2.984913,-1.393551,0.404700,0.027513,0.984333,0.174160,0.000000,0.000000,0.000000,-1,1.071885,-0.534198,-0.418796,-0.047640,-0.053825,-0.173954
"2019-11-26 16:54:25.270 +0000",1574787265.269631,2.984472,-1.415556,0.421387,0.024194,0.987974,0.152713,0.000000,0.000000,0.000000,-1,1.023047,-0.939478,-0.257101,0.071127,0.024549,-0.095256
"2019-11-26 16:54:25.290 +0000",1574787265.289772,2.997462,-1.435123,0.454200,0.019428,0.990811,0.133857,0.000000,0.000000,0.000000,-1,0.882967,-0.947075,-0.430497,0.034298,-0.093781,0.013155
"2019-11-26 16:54:25.310 +0000",1574787265.309915,3.064948,-1.451298,0.537952,0.009128,0.992869,0.118865,0.000000,0.000000,0.000000,-1,0.666619,-0.720132,-0.635251,0.117779,-0.066100,0.093011
"2019-11-26 16:54:25.330 +0000",1574787265.330056,-3.093314,-1.462645,0.673745,-0.005209,0.994157,0.107816,0.000000,0.000000,0.000000,-1,0.515347,-0.448992,-0.806428,0.139899,-0.082983,0.053996
"2019-11-26 16:54:25.350 +0000",1574787265.350197,-2.943627,-1.469574,0.832394,-0.019874,0.994881,0.099076,0.000000,0.000000,0.000000,-1,0.423366,-0.375545,-0.766812,0.125343,-0.064344,0.017449
"2019-11-26 16:54:25.370 +0000",1574787265.370339,-2.785561,-1.472744,0.998171,-0.034123,0.995197,0.091758,0.000000,0.000000,0.000000,-1,0.332465,-0.402368,-0.685983,0.136556,0.014107,0.098361
"2019-11-26 16:54:25.390 +0000",1574787265.390481,-2.675404,-1.472721,1.118830,-0.044014,0.995194,0.087472,0.000000,0.000000,0.000000,-1,0.187278,-0.516231,-0.465913,0.211800,0.080973,0.204973
"2019-11-26 16:54:25.411 +0000",1574787265.410622,-2.622997,-1.471716,1.181633,-0.049030,0.995096,0.085913,0.000000,0.000000,0.000000,-1,0.079216,-0.487575,-0.236373,0.282765,0.125262,0.197452
"2019-11-26 16:54:25.431 +0000",1574787265.430764,-2.607461,-1.472563,1.206270,-0.049930,0.995179,0.084416,0.000000,0.000000,0.000000,-1,0.131945,-0.428215,-0.132021,0.309559,0.157619,0.170889
"2019-11-26 16:54:25.451 +0000",1574787265.450907,-2.574762,-1.475151,1.245123,-0.051280,0.995429,0.080565,0.000000,0.000000,0.000000,-1,0.248275,-0.281728,-0.092021,0.321774,0.188160,0.089504
"2019-11-26 16:54:25.471 +0000",1574787265.471047,-2.549280,-1.479518,1.272420,-0.050889,0.995837,0.075625,0.000000,0.000000,0.000000,-1,0.222482,0.021800,0.074535,0.289888,0.277581,0.098334
"2019-11-26 16:54:25.491 +0000",1574787265.491190,-2.575461,-1.484501,1.242116,-0.046230,0.996279,0.072743,0.000000,0.000000,0.000000,-1,0.098295,0.207638,0.310449,0.060681,0.306222,0.092992
"2019-11-26 16:54:25.511 +0000",1574787265.511332,-2.700105,-1.489059,1.116619,-0.034888,0.996661,0.073821,0.000000,0.000000,0.000000,-1,-0.132779,-0.034181,0.660838,0.014640,0.234215,0.026729
"2019-11-26 16:54:25.531 +0000",1574787265.531473,-2.943358,-1.487533,0.870672,-0.016379,0.996536,0.081541,0.000000,0.000000,0.000000,-1,-0.453413,0.153003,1.015630,-0.028206,0.177334,-0.073689
"2019-11-26 16:54:25.552 +0000",1574787265.551615,3.066634,-1.476675,0.586685,0.007038,0.995574,0.093719,0.000000,0.000000,0.000000,-1,-0.674071,0.595555,1.270051,-0.147816,0.038937,-0.135016
"2019-11-26 16:54:25.572 +0000",1574787265.571757,2.880511,-1.454609,0.383647,0.029924,0.993258,0.111998,0.000000,0.000000,0.000000,-1,-0.969841,0.903341,1.159168,-0.279940,-0.022758,-0.044439
"2019-11-26 16:54:25.592 +0000",1574787265.591898,2.806963,-1.425618,0.294655,0.047512,0.989480,0.136645,0.000000,0.000000,0.000000,-1,-1.290367,0.600034,0.899625,-0.439618,0.120638,-0.057673
"2019-11-26 16:54:25.612 +0000",1574787265.612040,2.788024,-1.395766,0.274507,0.060295,0.984721,0.163367,0.000000,0.000000,0.000000,-1,-1.339332,-0.144119,0.576561,-0.449563,0.231613,-0.167618
"2019-11-26 16:54:25.632 +0000",1574787265.632182,2.782298,-1.370149,0.281886,0.070078,0.979938,0.186578,0.000000,0.000000,0.000000,-1,-1.178177,-0.795148,0.326324,-0.327343,0.178383,-0.092501
"2019-11-26 16:54:25.652 +0000",1574787265.652325,2.784531,-1.349554,0.300521,0.076700,0.975626,0.205602,0.000000,0.000000,0.000000,-1,-0.990150,-0.729128,0.139926,-0.116375,0.243654,-0.095428
"2019-11-26 16:54:25.672 +0000",1574787265.672465,2.813453,-1.327659,0.331517,0.077589,0.970587,0.227904,0.000000,0.000000,0.000000,-1,-1.209829,0.221391,0.017046,0.092117,0.207707,0.035270
"2019-11-26 16:54:25.693 +0000",1574787265.692607,2.877279,-1.303439,0.361939,0.069017,0.964472,0.255009,0.000000,0.000000,0.000000,-1,-1.305273,2.169170,-0.039623,0.143399,0.329087,-0.065826
"2019-11-26 16:54:25.713 +0000",1574787265.712749,2.940479,-1.278504,0.371147,0.057561,0.957586,0.282340,0.000000,0.000000,0.000000,-1,-1.171690,2.808454,0.251363,0.093332,0.115973,-0.113894
"2019-11-26 16:54:25.733 +0000",1574787265.732891,2.976499,-1.258475,0.354881,0.050498,0.951623,0.303091,0.000000,0.000000,0.000000,-1,-0.863007,2.421661,0.464537,0.029701,-0.243466,-0.218126
"2019-11-26 16:54:25.753 +0000",1574787265.753033,2.996507,-1.242726,0.334036,0.046585,0.946666,0.318832,0.000000,0.000000,0.000000,-1,-0.696354,1.834288,0.445390,-0.116304,-0.502471,-0.241192
"2019-11-26 16:54:25.773 +0000",1574787265.773174,3.010763,-1.230445,0.311917,0.043549,0.942637,0.330966,0.000000,0.000000,0.000000,-1,-0.503043,1.764727,0.442127,-0.162340,-0.494567,-0.171371
"2019-11-26 16:54:25.793 +0000",1574787265.793317,3.025730,-1.221265,0.288142,0.039589,0.939533,0.340162,0.000000,0.000000,0.000000,-1,-0.403535,1.857229,0.462588,-0.141992,-0.466316,-0.179057
"2019-11-26 16:54:25.813 +0000",1574787265.813458,3.041406,-1.214052,0.269336,0.034929,0.937039,0.347475,0.000000,0.000000,0.000000,-1,-0.287820,1.565682,0.324683,-0.161578,-0.497803,-0.122420
"2019-11-26 16:54:25.834 +0000",1574787265.833600,3.055895,-1.210360,0.258327,0.030187,0.935743,0.351389,0.000000,0.000000,0.000000,-1,-0.145614,1.110172,0.189533,-0.160711,-0.499803,-0.098914
"2019-11-26 16:54:25.854 +0000",1574787265.853742,3.065890,-1.209348,0.250223,0.026745,0.935386,0.352617,0.000000,0.000000,0.000000,-1,-0.008380,0.792314,0.135805,-0.084287,-0.402339,-0.107161
"2019-11-26 16:54:25.874 +0000",1574787265.873883,3.068664,-1.212426,0.244145,0.025557,0.936470,0.349816,0.000000,0.000000,0.000000,-1,0.213687,0.278385,0.084675,-0.016860,-0.316189,-0.202139
"2019-11-26 16:54:25.894 +0000",1574787265.894025,3.062050,-1.221502,0.239836,0.027194,0.939614,0.341153,0.000000,0.000000,0.000000,-1,0.529281,-0.243089,0.013829,-0.002795,-0.104887,-0.152765
"2019-11-26 16:54:25.914 +0000",1574787265.914167,3.059264,-1.233990,0.240791,0.027177,0.943815,0.329355,0.000000,0.000000,0.000000,-1,0.608462,-0.104449,-0.086943,-0.063524,0.380796,0.090966
"2019-11-26 16:54:25.934 +0000",1574787265.934309,3.068560,-1.239051,0.241050,0.023765,0.945475,0.324825,0.000000,0.000000,0.000000,-1,0.096002,0.613118,0.006247,-0.010002,0.740616,0.393896
"2019-11-26 16:54:25.954 +0000",1574787265.954450,3.077647,-1.231859,0.235613,0.021246,0.943109,0.331806,0.000000,0.000000,0.000000,-1,-0.510692,0.717625,0.147574,0.051828,0.312594,0.513152
"2019-11-26 16:54:25.975 +0000",1574787265.974592,3.087071,-1.216932,0.227627,0.018884,0.938041,0.346011,0.000000,0.000000,0.000000,-1,-0.790882,0.870976,0.192427,0.033698,-0.062312,0.426543
"2019-11-26 16:54:25.995 +0000",1574787265.994735,3.089596,-1.201321,0.220466,0.018769,0.932517,0.360639,0.000000,0.000000,0.000000,-1,-0.750669,0.247055,0.163485,-0.001298,0.039448,0.184956
"2019-11-26 16:54:26.015 +0000",1574787266.014875,3.059459,-1.194617,0.204099,0.030139,0.930075,0.366132,0.000000,0.000000,0.000000,-1,-0.142732,-1.051809,0.372233,0.019512,0.751180,-0.358241
