timestamp,timeIntervalSince1970,attitude.roll,attitude.pitch,attitude.yaw,gravity.x,gravity.y,gravity.z,magneticField.x,magneticField.y,magneticField.z,magneticField.accuracy,rotationRate.x,rotationRate.y,rotationRate.z,userAcceleration.x,userAcceleration.y,userAcceleration.z
"2019-04-16 11:06:52.404 +0000",1555412812.403742,0.118478,0.400867,-0.046973,0.108830,-0.390216,-0.914269,0.000000,0.000000,0.000000,-1,1.174120,0.449359,-0.366726,0.065746,0.245548,0.165138
"2019-04-16 11:06:52.424 +0000",1555412812.423760,0.125069,0.425330,-0.059640,0.113629,-0.412621,-0.903788,0.000000,0.000000,0.000000,-1,1.419830,-0.269275,-0.472114,0.111224,0.237725,0.022135
"2019-04-16 11:06:52.444 +0000",1555412812.443780,0.125182,0.453700,-0.075414,0.112224,-0.438295,-0.891798,0.000000,0.000000,0.000000,-1,1.477504,-0.400502,-0.648895,-0.099788,0.288697,0.058210
"2019-04-16 11:06:52.464 +0000",1555412812.463768,0.127527,0.474094,-0.098326,0.113154,-0.456532,-0.882482,0.000000,0.000000,0.000000,-1,0.676221,-0.339918,-1.159445,-0.168651,0.148122,-0.160853
"2019-04-16 11:06:52.484 +0000",1555412812.483785,0.127836,0.474314,-0.126333,0.113414,-0.456728,-0.882347,0.000000,0.000000,0.000000,-1,-0.084987,-0.941727,-1.202914,0.229985,-0.175718,-0.625404
"2019-04-16 11:06:52.504 +0000",1555412812.503774,0.109145,0.476947,-0.153970,0.096772,-0.459069,-0.883114,0.000000,0.000000,0.000000,-1,0.741445,-2.170897,-1.300979,0.274307,0.059838,-0.922748
"2019-04-16 11:06:52.524 +0000",1555412812.523795,0.067822,0.495921,-0.187256,0.059606,-0.475842,-0.877509,0.000000,0.000000,0.000000,-1,1.160524,-3.171617,-1.537494,-0.069906,0.141583,-0.583444
"2019-04-16 11:06:52.544 +0000",1555412812.543782,0.034895,0.510117,-0.225248,0.030447,-0.488279,-0.872156,0.000000,0.000000,0.000000,-1,0.310795,-1.983027,-1.511945,-0.038351,0.087705,0.018702
"2019-04-16 11:06:52.564 +0000",1555412812.563800,0.015717,0.503240,-0.245185,0.013768,-0.482267,-0.875916,0.000000,0.000000,0.000000,-1,-0.873266,-1.051390,-0.162852,0.387080,-0.368396,-0.146529
"2019-04-16 11:06:52.584 +0000",1555412812.583818,-0.009050,0.480873,-0.242068,-0.008023,-0.462553,-0.886555,0.000000,0.000000,0.000000,-1,-1.290312,-1.139325,0.091277,0.289441,-0.122286,-0.145046
"2019-04-16 11:06:52.604 +0000",1555412812.603809,-0.019738,0.454329,-0.247557,-0.017734,-0.438859,-0.898381,0.000000,0.000000,0.000000,-1,-1.394517,-0.107358,-0.511723,0.282932,0.016389,0.186650
"2019-04-16 11:06:52.624 +0000",1555412812.623825,-0.011479,0.421241,-0.261639,-0.010475,-0.408893,-0.912522,0.000000,0.000000,0.000000,-1,-1.990171,0.048975,-0.588785,0.242241,0.069553,0.283219
"2019-04-16 11:06:52.644 +0000",1555412812.643814,-0.014882,0.377643,-0.271273,-0.013833,-0.368730,-0.929434,0.000000,0.000000,0.000000,-1,-2.216229,-0.809875,-0.275100,0.182473,0.035432,0.268987
"2019-04-16 11:06:52.664 +0000",1555412812.663832,-0.032620,0.341775,-0.277943,-0.030728,-0.335160,-0.941660,0.000000,0.000000,0.000000,-1,-1.223471,-1.000869,-0.322890,0.249966,0.203278,0.283548
"2019-04-16 11:06:52.684 +0000",1555412812.683853,-0.040454,0.329985,-0.285180,-0.038261,-0.324029,-0.945273,0.000000,0.000000,0.000000,-1,-0.085022,0.032317,-0.250330,0.094352,0.249261,0.225806
"2019-04-16 11:06:52.704 +0000",1555412812.703840,-0.025104,0.330248,-0.288773,-0.023745,-0.324277,-0.945664,0.000000,0.000000,0.000000,-1,-0.117432,1.356770,-0.150459,0.031466,0.111417,0.369477
"2019-04-16 11:06:52.724 +0000",1555412812.723859,0.122559,0.508512,-0.347154,0.106784,-0.486878,-0.866918,0.000000,0.000000,0.000000,-1,0.324109,3.784850,-1.540836,0.137372,-0.054535,0.682592
"2019-04-16 11:06:52.744 +0000",1555412812.743848,0.196698,0.507064,-0.365583,0.170842,-0.485613,-0.857318,0.000000,0.000000,0.000000,-1,-0.325850,2.005260,-0.173384,-0.220921,0.348162,0.365130
"2019-04-16 11:06:52.764 +0000",1555412812.763868,0.266318,0.558946,-0.382748,0.223128,-0.530293,-0.817926,0.000000,0.000000,0.000000,-1,-0.205225,-0.270107,0.946208,0.087449,0.403508,0.383203
"2019-04-16 11:06:52.784 +0000",1555412812.783885,0.247349,0.579848,-0.381870,0.204815,-0.547897,-0.811086,0.000000,0.000000,0.000000,-1,2.275819,-1.409778,-0.614924,0.203434,0.221175,-0.043742
"2019-04-16 11:06:52.804 +0000",1555412812.803873,0.269286,0.651410,-0.427479,0.211566,-0.606308,-0.766571,0.000000,0.000000,0.000000,-1,1.503219,-2.242907,0.325557,-0.083590,0.641068,0.062072
"2019-04-16 11:06:52.824 +0000",1555412812.823878,0.228708,0.666586,-0.414963,0.178187,-0.618306,-0.765472,0.000000,0.000000,0.000000,-1,-0.195823,-1.140609,0.782253,0.495290,0.368489,0.174041
"2019-04-16 11:06:52.844 +0000",1555412812.843867,0.240702,0.673489,-0.421148,0.186334,-0.623717,-0.759116,0.000000,0.000000,0.000000,-1,-1.461298,-0.767141,0.238827,0.446052,0.185348,0.149695
"2019-04-16 11:06:52.864 +0000",1555412812.863884,0.221937,0.652406,-0.404561,0.174912,-0.607100,-0.775136,0.000000,0.000000,0.000000,-1,-0.796622,-0.312334,0.460680,0.106566,0.452895,-0.123592
"2019-04-16 11:06:52.884 +0000",1555412812.883904,0.215646,0.676978,-0.404376,0.166789,-0.626440,-0.761416,0.000000,0.000000,0.000000,-1,1.332578,-2.043224,1.067376,-0.015361,0.241736,-0.811979
"2019-04-16 11:06:52.904 +0000",1555412812.903892,0.168848,0.712464,-0.382105,0.127170,-0.653701,-0.745991,0.000000,0.000000,0.000000,-1,1.010944,-0.122148,1.441487,0.164685,0.083358,-0.236186
"2019-04-16 11:06:52.924 +0000",1555412812.923911,0.192065,0.736100,-0.354271,0.141464,-0.671403,-0.727465,0.000000,0.000000,0.000000,-1,-0.296696,2.249775,1.647343,0.188004,-0.017959,-1.262647
"2019-04-16 11:06:52.944 +0000",1555412812.943899,0.200393,0.731550,-0.305132,0.148124,-0.668024,-0.729249,0.000000,0.000000,0.000000,-1,-0.705409,1.694626,1.832356,0.334984,-0.096365,-1.252105
"2019-04-16 11:06:52.964 +0000",1555412812.963918,0.206204,0.736019,-0.267134,0.151746,-0.671343,-0.725446,0.000000,0.000000,0.000000,-1,-0.293872,0.373112,1.828436,0.383089,0.052126,-1.042651
"2019-04-16 11:06:52.984 +0000",1555412812.983936,0.173783,0.738710,-0.218140,0.127839,-0.673334,-0.728202,0.000000,0.000000,0.000000,-1,-0.214694,-0.126320,1.792831,0.187851,0.055766,-0.675607
"2019-04-16 11:06:53.004 +0000",1555412813.003926,0.154597,0.742085,-0.180160,0.113494,-0.675826,-0.728271,0.000000,0.000000,0.000000,-1,-0.615226,-0.200568,1.800444,0.068039,0.158568,-0.560563
"2019-04-16 11:06:53.024 +0000",1555412813.023944,0.112299,0.730745,-0.130385,0.083451,-0.667424,-0.739987,0.000000,0.000000,0.000000,-1,-0.939422,-0.681146,1.664247,-0.053910,0.227956,-0.340198
"2019-04-16 11:06:53.044 +0000",1555412813.043932,0.085229,0.715756,-0.098915,0.064236,-0.656188,-0.751858,0.000000,0.000000,0.000000,-1,-1.195505,-0.817569,1.309488,-0.163067,0.276534,0.029660
"2019-04-16 11:06:53.064 +0000",1555412813.063952,0.042632,0.693224,-0.066231,0.032782,-0.639020,-0.768491,0.000000,0.000000,0.000000,-1,-1.196589,-1.399778,1.049148,-0.380835,0.384565,0.152280
"2019-04-16 11:06:53.084 +0000",1555412813.083969,0.013326,0.672916,-0.049971,0.010421,-0.623269,-0.781938,0.000000,0.000000,0.000000,-1,-1.036722,-1.366157,0.806739,-0.432784,0.307412,0.641740
"2019-04-16 11:06:53.104 +0000",1555412813.103959,-0.019318,0.657981,-0.035270,-0.015284,-0.611521,-0.791081,0.000000,0.000000,0.000000,-1,-0.448336,-0.819188,0.332441,-0.437505,0.469767,1.035633
"2019-04-16 11:06:53.124 +0000",1555412813.123976,-0.013649,0.658850,-0.039260,-0.010792,-0.612208,-0.790623,0.000000,0.000000,0.000000,-1,0.271641,0.429796,-0.031980,-0.530605,0.373698,1.201085
"2019-04-16 11:06:53.144 +0000",1555412813.143966,0.006920,0.674882,-0.039834,0.005403,-0.624805,-0.780762,0.000000,0.000000,0.000000,-1,1.501443,1.341012,0.070983,-0.612291,0.327686,1.015137
"2019-04-16 11:06:53.164 +0000",1555412813.163984,0.024989,0.723595,-0.036952,0.018726,-0.662083,-0.749197,0.000000,0.000000,0.000000,-1,3.194941,0.016085,0.533258,-0.629123,0.256840,0.430364
"2019-04-16 11:06:53.184 +0000",1555412813.184004,0.023361,0.811243,-0.030646,0.016085,-0.725144,-0.688410,0.000000,0.000000,0.000000,-1,5.143533,0.699779,-0.028321,0.036024,0.080475,0.018015
"2019-04-16 11:06:53.204 +0000",1555412813.203992,0.066168,0.917385,-0.050126,0.040194,-0.794015,-0.606568,0.000000,0.000000,0.000000,-1,4.899177,1.966453,-0.550691,-0.143175,0.064355,-0.321135
"2019-04-16 11:06:53.224 +0000",1555412813.224011,0.147964,1.001519,-0.084396,0.079465,-0.842291,-0.533134,0.000000,0.000000,0.000000,-1,3.724942,3.572158,-0.488461,-0.373319,0.029012,-0.636528
"2019-04-16 11:06:53.244 +0000",1555412813.243998,0.251159,1.058999,-0.117780,0.121715,-0.871866,-0.474380,0.000000,0.000000,0.000000,-1,1.498081,2.539644,0.037775,-0.303646,0.265039,-1.622712
"2019-04-16 11:06:53.264 +0000",1555412813.264018,0.291035,1.061602,-0.125029,0.139878,-0.873137,-0.466974,0.000000,0.000000,0.000000,-1,-0.574311,1.102111,-0.788688,0.351226,0.346679,-2.024038
"2019-04-16 11:06:53.284 +0000",1555412813.284035,0.348829,1.037762,-0.172369,0.173684,-0.861269,-0.477545,0.000000,0.000000,0.000000,-1,-0.826787,1.122954,-1.922253,0.129401,0.344149,-1.231409
"2019-04-16 11:06:53.304 +0000",1555412813.304025,0.424697,1.013245,-0.233221,0.218017,-0.848553,-0.482106,0.000000,0.000000,0.000000,-1,-0.191231,1.068262,-1.860056,-0.094756,0.134823,-1.270274
"2019-04-16 11:06:53.324 +0000",1555412813.324043,0.496544,0.998937,-0.291913,0.257821,-0.840896,-0.475839,0.000000,0.000000,0.000000,-1,0.210863,1.241275,-1.486623,0.104820,0.118560,-1.171500
"2019-04-16 11:06:53.344 +0000",1555412813.344033,0.561168,0.991906,-0.333356,0.291151,-0.837070,-0.463190,0.000000,0.000000,0.000000,-1,0.342000,1.824579,-0.888743,0.076052,-0.126660,-0.658499
"2019-04-16 11:06:53.364 +0000",1555412813.364051,0.637232,0.991082,-0.372716,0.325917,-0.836619,-0.440280,0.000000,0.000000,0.000000,-1,1.018057,2.691479,-1.237723,0.235362,0.198192,-0.020063
"2019-04-16 11:06:53.384 +0000",1555412813.384068,0.732901,1.017853,-0.471095,0.351370,-0.850982,-0.390344,0.000000,0.000000,0.000000,-1,3.905579,1.085122,-0.791143,-0.133337,0.286285,1.518502
"2019-04-16 11:06:53.404 +0000",1555412813.404047,0.818770,1.039197,-0.570876,0.370201,-0.861998,-0.346282,0.000000,0.000000,0.000000,-1,1.004596,-1.099429,-1.427731,-0.190956,0.509398,-0.444718
"2019-04-16 11:06:53.424 +0000",1555412813.424064,0.790020,1.009675,-0.552895,0.378012,-0.846659,-0.374534,0.000000,0.000000,0.000000,-1,-3.069840,-0.123346,-0.053382,-0.132635,-0.288610,0.125557
"2019-04-16 11:06:53.444 +0000",1555412813.444054,0.689739,0.969604,-0.456330,0.359928,-0.824662,-0.436331,0.000000,0.000000,0.000000,-1,-2.838799,-1.501389,1.034369,-0.242161,0.232590,-0.120569
"2019-04-16 11:06:53.464 +0000",1555412813.464075,0.575919,0.957537,-0.373656,0.313440,-0.817776,-0.482697,0.000000,0.000000,0.000000,-1,-0.607929,-2.991044,1.838671,-0.328180,0.666837,0.240846
"2019-04-16 11:06:53.484 +0000",1555412813.484062,0.469504,0.992432,-0.329382,0.247331,-0.837358,-0.487503,0.000000,0.000000,0.000000,-1,2.227801,-4.179698,1.846737,-0.054429,0.859254,0.360870
"2019-04-16 11:06:53.504 +0000",1555412813.504082,0.371375,1.047180,-0.302877,0.181454,-0.866017,-0.465928,0.000000,0.000000,0.000000,-1,2.165408,-3.083917,1.810168,-0.093273,0.576283,0.633287
"2019-04-16 11:06:53.524 +0000",1555412813.524100,0.275609,1.100405,-0.257841,0.123340,-0.891391,-0.436130,0.000000,0.000000,0.000000,-1,2.071084,-2.676584,2.007083,0.010906,0.619312,0.114230
"2019-04-16 11:06:53.544 +0000",1555412813.544089,0.164240,1.143133,-0.184030,0.067812,-0.909937,-0.409164,0.000000,0.000000,0.000000,-1,1.458300,-1.786678,1.867529,0.218260,0.321680,-0.148727
"2019-04-16 11:07:12.331 +0000",1555412832.331131,0.066290,1.175042,-0.107799,0.025536,-0.922706,-0.384657,0.000000,0.000000,0.000000,-1,1.450183,-1.183418,1.522279,0.381568,0.230613,-0.440645
"2019-04-16 11:07:12.351 +0000",1555412832.351120,-0.014670,1.199638,-0.042317,-0.005321,-0.931908,-0.362656,0.000000,0.000000,0.000000,-1,0.826410,-1.190285,0.935377,0.603755,-0.164268,-0.472885
"2019-04-16 11:07:12.371 +0000",1555412832.371138,-0.075358,1.189950,-0.015668,-0.027985,-0.928351,-0.370651,0.000000,0.000000,0.000000,-1,-1.721219,-1.757702,0.265012,0.978775,-0.136896,-0.877121
"2019-04-16 11:07:12.391 +0000",1555412832.391158,-0.134712,1.146748,0.011743,-0.055260,-0.911431,-0.407726,0.000000,0.000000,0.000000,-1,-2.347692,-1.734292,1.351292,0.842064,-1.018989,-1.260395
"2019-04-16 11:07:12.411 +0000",1555412832.411148,-0.208001,1.102651,0.075524,-0.093181,-0.892407,-0.441506,0.000000,0.000000,0.000000,-1,-1.602301,-0.751883,2.537977,0.353313,-0.596180,-1.596397
"2019-04-16 11:07:12.431 +0000",1555412832.431166,-0.309499,1.046041,0.169243,-0.152596,-0.865447,-0.477197,0.000000,0.000000,0.000000,-1,-2.403755,-1.375588,2.781368,-0.403023,-0.294115,-1.282340
"2019-04-16 11:07:12.451 +0000",1555412832.451155,-0.362102,0.975327,0.190740,-0.198693,-0.827886,-0.524525,0.000000,0.000000,0.000000,-1,-3.199849,-3.435544,2.483036,-0.270118,-0.412486,-1.042049
"2019-04-16 11:07:12.471 +0000",1555412832.471174,-0.484434,0.892520,0.242693,-0.292209,-0.778655,-0.555256,0.000000,0.000000,0.000000,-1,-1.605371,-2.267516,3.133362,-0.370175,-0.424119,0.069859
"2019-04-16 11:07:12.491 +0000",1555412832.491194,-0.599331,0.864302,0.337026,-0.366191,-0.760642,-0.536029,0.000000,0.000000,0.000000,-1,1.541644,-3.159968,3.604884,-0.202687,-0.174965,-0.603711
"2019-04-16 11:07:12.511 +0000",1555412832.511183,-0.764247,0.848647,0.459497,-0.457407,-0.750387,-0.477178,0.000000,0.000000,0.000000,-1,1.944823,-3.951210,3.538307,-0.163336,0.576848,-0.084864
"2019-04-16 11:07:12.531 +0000",1555412832.531203,-0.915541,0.821472,0.554530,-0.540074,-0.732149,-0.415064,0.000000,0.000000,0.000000,-1,1.472446,-3.841662,2.764677,0.112828,0.591829,0.207300
"2019-04-16 11:07:12.551 +0000",1555412832.551191,-1.047103,0.800684,0.638277,-0.602908,-0.717832,-0.348165,0.000000,0.000000,0.000000,-1,2.158367,-3.222478,2.501788,0.827426,0.611601,-0.055079
"2019-04-16 11:07:12.571 +0000",1555412832.571211,-1.167846,0.768432,0.710671,-0.661415,-0.695009,-0.281945,0.000000,0.000000,0.000000,-1,1.134113,-3.415645,2.441152,0.274056,0.709520,-0.010337
"2019-04-16 11:07:12.591 +0000",1555412832.591199,-1.266048,0.743623,0.763004,-0.702107,-0.676959,-0.220845,0.000000,0.000000,0.000000,-1,1.606039,-3.195317,1.351149,0.076909,0.699786,-0.059276
"2019-04-16 11:07:12.611 +0000",1555412832.611188,-1.362415,0.729132,0.815263,-0.729621,-0.666222,-0.154279,0.000000,0.000000,0.000000,-1,1.589368,-3.026511,1.070394,0.477026,0.883004,0.419553
"2019-04-16 11:07:12.631 +0000",1555412832.631207,-1.452461,0.721613,0.858378,-0.745491,-0.660596,-0.088632,0.000000,0.000000,0.000000,-1,1.543582,-3.214541,0.216135,0.590538,0.962598,0.186471
"2019-04-16 11:07:12.651 +0000",1555412832.651197,-1.569908,0.711640,0.922887,-0.757291,-0.653077,-0.000673,0.000000,0.000000,0.000000,-1,2.745123,-4.657827,0.978427,0.497129,1.018692,-0.277754
"2019-04-16 11:07:12.671 +0000",1555412832.671216,-1.724706,0.682622,0.981317,-0.766749,-0.630830,0.118951,0.000000,0.000000,0.000000,-1,1.628274,-7.047569,1.536000,0.146998,0.654115,-0.369516
"2019-04-16 11:07:12.691 +0000",1555412832.691236,-1.885346,0.651122,0.985963,-0.756378,-0.606079,0.246089,0.000000,0.000000,0.000000,-1,-0.372308,-8.633309,1.227895,0.388169,0.496521,-0.023264
"2019-04-16 11:07:12.711 +0000",1555412832.711224,-2.035107,0.628479,0.959705,-0.723283,-0.587915,0.362241,0.000000,0.000000,0.000000,-1,-0.484198,-8.053921,2.151798,-0.111434,0.406595,-0.252988
"2019-04-16 11:07:12.731 +0000",1555412832.731244,-2.177275,0.571043,0.912407,-0.691293,-0.540510,0.479543,0.000000,0.000000,0.000000,-1,0.106765,-8.367586,3.827770,0.223001,0.657637,-0.432363
"2019-04-16 11:07:12.751 +0000",1555412832.751233,-2.313647,0.529487,0.870978,-0.635686,-0.505091,0.583770,0.000000,0.000000,0.000000,-1,-0.705874,-7.354910,1.257378,-0.676250,0.980814,-0.015044
"2019-04-16 11:07:12.771 +0000",1555412832.771254,-2.447486,0.531966,0.844818,-0.551300,-0.507228,0.662410,0.000000,0.000000,0.000000,-1,-1.687821,-6.891589,0.099082,-1.491806,0.905941,0.354847
"2019-04-16 11:07:12.791 +0000",1555412832.791271,-2.568665,0.585426,0.806189,-0.451823,-0.552555,0.700385,0.000000,0.000000,0.000000,-1,-3.579860,-7.165786,-0.006062,-0.764699,0.324207,0.409677
"2019-04-16 11:07:12.811 +0000",1555412832.811261,-2.679464,0.620204,0.760740,-0.362819,-0.581201,0.728401,0.000000,0.000000,0.000000,-1,-1.042835,-6.430878,1.329122,-0.335454,0.157892,-0.225578
"2019-04-16 11:07:12.831 +0000",1555412832.831281,-2.766391,0.582664,0.729681,-0.305994,-0.550251,0.776912,0.000000,0.000000,0.000000,-1,3.172178,-3.328461,2.255668,-0.863898,-0.137417,1.092290
"2019-04-16 11:07:12.851 +0000",1555412832.851270,-2.779206,0.521170,0.676744,-0.307441,-0.497895,0.810913,0.000000,0.000000,0.000000,-1,0.277430,0.360355,4.056981,-0.220482,0.333711,1.964737
"2019-04-16 11:07:12.871 +0000",1555412832.871289,-2.704786,0.491996,0.600097,-0.372871,-0.472387,0.798635,0.000000,0.000000,0.000000,-1,0.554649,2.830289,2.740183,-0.193108,0.650243,0.532160
"2019-04-16 11:07:12.891 +0000",1555412832.891309,-2.629045,0.447146,0.573212,-0.442185,-0.432394,0.785817,0.000000,0.000000,0.000000,-1,2.107215,3.447642,1.949690,-0.149688,0.051443,0.245448
"2019-04-16 11:07:12.911 +0000",1555412832.911298,-2.552669,0.387989,0.552714,-0.514179,-0.378328,0.769732,0.000000,0.000000,0.000000,-1,1.253389,2.360128,2.542575,0.017689,0.265703,-1.083865
"2019-04-16 11:07:12.931 +0000",1555412832.931317,-2.539410,0.339350,0.518293,-0.534139,-0.332874,0.777104,0.000000,0.000000,0.000000,-1,0.932343,-0.628458,2.924103,-0.318965,0.855061,-0.193821
"2019-04-16 11:07:12.951 +0000",1555412832.951306,-2.531703,0.297077,0.480249,-0.547687,-0.292727,0.783805,0.000000,0.000000,0.000000,-1,0.394547,-0.077566,2.240405,0.098712,0.763765,-0.399863
"2019-04-16 11:07:12.971 +0000",1555412832.971326,-2.531080,0.278753,0.447444,-0.551159,-0.275157,0.787727,0.000000,0.000000,0.000000,-1,-0.741493,-0.771699,1.397405,0.271007,0.325541,-0.689048
"2019-04-16 11:07:12.991 +0000",1555412832.991345,-2.539882,0.285562,0.419050,-0.543130,-0.281697,0.790984,0.000000,0.000000,0.000000,-1,-1.127017,-0.663529,0.415125,0.537271,0.318746,-0.574554
"2019-04-16 11:07:13.011 +0000",1555412833.011334,-2.548754,0.305533,0.410661,-0.532841,-0.300801,0.790948,0.000000,0.000000,0.000000,-1,-1.087167,-0.819356,-0.913931,0.335652,0.330373,-0.600748
"2019-04-16 11:07:13.031 +0000",1555412833.031353,-2.573007,0.349902,0.417785,-0.505815,-0.342806,0.791603,0.000000,0.000000,0.000000,-1,-2.228813,-1.406031,-2.053419,0.039674,0.416917,-0.337532
"2019-04-16 11:07:13.051 +0000",1555412833.051343,-2.616471,0.416482,0.418097,-0.458464,-0.404545,0.791299,0.000000,0.000000,0.000000,-1,-3.394842,-2.978373,-0.802567,0.206374,-0.852657,-0.639962
"2019-04-16 11:07:13.071 +0000",1555412833.071363,-2.601126,0.473426,0.393282,-0.457943,-0.455938,0.763157,0.000000,0.000000,0.000000,-1,-1.651109,-0.551966,-0.789111,-0.221286,-0.082056,-0.316334
"2019-04-16 11:07:13.091 +0000",1555412833.091382,-2.593256,0.485776,0.406082,-0.460964,-0.466895,0.754666,0.000000,0.000000,0.000000,-1,1.008031,1.692150,-0.103710,-0.367512,0.153906,-0.016843
"2019-04-16 11:07:13.111 +0000",1555412833.111371,-2.539942,0.448024,0.416885,-0.510142,-0.433185,0.743038,0.000000,0.000000,0.000000,-1,2.516068,4.106092,0.878666,-0.633336,0.998081,0.599949
"2019-04-16 11:07:13.131 +0000",1555412833.131391,-2.453112,0.393659,0.435388,-0.586767,-0.383570,0.713147,0.000000,0.000000,0.000000,-1,2.749721,5.135084,1.048939,-0.493723,0.507639,1.059634
"2019-04-16 11:07:13.151 +0000",1555412833.151380,-2.359647,0.342965,0.453753,-0.663623,-0.336281,0.668222,0.000000,0.000000,0.000000,-1,1.957454,4.124814,0.993472,-0.261487,-0.171989,-0.180780
"2019-04-16 11:07:13.171 +0000",1555412833.171399,-2.265540,0.326132,0.457159,-0.727724,-0.320382,0.606443,0.000000,0.000000,0.000000,-1,-0.566848,6.010633,0.542105,-0.708342,0.728844,0.572436
"2019-04-16 11:07:13.191 +0000",1555412833.191408,-2.114218,0.311402,0.416394,-0.814778,-0.306394,0.492199,0.000000,0.000000,0.000000,-1,-1.155578,6.812476,2.918611,-0.324154,0.501279,-0.414135
"2019-04-16 11:07:13.211 +0000",1555412833.211397,-1.956429,0.254880,0.378355,-0.896627,-0.252129,0.363994,0.000000,0.000000,0.000000,-1,0.107539,8.421500,3.746416,-0.388712,0.373757,0.532735
"2019-04-16 11:07:13.231 +0000",1555412833.231416,-1.777392,0.168909,0.343826,-0.964806,-0.168107,0.202210,0.000000,0.000000,0.000000,-1,-0.403767,8.664862,5.296539,-0.169639,0.278779,-0.120300
"2019-04-16 11:07:13.251 +0000",1555412833.251408,-1.617381,0.059813,0.343778,-0.997129,-0.059777,0.046484,0.000000,0.000000,0.000000,-1,1.756900,7.186761,5.474066,0.064451,0.432458,-0.003088
"2019-04-16 11:07:13.271 +0000",1555412833.271425,-1.494156,-0.042907,0.389871,-0.996147,0.042894,-0.076495,0.000000,0.000000,0.000000,-1,2.242480,4.964223,4.685408,0.461723,0.334044,-0.086530
"2019-04-16 11:07:13.291 +0000",1555412833.291444,-1.418971,-0.120490,0.435621,-0.981330,0.120199,-0.150146,0.000000,0.000000,0.000000,-1,1.319479,2.017207,3.567408,0.724601,0.185297,0.075973
"2019-04-16 11:07:13.311 +0000",1555412833.311433,-1.411170,-0.181626,0.462220,-0.971047,0.180629,-0.156335,0.000000,0.000000,0.000000,-1,0.362187,-1.611162,2.991837,0.920434,0.036580,0.060815
"2019-04-16 11:07:13.331 +0000",1555412833.331453,-1.468737,-0.232988,0.473827,-0.967918,0.230885,-0.099130,0.000000,0.000000,0.000000,-1,0.302554,-4.067962,2.073929,0.384681,0.323909,-0.233405
"2019-04-16 11:07:13.351 +0000",1555412833.351442,-1.542026,-0.260429,0.497256,-0.965880,0.257495,-0.027797,0.000000,0.000000,0.000000,-1,1.740121,-2.142695,0.856991,-0.494875,0.578427,-0.216069
"2019-04-16 11:07:13.371 +0000",1555412833.371460,-1.527540,-0.275333,0.529530,-0.961435,0.271867,-0.041614,0.000000,0.000000,0.000000,-1,1.765935,1.240630,0.362234,-1.489096,-0.087190,0.222278
"2019-04-16 11:07:13.391 +0000",1555412833.391481,-1.520407,-0.255762,0.538614,-0.966243,0.252982,-0.048730,0.000000,0.000000,0.000000,-1,-1.078232,-1.095808,-2.186060,0.590144,0.326440,1.174172
"2019-04-16 11:07:13.411 +0000",1555412833.411470,-1.553213,-0.218141,0.487021,-0.976151,0.216415,-0.017166,0.000000,0.000000,0.000000,-1,-3.275766,-0.370716,-1.465147,0.407318,0.475647,0.439804
"2019-04-16 11:07:13.431 +0000",1555412833.431489,-1.559583,-0.193836,0.427883,-0.981211,0.192624,-0.011003,0.000000,0.000000,0.000000,-1,-2.203065,0.247285,-0.957019,0.327875,0.941989,-0.294982
"2019-04-16 11:07:13.451 +0000",1555412833.451477,-1.547817,-0.205618,0.391336,-0.978677,0.204172,-0.022493,0.000000,0.000000,0.000000,-1,-2.532455,2.859868,1.692773,-0.166694,1.327261,-0.165174
"2019-04-16 11:07:13.471 +0000",1555412833.471498,-1.499221,-0.222062,0.304225,-0.972948,0.220241,-0.069758,0.000000,0.000000,0.000000,-1,-5.057149,3.034098,-0.716945,-0.484907,1.279500,-0.812871
"2019-04-16 11:07:13.492 +0000",1555412833.491518,-1.471935,-0.194955,0.223914,-0.976266,0.193723,-0.096831,0.000000,0.000000,0.000000,-1,-2.363279,1.530656,-2.417393,-0.462684,1.637225,-1.168657
"2019-04-16 11:07:13.512 +0000",1555412833.511507,-1.439421,-0.152140,0.192472,-0.979931,0.151554,-0.129484,0.000000,0.000000,0.000000,-1,-0.522244,2.708566,-1.794464,-0.085987,1.577328,-0.690584
"2019-04-16 11:07:13.532 +0000",1555412833.531526,-1.382434,-0.130429,0.186237,-0.973969,0.130060,-0.185660,0.000000,0.000000,0.000000,-1,0.303322,2.085971,-0.648866,0.237686,0.847769,-0.360223
"2019-04-16 11:07:13.552 +0000",1555412833.551515,-1.411698,-0.121333,0.156077,-0.980112,0.121035,-0.157264,0.000000,0.000000,0.000000,-1,-3.827234,-2.571234,-0.881845,-0.104025,-1.025958,2.180106
"2019-04-16 11:07:13.572 +0000",1555412833.571534,-1.436740,-0.112035,0.063521,-0.984815,0.111801,-0.132817,0.000000,0.000000,0.000000,-1,-3.982970,0.006211,-1.101235,-0.785479,0.573502,0.111699
"2019-04-16 11:07:13.592 +0000",1555412833.591546,-1.443069,-0.097899,0.013588,-0.987105,0.097743,-0.126770,0.000000,0.000000,0.000000,-1,-0.797336,-0.122570,-1.032280,-0.200304,0.314794,-0.558929
"2019-04-16 11:07:13.612 +0000",1555412833.611535,-1.444743,-0.065990,0.010509,-0.989907,0.065942,-0.125446,0.000000,0.000000,0.000000,-1,0.409501,0.151136,-2.351362,-0.368767,-0.217263,-0.412228
"2019-04-16 11:07:13.632 +0000",1555412833.631556,-1.443515,-0.015014,0.012038,-0.991799,0.015013,-0.126924,0.000000,0.000000,0.000000,-1,0.410779,-0.365673,-2.171418,0.626030,-0.245345,-0.196929
"2019-04-16 11:07:13.652 +0000",1555412833.651544,-1.460682,0.018666,0.024281,-0.993770,-0.018665,-0.109873,0.000000,0.000000,0.000000,-1,1.272100,-1.284754,-0.996183,1.217434,-0.060101,-0.115514
"2019-04-16 11:07:13.672 +0000",1555412833.671563,-1.498492,0.038074,0.049833,-0.996664,-0.038065,-0.072189,0.000000,0.000000,0.000000,-1,1.195781,-2.249940,-0.957614,1.216635,-0.350531,0.246459
"2019-04-16 11:07:13.692 +0000",1555412833.691552,-1.540909,0.058328,0.061701,-0.997854,-0.058295,-0.029832,0.000000,0.000000,0.000000,-1,0.100786,-1.585662,-0.650994,1.072652,-0.392633,0.774126
"2019-04-16 11:07:13.712 +0000",1555412833.711572,-1.566711,0.061570,0.060853,-0.998097,-0.061531,-0.004078,0.000000,0.000000,0.000000,-1,0.161474,-1.233314,0.250960,1.462849,0.092247,0.268253
"2019-04-16 11:07:13.732 +0000",1555412833.731592,-1.592252,0.048310,0.074276,-0.998603,-0.048291,0.021429,0.000000,0.000000,0.000000,-1,1.035310,-1.104414,1.060968,1.198524,0.119732,-0.029394
"2019-04-16 11:07:13.752 +0000",1555412833.751580,-1.609743,0.025530,0.091771,-0.998916,-0.025527,0.038924,0.000000,0.000000,0.000000,-1,0.719324,-0.642082,0.820011,0.792434,0.104583,-0.038908
"2019-04-16 11:07:13.772 +0000",1555412833.771600,-1.625158,0.017028,0.104104,-0.998378,-0.017028,0.054327,0.000000,0.000000,0.000000,-1,0.799946,-1.244479,0.150290,0.523647,-0.021196,0.120280
"2019-04-16 11:07:13.792 +0000",1555412833.791589,-1.661464,0.005816,0.134013,-0.995876,-0.005816,0.090542,0.000000,0.000000,0.000000,-1,2.166348,-1.864045,0.782592,0.411815,0.640108,-0.122509
"2019-04-16 11:07:13.812 +0000",1555412833.811609,-1.695013,-0.016272,0.174940,-0.992164,0.016271,0.123881,0.000000,0.000000,0.000000,-1,2.125993,-1.141565,0.956010,-0.338738,0.638499,0.220571
"2019-04-16 11:07:13.832 +0000",1555412833.831628,-1.696193,-0.037258,0.215668,-0.991460,0.037250,0.124982,0.000000,0.000000,0.000000,-1,2.181928,0.668150,0.304604,-1.461650,0.654874,0.183902
"2019-04-16 11:07:13.852 +0000",1555412833.851618,-1.677584,-0.037940,0.257092,-0.993588,0.037931,0.106509,0.000000,0.000000,0.000000,-1,1.797858,0.793119,-0.421226,-1.095478,0.755816,-0.198779
"2019-04-16 11:07:13.872 +0000",1555412833.871637,-1.673732,-0.044603,0.283767,-0.993717,0.044588,0.102652,0.000000,0.000000,0.000000,-1,1.316179,-0.758973,1.091902,-0.624569,0.044279,0.035531
"2019-04-16 11:07:13.892 +0000",1555412833.891626,-1.693060,-0.084153,0.308963,-0.989023,0.084054,0.121527,0.000000,0.000000,0.000000,-1,1.624658,-0.243589,2.148644,-0.450080,0.666038,0.727395
"2019-04-16 11:07:13.912 +0000",1555412833.911645,-1.685766,-0.114407,0.340876,-0.986904,0.114158,0.113967,0.000000,0.000000,0.000000,-1,1.880355,0.455370,0.580796,-0.517918,0.576089,0.546205
"2019-04-16 11:07:13.932 +0000",1555412833.931665,-1.661319,-0.124921,0.373370,-0.988145,0.124596,0.089695,0.000000,0.000000,0.000000,-1,1.347873,1.307263,-0.066281,-0.521666,0.145210,0.317303
"2019-04-16 11:07:13.952 +0000",1555412833.951654,-1.639810,-0.120059,0.400737,-0.990438,0.119771,0.068462,0.000000,0.000000,0.000000,-1,1.416300,0.827961,-0.422972,-0.286661,0.412989,-0.096813
"2019-04-16 11:07:13.972 +0000",1555412833.971673,-1.628178,-0.113271,0.421434,-0.991956,0.113029,0.056983,0.000000,0.000000,0.000000,-1,0.449600,0.223853,-0.516856,0.120695,-0.091133,-0.265952
"2019-04-16 11:07:13.992 +0000",1555412833.991663,-1.620663,-0.111093,0.426316,-0.992600,0.110864,0.049538,0.000000,0.000000,0.000000,-1,0.500728,0.352891,0.931526,-0.311004,0.163886,-0.269707
"2019-04-16 11:07:14.012 +0000",1555412834.011682,-1.600843,-0.151941,0.438621,-0.988033,0.151358,0.029696,0.000000,0.000000,0.000000,-1,1.234313,0.823565,2.763469,0.652996,0.001749,0.288007
"2019-04-16 11:07:14.032 +0000",1555412834.031701,-1.601580,-0.207953,0.483731,-0.977992,0.206457,0.030116,0.000000,0.000000,0.000000,-1,3.535919,-2.034286,2.770879,0.839961,-0.239782,-0.801616
"2019-04-16 11:07:22.557 +0000",1555412842.556948,-1.048180,0.623340,-0.483213,-0.703553,-0.583750,-0.405276,0.000000,0.000000,0.000000,-1,0.156747,1.218620,1.557097,0.594331,0.018656,-0.430418
"2019-04-16 11:07:22.577 +0000",1555412842.576968,-0.401355,0.432800,0.216868,-0.354645,-0.419415,-0.835654,0.000000,0.000000,0.000000,-1,0.174005,1.100145,1.528040,0.296082,-0.111927,-0.010079
"2019-04-16 11:07:22.597 +0000",1555412842.596992,-0.393303,0.424537,0.248275,-0.349221,-0.411899,-0.841656,0.000000,0.000000,0.000000,-1,0.178646,0.997995,1.417118,0.297341,-0.139035,0.009075
"2019-04-16 11:07:22.617 +0000",1555412842.616982,-0.386612,0.417537,0.277525,-0.344661,-0.405511,-0.846623,0.000000,0.000000,0.000000,-1,0.158191,0.884776,1.328638,0.298777,-0.129920,0.041981
"2019-04-16 11:07:22.637 +0000",1555412842.637002,-0.380144,0.409339,0.304372,-0.340399,-0.398003,-0.851893,0.000000,0.000000,0.000000,-1,0.015035,0.858638,1.238424,0.255499,-0.067253,0.039882
"2019-04-16 11:07:22.657 +0000",1555412842.656991,-0.372406,0.399866,0.328664,-0.335154,-0.389295,-0.857975,0.000000,0.000000,0.000000,-1,-0.025169,0.828750,1.232156,0.279154,-0.266863,0.084736
"2019-04-16 11:07:22.677 +0000",1555412842.677009,-0.366142,0.390846,0.354097,-0.331017,-0.380971,-0.863301,0.000000,0.000000,0.000000,-1,-0.006016,0.756871,1.273446,0.248726,-0.219020,0.058598
"2019-04-16 11:07:22.697 +0000",1555412842.697031,-0.361345,0.381211,0.379728,-0.328155,-0.372045,-0.868272,0.000000,0.000000,0.000000,-1,-0.026942,0.707611,1.280445,0.222518,-0.208720,0.070161
"2019-04-16 11:07:22.717 +0000",1555412842.717019,-0.356332,0.372388,0.405459,-0.324930,-0.363841,-0.872949,0.000000,0.000000,0.000000,-1,0.048473,0.761103,1.271218,0.224253,-0.236821,0.116479
"2019-04-16 11:07:22.737 +0000",1555412842.737038,-0.348975,0.365201,0.431271,-0.319385,-0.357137,-0.877751,0.000000,0.000000,0.000000,-1,0.097952,0.911618,1.238928,0.214786,-0.253306,0.146519
"2019-04-16 11:07:22.757 +0000",1555412842.757027,-0.338119,0.358648,0.457026,-0.310607,-0.351009,-0.883355,0.000000,0.000000,0.000000,-1,0.098922,1.072810,1.250682,0.214324,-0.258290,0.127434
"2019-04-16 11:07:22.777 +0000",1555412842.777046,-0.324623,0.352274,0.482646,-0.299365,-0.345033,-0.889569,0.000000,0.000000,0.000000,-1,0.079125,1.132424,1.227127,0.213824,-0.264647,0.095883
"2019-04-16 11:07:22.797 +0000",1555412842.797067,-0.311107,0.346541,0.508130,-0.287916,-0.339646,-0.895402,0.000000,0.000000,0.000000,-1,0.125469,1.102593,1.216077,0.207578,-0.275436,0.090394
"2019-04-16 11:07:22.817 +0000",1555412842.817055,-0.297195,0.341517,0.533077,-0.275927,-0.334917,-0.900941,0.000000,0.000000,0.000000,-1,0.096909,1.125321,1.175409,0.195361,-0.286070,0.123658
"2019-04-16 11:07:22.837 +0000",1555412842.837076,-0.282672,0.336504,0.557173,-0.263279,-0.330189,-0.906454,0.000000,0.000000,0.000000,-1,0.054180,1.110014,1.140890,0.183430,-0.301281,0.133673
"2019-04-16 11:07:22.857 +0000",1555412842.857063,-0.268736,0.330790,0.580260,-0.251119,-0.324791,-0.911839,0.000000,0.000000,0.000000,-1,0.025488,1.046215,1.115894,0.190038,-0.315224,0.167058
"2019-04-16 11:07:22.877 +0000",1555412842.877083,-0.256804,0.324755,0.602670,-0.240714,-0.319077,-0.916650,0.000000,0.000000,0.000000,-1,-0.075816,0.856215,1.091634,0.183189,-0.306412,0.113503
"2019-04-16 11:07:22.897 +0000",1555412842.897101,-0.247975,0.317290,0.624365,-0.233190,-0.311993,-0.921023,0.000000,0.000000,0.000000,-1,-0.121368,0.712908,1.089102,0.173574,-0.296665,0.073946
"2019-04-16 11:07:22.917 +0000",1555412842.917089,-0.241755,0.309656,0.645748,-0.228021,-0.304731,-0.924741,0.000000,0.000000,0.000000,-1,-0.122206,0.566422,1.064539,0.168695,-0.290469,0.041883
"2019-04-16 11:07:22.937 +0000",1555412842.937109,-0.237860,0.302210,0.666416,-0.224945,-0.297631,-0.927802,0.000000,0.000000,0.000000,-1,-0.146123,0.467943,1.019360,0.165756,-0.290519,0.032507
"2019-04-16 11:07:22.957 +0000",1555412842.957098,-0.235223,0.295345,0.685974,-0.222968,-0.291070,-0.930357,0.000000,0.000000,0.000000,-1,-0.060690,0.398723,0.949617,0.155524,-0.280768,0.059598
"2019-04-16 11:07:22.977 +0000",1555412842.977116,-0.232415,0.290777,0.704320,-0.220659,-0.286697,-0.932263,0.000000,0.000000,0.000000,-1,0.017675,0.414149,0.869886,0.137743,-0.292481,0.084271
"2019-04-16 11:07:22.997 +0000",1555412842.997135,-0.228505,0.287472,0.721220,-0.217226,-0.283529,-0.934037,0.000000,0.000000,0.000000,-1,-0.001047,0.472472,0.753619,0.153139,-0.275019,0.129090
"2019-04-16 11:07:23.017 +0000",1555412843.017123,-0.223401,0.284062,0.737100,-0.212669,-0.280257,-0.936070,0.000000,0.000000,0.000000,-1,0.010999,0.505516,0.813224,0.117561,-0.344483,0.141087
"2019-04-16 11:07:23.037 +0000",1555412843.037143,-0.216810,0.281562,0.754143,-0.206644,-0.277856,-0.938133,0.000000,0.000000,0.000000,-1,0.129613,0.628507,0.843259,0.115626,-0.312369,0.180580
"2019-04-16 11:07:23.057 +0000",1555412843.057161,-0.208843,0.280576,0.772809,-0.199221,-0.276909,-0.940017,0.000000,0.000000,0.000000,-1,0.127532,0.663582,0.936540,0.119463,-0.323067,0.153015
"2019-04-16 11:07:23.077 +0000",1555412843.077150,-0.199451,0.279279,0.792949,-0.190454,-0.275663,-0.942198,0.000000,0.000000,0.000000,-1,0.152489,0.774723,0.971555,0.114389,-0.305407,0.114409
"2019-04-16 11:07:23.097 +0000",1555412843.097168,-0.191454,0.278763,0.814398,-0.182940,-0.275166,-0.943831,0.000000,0.000000,0.000000,-1,0.244044,0.669491,1.052301,0.131549,-0.287181,0.122679
"2019-04-16 11:07:23.117 +0000",1555412843.117157,-0.184196,0.281428,0.837684,-0.175951,-0.277728,-0.944409,0.000000,0.000000,0.000000,-1,0.426670,0.698125,1.093745,0.119997,-0.292203,0.135709
"2019-04-16 11:07:23.137 +0000",1555412843.137176,-0.177047,0.287314,0.862201,-0.168904,-0.283377,-0.944018,0.000000,0.000000,0.000000,-1,0.574870,0.717319,1.115633,0.116276,-0.284601,0.155947
"2019-04-16 11:07:23.157 +0000",1555412843.157195,-0.166631,0.294773,0.886324,-0.158707,-0.290522,-0.943615,0.000000,0.000000,0.000000,-1,0.507150,1.035404,1.023708,0.104065,-0.216237,0.265148
"2019-04-16 11:07:23.177 +0000",1555412843.177183,-0.150755,0.300687,0.908320,-0.143446,-0.296176,-0.944300,0.000000,0.000000,0.000000,-1,0.432167,1.176277,0.982221,0.092558,-0.226086,0.219233
"2019-04-16 11:07:23.197 +0000",1555412843.197202,-0.130559,0.303148,0.928534,-0.124252,-0.298526,-0.946279,0.000000,0.000000,0.000000,-1,0.122802,1.409630,0.877047,0.026291,-0.208783,0.170781
"2019-04-16 11:07:23.217 +0000",1555412843.217190,-0.105992,0.305895,0.947137,-0.100882,-0.301146,-0.948227,0.000000,0.000000,0.000000,-1,0.394358,1.596948,0.876919,0.027747,-0.253892,0.134018
"2019-04-16 11:07:23.237 +0000",1555412843.237209,-0.078446,0.313494,0.964697,-0.074546,-0.308385,-0.948336,0.000000,0.000000,0.000000,-1,0.511667,1.837327,0.718055,0.028251,-0.169368,0.265033
"2019-04-16 11:07:23.257 +0000",1555412843.257227,-0.048717,0.323778,0.979978,-0.046167,-0.318150,-0.946916,0.000000,0.000000,0.000000,-1,0.620249,1.481225,0.710610,-0.000159,-0.249339,0.044557
"2019-04-16 11:07:23.277 +0000",1555412843.277217,-0.031517,0.337366,0.996957,-0.029735,-0.331002,-0.943161,0.000000,0.000000,0.000000,-1,0.778849,0.909850,0.855974,-0.032063,-0.339515,-0.055801
"2019-04-16 11:07:23.297 +0000",1555412843.297236,-0.015575,0.351985,1.015467,-0.014620,-0.344761,-0.938576,0.000000,0.000000,0.000000,-1,0.697277,1.415576,0.826692,-0.095732,-0.235820,0.198312
"2019-04-16 11:07:23.317 +0000",1555412843.317223,0.012075,0.364821,1.032432,0.011280,-0.356782,-0.934120,0.000000,0.000000,0.000000,-1,0.592641,1.836519,0.760892,-0.071614,-0.226302,0.179618
"2019-04-16 11:07:23.337 +0000",1555412843.337243,0.042900,0.375589,1.047552,0.039898,-0.366820,-0.929436,0.000000,0.000000,0.000000,-1,0.438183,1.776048,0.670970,-0.055965,-0.263276,0.099190
"2019-04-16 11:07:23.357 +0000",1555412843.357261,0.071455,0.384691,1.061675,0.066176,-0.375272,-0.924549,0.000000,0.000000,0.000000,-1,0.433326,1.552524,0.721336,-0.001464,-0.363146,0.070377
"2019-04-16 11:07:23.377 +0000",1555412843.377250,0.094080,0.395369,1.077633,0.086695,-0.385149,-0.918773,0.000000,0.000000,0.000000,-1,0.490005,1.383113,0.827571,0.037024,-0.416105,0.122936
"2019-04-16 11:07:23.397 +0000",1555412843.397268,0.116168,0.406986,1.093756,0.106439,-0.395843,-0.912129,0.000000,0.000000,0.000000,-1,0.512665,1.414662,0.741495,0.001074,-0.291138,0.166416
"2019-04-16 11:07:23.417 +0000",1555412843.417256,0.138520,0.418694,1.106231,0.126150,-0.406568,-0.904869,0.000000,0.000000,0.000000,-1,0.501900,1.356319,0.551624,-0.098334,-0.186404,0.118432
