timestamp,timeIntervalSince1970,attitude.roll,attitude.pitch,attitude.yaw,gravity.x,gravity.y,gravity.z,magneticField.x,magneticField.y,magneticField.z,magneticField.accuracy,rotationRate.x,rotationRate.y,rotationRate.z,userAcceleration.x,userAcceleration.y,userAcceleration.z
"2019-04-05 12:10:36.601 +0000",1554466236.601407,-0.011889,0.460646,0.002919,-0.010650,-0.444527,-0.895702,0.000000,0.000000,0.000000,-1,-0.499694,-0.537832,0.155167,-0.114427,0.086495,-0.034092
"2019-04-05 12:10:36.621 +0000",1554466236.621412,-0.027177,0.451510,0.007194,-0.024451,-0.436325,-0.899457,0.000000,0.000000,0.000000,-1,-0.405958,-0.762017,0.238124,-0.066018,0.088867,-0.047702
"2019-04-05 12:10:36.641 +0000",1554466236.641405,-0.047549,0.445325,0.013661,-0.042896,-0.430752,-0.901451,0.000000,0.000000,0.000000,-1,-0.232469,-0.894804,0.326284,-0.055890,0.071041,-0.052575
"2019-04-05 12:10:36.661 +0000",1554466236.661385,-0.062935,0.440473,0.022514,-0.056890,-0.426368,-0.902759,0.000000,0.000000,0.000000,-1,-0.246814,-0.276714,0.504083,-0.081690,0.023764,0.048145
"2019-04-05 12:10:36.681 +0000",1554466236.681389,-0.069327,0.431323,0.039455,-0.062927,-0.418073,-0.906231,0.000000,0.000000,0.000000,-1,-0.532270,0.128481,0.973399,-0.094025,0.002088,0.030834
"2019-04-05 12:10:36.701 +0000",1554466236.701383,-0.075003,0.413509,0.063496,-0.068617,-0.401825,-0.913142,0.000000,0.000000,0.000000,-1,-0.982304,0.362772,1.225104,-0.040331,0.077424,0.026240
"2019-04-05 12:10:36.721 +0000",1554466236.721369,-0.066497,0.387069,0.087566,-0.061533,-0.377475,-0.923973,0.000000,0.000000,0.000000,-1,-1.332494,1.058490,1.147381,-0.067236,0.093006,-0.054680
"2019-04-05 12:10:36.741 +0000",1554466236.741366,-0.058834,0.358914,0.108590,-0.055053,-0.351257,-0.934659,0.000000,0.000000,0.000000,-1,-1.318017,0.588018,1.015241,-0.143311,0.044418,-0.131335
"2019-04-05 12:10:36.761 +0000",1554466236.761354,-0.052081,0.333859,0.123907,-0.049183,-0.327691,-0.943504,0.000000,0.000000,0.000000,-1,-1.139082,0.639477,0.637772,-0.097011,0.061959,0.005851
"2019-04-05 12:10:36.781 +0000",1554466236.781335,-0.042753,0.314252,0.134775,-0.040647,-0.309105,-0.950159,0.000000,0.000000,0.000000,-1,-0.838573,0.615258,0.580501,-0.073519,0.094948,0.043405
"2019-04-05 12:10:36.801 +0000",1554466236.801317,-0.040345,0.300136,0.148069,-0.038531,-0.295650,-0.954519,0.000000,0.000000,0.000000,-1,-0.597522,0.049070,0.673924,-0.035062,0.041561,0.032186
"2019-04-05 12:10:36.821 +0000",1554466236.821312,-0.053455,0.288357,0.159180,-0.051224,-0.284377,-0.957343,0.000000,0.000000,0.000000,-1,-0.579372,-0.736903,0.535022,0.051621,0.092651,0.054358
"2019-04-05 12:10:36.841 +0000",1554466236.841326,-0.065086,0.272457,0.169406,-0.062641,-0.269099,-0.961073,0.000000,0.000000,0.000000,-1,-0.890975,0.032090,0.503376,0.047993,0.058116,0.115477
"2019-04-05 12:10:36.861 +0000",1554466236.861313,-0.055695,0.250487,0.181121,-0.053929,-0.247876,-0.967290,0.000000,0.000000,0.000000,-1,-1.165011,0.841175,0.772016,-0.063152,-0.010181,-0.015300
"2019-04-05 12:10:36.881 +0000",1554466236.881310,-0.042152,0.222866,0.199286,-0.041097,-0.221025,-0.974402,0.000000,0.000000,0.000000,-1,-1.443817,0.813182,1.000932,0.014577,0.126238,-0.278345
"2019-04-05 12:10:36.901 +0000",1554466236.901304,-0.027984,0.195350,0.221913,-0.027448,-0.194110,-0.980596,0.000000,0.000000,0.000000,-1,-1.159061,1.111496,1.353415,-0.183977,0.047198,-0.003474
"2019-04-05 12:10:36.921 +0000",1554466236.921294,-0.018464,0.175683,0.256285,-0.018178,-0.174780,-0.984440,0.000000,0.000000,0.000000,-1,-0.972655,0.365467,1.731038,-0.125712,0.226309,-0.111569
"2019-04-05 12:10:36.941 +0000",1554466236.941288,-0.030355,0.152904,0.278904,-0.029996,-0.152309,-0.987878,0.000000,0.000000,0.000000,-1,-1.083340,-0.697032,0.774452,-0.129062,0.133602,0.072686
"2019-04-05 12:10:36.961 +0000",1554466236.961279,-0.029796,0.139610,0.291877,-0.029501,-0.139157,-0.989831,0.000000,0.000000,0.000000,-1,-0.459098,0.262617,0.731616,0.019675,0.182950,-0.199668
"2019-04-05 12:10:36.981 +0000",1554466236.981273,-0.023517,0.134848,0.312478,-0.023302,-0.134440,-0.990648,0.000000,0.000000,0.000000,-1,-0.074348,0.609715,1.220285,0.076799,0.300394,-0.015410
"2019-04-05 12:10:37.001 +0000",1554466237.001266,-0.005156,0.131581,0.348146,-0.005111,-0.131202,-0.991342,0.000000,0.000000,0.000000,-1,-0.331501,1.741073,2.177871,0.161895,0.151176,0.221659
"2019-04-05 12:10:37.021 +0000",1554466237.021230,0.032179,0.110659,0.404489,0.031976,-0.110433,-0.993369,0.000000,0.000000,0.000000,-1,-1.579327,2.340816,3.070550,-0.088251,0.006246,-0.040750
"2019-04-05 12:10:37.041 +0000",1554466237.041223,0.077489,0.070346,0.470867,0.077220,-0.070288,-0.994533,0.000000,0.000000,0.000000,-1,-2.433185,2.789695,3.106736,-0.127300,0.018256,-0.067524
"2019-04-05 12:10:37.061 +0000",1554466237.061215,0.136372,0.028018,0.526673,0.135896,-0.028014,-0.990327,0.000000,0.000000,0.000000,-1,-2.224014,3.039367,2.118948,-0.077302,0.071777,-0.222350
"2019-04-05 12:10:37.081 +0000",1554466237.081228,0.161765,0.001889,0.556621,0.161060,-0.001889,-0.986943,0.000000,0.000000,0.000000,-1,-1.033730,0.313179,0.861652,0.067181,0.111203,-0.407283
"2019-04-05 12:10:37.101 +0000",1554466237.101212,0.175305,-0.003285,0.570764,0.174408,0.003285,-0.984668,0.000000,0.000000,0.000000,-1,-0.106649,1.091449,0.696818,0.080231,0.093791,-0.010861
"2019-04-05 12:10:37.121 +0000",1554466237.121219,0.206929,-0.001586,0.593692,0.205455,0.001586,-0.978665,0.000000,0.000000,0.000000,-1,-0.302183,1.766249,1.443145,0.039189,0.190369,-0.181018
"2019-04-05 12:10:37.141 +0000",1554466237.141211,0.250429,-0.008271,0.632068,0.247811,0.008271,-0.968773,0.000000,0.000000,0.000000,-1,-0.972738,2.469760,1.910011,0.007941,0.285873,-0.263374
"2019-04-05 12:10:37.161 +0000",1554466237.161204,0.305327,-0.016454,0.669876,0.300565,0.016453,-0.953620,0.000000,0.000000,0.000000,-1,-0.767744,2.743239,1.552505,0.230640,-0.070332,-0.259241
"2019-04-05 12:10:37.181 +0000",1554466237.181176,0.353995,-0.018182,0.697662,0.346590,0.018181,-0.937840,0.000000,0.000000,0.000000,-1,-0.469681,2.267922,1.099014,0.049009,0.037437,-0.157451
"2019-04-05 12:10:37.201 +0000",1554466237.201189,0.405148,-0.022881,0.722933,0.394052,0.022879,-0.918804,0.000000,0.000000,0.000000,-1,-0.861745,2.705311,1.184820,-0.012856,0.230157,-0.105214
"2019-04-05 12:10:37.221 +0000",1554466237.221170,0.456299,-0.026148,0.755355,0.440479,0.026145,-0.897382,0.000000,0.000000,0.000000,-1,-0.637632,2.293981,1.515521,0.142163,0.103386,-0.167956
"2019-04-05 12:10:37.241 +0000",1554466237.241161,0.492554,-0.015155,0.786179,0.472823,0.015155,-0.881027,0.000000,0.000000,0.000000,-1,-0.073731,1.449608,1.635471,0.125352,0.155225,-0.003388
"2019-04-05 12:10:37.261 +0000",1554466237.261153,0.513932,-0.003633,0.815244,0.491602,0.003633,-0.870813,0.000000,0.000000,0.000000,-1,-0.304898,0.872740,1.539465,0.145972,0.100036,0.054559
"2019-04-05 12:10:37.281 +0000",1554466237.281135,0.526312,0.006968,0.848530,0.502335,-0.006968,-0.864645,0.000000,0.000000,0.000000,-1,-0.373602,0.488897,1.849686,0.131118,0.112330,0.080373
"2019-04-05 12:10:37.301 +0000",1554466237.301150,0.536162,0.021411,0.889675,0.510724,-0.021409,-0.859478,0.000000,0.000000,0.000000,-1,-0.479970,0.589342,2.275417,-0.002697,0.160554,0.156552
"2019-04-05 12:10:37.321 +0000",1554466237.321143,0.544884,0.032669,0.934222,0.518042,-0.032663,-0.854731,0.000000,0.000000,0.000000,-1,-0.776324,0.402394,2.098825,-0.054327,0.050073,0.184626
"2019-04-05 12:10:37.341 +0000",1554466237.341112,0.543314,0.038850,0.977695,0.516585,-0.038840,-0.855354,0.000000,0.000000,0.000000,-1,-0.864148,-0.401786,2.051672,-0.098616,0.081595,0.197807
"2019-04-05 12:10:37.361 +0000",1554466237.361126,0.521426,0.048030,1.025286,0.497543,-0.048012,-0.866110,0.000000,0.000000,0.000000,-1,-0.726663,-1.259385,2.430274,-0.154998,0.262321,0.187109
"2019-04-05 12:10:37.381 +0000",1554466237.381119,0.488219,0.060159,1.075618,0.468205,-0.060122,-0.881572,0.000000,0.000000,0.000000,-1,-0.796619,-1.716229,2.438086,-0.132863,0.088519,0.238841
"2019-04-05 12:10:37.401 +0000",1554466237.401109,0.449830,0.058077,1.126020,0.434079,-0.058045,-0.899003,0.000000,0.000000,0.000000,-1,-1.480923,-1.755515,2.057575,-0.167829,0.101303,0.216248
"2019-04-05 12:10:37.421 +0000",1554466237.421103,0.412252,0.045610,1.175129,0.400257,-0.045594,-0.915268,0.000000,0.000000,0.000000,-1,-1.555278,-1.715104,1.975581,-0.109699,0.076814,0.037415
"2019-04-05 12:10:37.441 +0000",1554466237.441067,0.380726,0.036978,1.223209,0.371340,-0.036970,-0.927761,0.000000,0.000000,0.000000,-1,-1.199441,-1.282658,2.084098,-0.093295,0.110273,0.047847
"2019-04-05 12:10:37.461 +0000",1554466237.461085,0.362148,0.028353,1.270799,0.354141,-0.028349,-0.934762,0.000000,0.000000,0.000000,-1,-1.381432,-0.678231,2.025769,-0.092880,0.183653,0.102288
"2019-04-05 12:10:37.481 +0000",1554466237.481081,0.341534,0.012338,1.319072,0.334907,-0.012338,-0.942170,0.000000,0.000000,0.000000,-1,-1.655265,-1.287058,1.997401,-0.106712,0.123193,0.077043
"2019-04-05 12:10:37.501 +0000",1554466237.501049,0.308818,-0.004723,1.365418,0.303929,0.004723,-0.952683,0.000000,0.000000,0.000000,-1,-1.464248,-1.718090,1.822875,-0.148946,0.087943,0.029725
"2019-04-05 12:10:37.521 +0000",1554466237.521064,0.272804,-0.021066,1.404928,0.269373,0.021065,-0.962805,0.000000,0.000000,0.000000,-1,-1.298815,-1.918531,1.568953,-0.154749,0.082924,0.068595
"2019-04-05 12:10:37.541 +0000",1554466237.541058,0.230859,-0.040506,1.440147,0.228627,0.040494,-0.972672,0.000000,0.000000,0.000000,-1,-1.483029,-2.328512,1.394618,-0.137150,0.128558,0.188416
"2019-04-05 12:10:37.561 +0000",1554466237.561043,0.176919,-0.069157,1.471575,0.175577,0.069102,-0.982037,0.000000,0.000000,0.000000,-1,-1.822572,-3.148579,1.167145,-0.139780,0.077444,0.082288
"2019-04-05 12:10:37.581 +0000",1554466237.581012,0.109421,-0.097621,1.496765,0.108682,0.097466,-0.989287,0.000000,0.000000,0.000000,-1,-1.403133,-3.454118,0.965548,-0.109522,0.021079,-0.086076
"2019-04-05 12:10:37.601 +0000",1554466237.601034,0.052350,-0.122851,1.515202,0.051931,0.122542,-0.991104,0.000000,0.000000,0.000000,-1,-1.358317,-2.622051,0.714903,-0.095739,-0.007949,-0.040436
"2019-04-05 12:10:37.621 +0000",1554466237.621063,0.005001,-0.151557,1.529230,0.004944,0.150978,-0.988525,0.000000,0.000000,0.000000,-1,-1.524130,-2.496746,0.678191,0.042877,0.218926,0.150207
"2019-04-05 12:10:37.641 +0000",1554466237.640991,-0.049676,-0.187898,1.545378,-0.048782,0.186795,-0.981187,0.000000,0.000000,0.000000,-1,-2.007742,-3.243035,0.965489,0.094863,0.192279,0.157731
"2019-04-05 12:10:37.661 +0000",1554466237.660985,-0.126302,-0.237553,1.565927,-0.122429,0.235325,-0.964175,0.000000,0.000000,0.000000,-1,-2.315493,-4.525851,1.284796,0.069542,0.147412,0.047854
"2019-04-05 12:10:37.681 +0000",1554466237.681003,-0.218545,-0.290307,1.583378,-0.207738,0.286247,-0.935365,0.000000,0.000000,0.000000,-1,-2.526191,-4.913717,1.290009,0.120290,0.027856,0.008302
"2019-04-05 12:10:37.701 +0000",1554466237.700988,-0.307790,-0.348328,1.595879,-0.284759,0.341327,-0.895772,0.000000,0.000000,0.000000,-1,-2.660405,-4.380587,1.375251,0.002853,-0.008670,0.028387
"2019-04-05 12:10:37.721 +0000",1554466237.720959,-0.375023,-0.406244,1.616204,-0.336481,0.395162,-0.854768,0.000000,0.000000,0.000000,-1,-2.156349,-3.393243,2.270630,-0.018209,-0.176396,-0.114654
"2019-04-05 12:10:37.741 +0000",1554466237.740979,-0.427189,-0.448109,1.651215,-0.373408,0.433262,-0.820275,0.000000,0.000000,0.000000,-1,-0.777443,-3.208436,1.962906,-0.131963,0.207180,-0.238182
"2019-04-05 12:10:37.761 +0000",1554466237.760954,-0.472697,-0.473658,1.668640,-0.405165,0.456145,-0.792322,0.000000,0.000000,0.000000,-1,-1.088848,-2.586032,0.846366,0.013212,0.163484,-0.319434
"2019-04-05 12:10:37.781 +0000",1554466237.780966,-0.529719,-0.504206,1.661789,-0.442412,0.483112,-0.755563,0.000000,0.000000,0.000000,-1,-1.549350,-2.577332,0.400949,0.245802,0.074688,0.054406
"2019-04-05 12:10:37.801 +0000",1554466237.800956,-0.584358,-0.537822,1.655422,-0.473784,0.512266,-0.716318,0.000000,0.000000,0.000000,-1,-1.585671,-2.573547,0.851456,0.273299,0.006990,0.058695
"2019-04-05 12:10:37.821 +0000",1554466237.820950,-0.628538,-0.578851,1.655832,-0.492179,0.547062,-0.677114,0.000000,0.000000,0.000000,-1,-1.698434,-1.787985,1.357477,0.113868,-0.031376,0.026815
"2019-04-05 12:10:37.841 +0000",1554466237.840941,-0.659591,-0.624094,1.659831,-0.497278,0.584362,-0.641277,0.000000,0.000000,0.000000,-1,-1.730110,-1.857156,1.471560,0.061349,-0.016980,-0.165425
"2019-04-05 12:10:37.861 +0000",1554466237.860903,-0.696429,-0.665729,1.661520,-0.504505,0.617633,-0.603328,0.000000,0.000000,0.000000,-1,-1.408421,-1.741011,1.285484,0.020847,-0.003375,-0.086430
"2019-04-05 12:10:37.881 +0000",1554466237.880925,-0.724282,-0.697520,1.665851,-0.507840,0.642319,-0.574043,0.000000,0.000000,0.000000,-1,-0.996865,-1.417678,1.129424,0.096218,-0.040375,-0.010232
"2019-04-05 12:10:37.901 +0000",1554466237.900918,-0.737098,-0.725470,1.674143,-0.502889,0.663487,-0.553975,0.000000,0.000000,0.000000,-1,-0.735291,-0.668714,1.243791,0.175572,0.061229,0.179570
"2019-04-05 12:10:37.921 +0000",1554466237.920898,-0.735435,-0.754656,1.692470,-0.488762,0.685038,-0.540217,0.000000,0.000000,0.000000,-1,-0.563695,-0.506334,1.488306,0.067482,0.061605,0.087275
"2019-04-05 12:10:37.941 +0000",1554466237.940902,-0.731914,-0.781444,1.708272,-0.474421,0.704305,-0.528090,0.000000,0.000000,0.000000,-1,-0.557893,-0.213845,1.120969,0.009180,0.097422,0.089538
"2019-04-05 12:10:37.961 +0000",1554466237.960894,-0.728462,-0.802601,1.714146,-0.462570,0.719166,-0.518488,0.000000,0.000000,0.000000,-1,-0.679633,0.029743,0.735280,0.009353,0.015011,-0.020468
"2019-04-05 12:10:37.981 +0000",1554466237.980886,-0.730904,-0.822044,1.717040,-0.454414,0.732539,-0.506848,0.000000,0.000000,0.000000,-1,-0.650586,-0.424932,0.750560,0.004035,-0.048075,-0.185718
"2019-04-05 12:10:38.001 +0000",1554466238.000936,-0.739986,-0.844712,1.720694,-0.447684,0.747780,-0.490310,0.000000,0.000000,0.000000,-1,-0.834174,-0.671645,0.909840,0.078040,-0.087318,-0.161484
"2019-04-05 12:10:38.021 +0000",1554466238.020872,-0.749462,-0.866992,1.725432,-0.440849,0.762386,-0.473730,0.000000,0.000000,0.000000,-1,-0.568768,-0.606574,0.778470,0.203377,-0.019466,-0.011637
"2019-04-05 12:10:38.041 +0000",1554466238.040863,-0.754164,-0.884622,1.732144,-0.433800,0.773676,-0.461783,0.000000,0.000000,0.000000,-1,-0.530564,-0.368649,0.835902,0.210854,-0.147379,0.144430
"2019-04-05 12:10:38.061 +0000",1554466238.060855,-0.747080,-0.911937,1.743723,-0.416000,0.790691,-0.449168,0.000000,0.000000,0.000000,-1,-0.837860,-0.152665,1.413098,0.174789,-0.064418,-0.066411
"2019-04-05 12:10:38.081 +0000",1554466238.080846,-0.742325,-0.939882,1.761193,-0.398763,0.807488,-0.434684,0.000000,0.000000,0.000000,-1,-0.533271,-0.685530,1.146973,0.139669,0.125602,-0.057427
"2019-04-05 12:10:38.101 +0000",1554466238.100839,-0.739902,-0.961332,1.774897,-0.385940,0.819955,-0.422758,0.000000,0.000000,0.000000,-1,-0.611638,-0.201024,1.019392,0.115447,-0.081872,0.056792
"2019-04-05 12:10:38.121 +0000",1554466238.120807,-0.732306,-0.985743,1.784754,-0.369223,0.833682,-0.410668,0.000000,0.000000,0.000000,-1,-0.718027,-0.008772,0.994057,0.109091,-0.015842,0.065010
"2019-04-05 12:10:38.141 +0000",1554466238.140811,-0.732845,-1.007960,1.791797,-0.356963,0.845745,-0.396602,0.000000,0.000000,0.000000,-1,-0.754616,-0.522823,0.859053,0.103469,0.058964,-0.038472
"2019-04-05 12:10:38.161 +0000",1554466238.160818,-0.740544,-1.031817,1.794954,-0.346291,0.858233,-0.378838,0.000000,0.000000,0.000000,-1,-0.778929,-0.413396,0.839428,0.027856,0.034254,-0.136665
"2019-04-05 12:10:38.181 +0000",1554466238.180811,-0.742999,-1.052111,1.802451,-0.335367,0.868472,-0.365083,0.000000,0.000000,0.000000,-1,-0.510416,-0.466381,0.848933,0.097346,0.000089,-0.095579
"2019-04-05 12:10:38.201 +0000",1554466238.200803,-0.732781,-1.070290,1.822663,-0.321004,0.877340,-0.356695,0.000000,0.000000,0.000000,-1,-0.281560,-0.266738,1.045285,0.231648,0.037653,0.147573
"2019-04-05 12:10:38.221 +0000",1554466238.220795,-0.714792,-1.090081,1.844017,-0.303094,0.886664,-0.349228,0.000000,0.000000,0.000000,-1,-0.520009,0.074187,1.002972,0.148904,0.052255,0.103211
"2019-04-05 12:10:38.241 +0000",1554466238.240787,-0.701327,-1.111479,1.858279,-0.286055,0.896355,-0.338703,0.000000,0.000000,0.000000,-1,-0.584151,-0.133961,0.900969,0.044615,0.038978,0.003742
"2019-04-05 12:10:38.261 +0000",1554466238.260779,-0.692014,-1.129819,1.877044,-0.272352,0.904335,-0.328638,0.000000,0.000000,0.000000,-1,-0.391144,-0.367583,0.912547,0.005292,0.009346,-0.049703
"2019-04-05 12:10:38.281 +0000",1554466238.280772,-0.678182,-1.145928,1.898349,-0.258606,0.911093,-0.320987,0.000000,0.000000,0.000000,-1,-0.287256,-0.251634,0.811362,0.027481,0.079828,0.030917
"2019-04-05 12:10:38.301 +0000",1554466238.300765,-0.660852,-1.158446,1.922121,-0.245985,0.916181,-0.316391,0.000000,0.000000,0.000000,-1,-0.167074,-0.184593,0.758973,0.014417,0.046541,0.050034
"2019-04-05 12:10:38.321 +0000",1554466238.320757,-0.644511,-1.171867,1.940855,-0.233373,0.921478,-0.310510,0.000000,0.000000,0.000000,-1,-0.428517,-0.000825,0.636445,0.096929,-0.008285,0.061624
"2019-04-05 12:10:38.341 +0000",1554466238.340720,-0.655874,-1.190092,1.938694,-0.226606,0.928403,-0.294479,0.000000,0.000000,0.000000,-1,-0.835397,-0.570338,0.530151,0.167157,-0.040586,0.102615
"2019-04-05 12:10:38.361 +0000",1554466238.360741,-0.658168,-1.207623,1.942542,-0.217291,0.934774,-0.281037,0.000000,0.000000,0.000000,-1,-0.544596,-0.183547,0.578970,0.038458,-0.080419,-0.078780
"2019-04-05 12:10:38.381 +0000",1554466238.380733,-0.648043,-1.217672,1.954008,-0.208753,0.938297,-0.275720,0.000000,0.000000,0.000000,-1,-0.181317,-0.238361,0.339813,0.020857,-0.042774,-0.111533
"2019-04-05 12:10:38.401 +0000",1554466238.400716,-0.640151,-1.223797,1.970647,-0.203134,0.940398,-0.272744,0.000000,0.000000,0.000000,-1,0.130861,0.061075,0.645936,0.137750,0.070131,0.027428
"2019-04-05 12:10:38.421 +0000",1554466238.420718,-0.578982,-1.228893,2.027727,-0.183456,0.942118,-0.280637,0.000000,0.000000,0.000000,-1,0.346583,0.259502,0.990322,0.138916,-0.083674,-0.094073
"2019-04-05 12:10:38.441 +0000",1554466238.440712,-0.509330,-1.235854,2.092349,-0.160279,0.944429,-0.286992,0.000000,0.000000,0.000000,-1,0.189343,0.635288,1.188473,-0.003021,-0.200075,0.001759
"2019-04-05 12:10:38.461 +0000",1554466238.460703,-0.421351,-1.242832,2.165769,-0.131744,0.946700,-0.293943,0.000000,0.000000,0.000000,-1,0.318255,0.991256,1.167888,0.062423,0.175889,-0.004671
"2019-04-05 12:10:38.481 +0000",1554466238.480695,-0.351617,-1.241081,2.227216,-0.111513,0.946134,-0.303965,0.000000,0.000000,0.000000,-1,0.471765,0.282160,0.705831,0.075685,0.290682,-0.076269
"2019-04-05 12:10:38.501 +0000",1554466238.500674,-0.315323,-1.239028,2.261243,-0.101012,0.945468,-0.309656,0.000000,0.000000,0.000000,-1,0.092691,0.409789,0.355037,0.250182,0.058988,0.054743
"2019-04-05 12:10:38.521 +0000",1554466238.520682,-0.286775,-1.247427,2.276392,-0.089883,0.948170,-0.304786,0.000000,0.000000,0.000000,-1,-0.542138,0.741890,0.432217,0.328301,0.011363,-0.014398
"2019-04-05 12:10:38.541 +0000",1554466238.540648,-0.246640,-1.262662,2.306849,-0.074045,0.952901,-0.294104,0.000000,0.000000,0.000000,-1,-0.554015,0.410092,0.782697,0.193232,0.114329,-0.072595
"2019-04-05 12:10:38.561 +0000",1554466238.560664,-0.193320,-1.272395,2.366389,-0.056481,0.955808,-0.288516,0.000000,0.000000,0.000000,-1,-0.130683,-0.560899,1.030869,0.210458,-0.260801,0.070574
"2019-04-05 12:10:38.581 +0000",1554466238.580659,-0.179109,-1.290350,2.414976,-0.049310,0.960932,-0.272357,0.000000,0.000000,0.000000,-1,-1.214294,-1.403794,0.935723,0.205850,-0.312708,0.395632
"2019-04-05 12:10:38.601 +0000",1554466238.600628,-0.121066,-1.327670,2.475624,-0.029074,0.970590,-0.238976,0.000000,0.000000,0.000000,-1,-1.882221,0.550443,1.032129,0.194678,-0.079339,0.275811
"2019-04-05 12:10:38.621 +0000",1554466238.620629,-0.050870,-1.362932,2.540839,-0.010493,0.978474,-0.206104,0.000000,0.000000,0.000000,-1,-1.462822,0.016558,0.784514,-0.037663,0.001339,-0.130719
"2019-04-05 12:10:38.641 +0000",1554466238.640637,-0.000166,-1.383060,2.602167,-0.000031,0.982429,-0.186636,0.000000,0.000000,0.000000,-1,-0.758938,-0.617115,0.614381,-0.057907,-0.000633,-0.001917
"2019-04-05 12:10:38.661 +0000",1554466238.660625,0.064067,-1.394446,2.682611,0.011232,0.984491,-0.175078,0.000000,0.000000,0.000000,-1,-0.538263,-0.861475,0.756825,-0.013658,-0.008416,0.024901
"2019-04-05 12:10:38.681 +0000",1554466238.680623,0.131304,-1.403429,2.777066,0.021811,0.986027,-0.165153,0.000000,0.000000,0.000000,-1,-0.489960,-1.618856,0.725026,-0.038656,0.084438,-0.290139
"2019-04-05 12:10:38.701 +0000",1554466238.700615,0.158891,-1.406775,2.838904,0.025836,0.986579,-0.161231,0.000000,0.000000,0.000000,-1,-0.036915,-1.491751,0.268566,0.055539,0.220300,-0.111901
"2019-04-05 12:10:38.721 +0000",1554466238.720606,0.129331,-1.400539,2.825260,0.021852,0.985541,-0.168020,0.000000,0.000000,0.000000,-1,0.495239,-0.293756,-0.211551,0.113539,0.221124,-0.029627
"2019-04-05 12:10:38.741 +0000",1554466238.740599,0.095357,-1.390781,2.784527,0.017047,0.983841,-0.178232,0.000000,0.000000,0.000000,-1,0.478088,0.507342,-0.324566,0.100995,0.182709,-0.039984
"2019-04-05 12:10:38.761 +0000",1554466238.760574,0.072125,-1.387456,2.750155,0.013138,0.983240,-0.181841,0.000000,0.000000,0.000000,-1,-0.009154,0.486795,-0.252817,0.018448,0.085470,-0.020658
"2019-04-05 12:10:38.781 +0000",1554466238.780583,0.065816,-1.391155,2.737164,0.011751,0.983908,-0.178290,0.000000,0.000000,0.000000,-1,-0.201514,0.185881,-0.075115,0.035017,0.086176,-0.017266
"2019-04-05 12:10:38.801 +0000",1554466238.800577,0.058458,-1.393367,2.729962,0.010312,0.984301,-0.176198,0.000000,0.000000,0.000000,-1,-0.049693,-0.096610,-0.083212,0.037463,0.053922,-0.027233
"2019-04-05 12:10:38.821 +0000",1554466238.820541,0.036779,-1.393075,2.712385,0.006501,0.984249,-0.176667,0.000000,0.000000,0.000000,-1,0.070100,-0.307813,-0.220665,-0.012345,-0.054714,-0.071242
"2019-04-05 12:10:38.841 +0000",1554466238.840563,-0.014450,-1.389496,2.670790,-0.002605,0.983610,-0.180290,0.000000,0.000000,0.000000,-1,0.256655,-0.622995,-0.454986,-0.018772,-0.096403,-0.099495
"2019-04-05 12:10:38.861 +0000",1554466238.860553,-0.078208,-1.382267,2.614188,-0.014642,0.982281,-0.186842,0.000000,0.000000,0.000000,-1,0.334677,-0.143736,-0.564181,0.070291,-0.024990,-0.010546
"2019-04-05 12:10:38.881 +0000",1554466238.880545,-0.132406,-1.379497,2.548901,-0.025102,0.981758,-0.188471,0.000000,0.000000,0.000000,-1,-0.130945,0.855750,-0.643873,0.261247,0.115975,0.114679
"2019-04-05 12:10:38.901 +0000",1554466238.900539,-0.168254,-1.386644,2.491285,-0.030664,0.983092,-0.180527,0.000000,0.000000,0.000000,-1,-0.599163,0.994348,-0.318105,0.220972,0.043291,0.053391
"2019-04-05 12:10:38.921 +0000",1554466238.920530,-0.162753,-1.403736,2.480249,-0.026944,0.986078,-0.164088,0.000000,0.000000,0.000000,-1,-1.004688,0.827870,0.231493,0.185819,0.062934,-0.061285
"2019-04-05 12:10:38.941 +0000",1554466238.940523,-0.131519,-1.427206,2.490081,-0.018766,0.989709,-0.141861,0.000000,0.000000,0.000000,-1,-1.209778,1.055155,0.178096,0.203779,0.105338,-0.091675
"2019-04-05 12:10:38.960 +0000",1554466238.960490,-0.138662,-1.450035,2.470286,-0.016651,0.992717,-0.119312,0.000000,0.000000,0.000000,-1,-1.098992,0.392525,-0.027090,0.112949,0.074269,-0.117688
"2019-04-05 12:10:38.980 +0000",1554466238.980486,-0.160151,-1.469840,2.444545,-0.016072,0.994908,-0.099495,0.000000,0.000000,0.000000,-1,-0.913977,0.120621,0.018792,-0.051097,-0.057088,-0.075355
"2019-04-05 12:10:39.001 +0000",1554466239.000501,-0.199933,-1.483207,2.405039,-0.017373,0.996167,-0.085735,0.000000,0.000000,0.000000,-1,-0.556576,-0.012910,-0.118442,-0.035956,-0.029995,-0.037449
"2019-04-05 12:10:39.020 +0000",1554466239.020482,-0.258067,-1.489726,2.340631,-0.020668,0.996716,-0.078300,0.000000,0.000000,0.000000,-1,-0.306068,0.435618,-0.214014,0.048072,0.117084,0.105339
"2019-04-05 12:10:39.040 +0000",1554466239.040465,-0.331653,-1.494876,2.256920,-0.024696,0.997119,-0.071714,0.000000,0.000000,0.000000,-1,-0.402160,0.564173,-0.276979,0.060112,0.168972,0.149442
"2019-04-05 12:10:39.060 +0000",1554466239.060474,-0.474865,-1.502179,2.098198,-0.031348,0.997647,-0.060976,0.000000,0.000000,0.000000,-1,-0.659115,0.789390,-0.415777,-0.049127,0.108585,0.060351
"2019-04-05 12:10:39.080 +0000",1554466239.080470,-0.680484,-1.511787,1.884644,-0.037105,0.998259,-0.045839,0.000000,0.000000,0.000000,-1,-0.796663,0.037012,-0.233999,-0.125203,0.099870,-0.089171
"2019-04-05 12:10:39.100 +0000",1554466239.100463,-0.897220,-1.518210,1.675913,-0.041083,0.998618,-0.032788,0.000000,0.000000,0.000000,-1,-0.513208,-0.573724,-0.187278,-0.016366,0.108667,-0.112674
"2019-04-05 12:10:39.120 +0000",1554466239.120457,-1.065817,-1.518600,1.515752,-0.045661,0.998638,-0.025241,0.000000,0.000000,0.000000,-1,-0.275306,-0.256993,-0.221153,-0.021020,0.093433,-0.129911
"2019-04-05 12:10:39.140 +0000",1554466239.140425,-1.137283,-1.514880,1.443161,-0.050719,0.998437,-0.023477,0.000000,0.000000,0.000000,-1,0.022835,0.169230,-0.295222,0.054961,0.058158,-0.051917
"2019-04-05 12:10:39.160 +0000",1554466239.160440,-1.138610,-1.508983,1.437001,-0.056095,0.998090,-0.025875,0.000000,0.000000,0.000000,-1,0.092503,0.267966,-0.197476,0.154529,-0.116498,-0.065190
"2019-04-05 12:10:39.180 +0000",1554466239.180419,-1.148101,-1.506692,1.411426,-0.058423,0.997946,-0.026279,0.000000,0.000000,0.000000,-1,-0.073246,1.168637,-0.100132,0.195844,-0.076727,0.164799
"2019-04-05 12:10:39.200 +0000",1554466239.200425,-1.182845,-1.506337,1.355240,-0.059628,0.997923,-0.024368,0.000000,0.000000,0.000000,-1,-0.201187,0.872160,-0.077914,0.276333,-0.025526,0.164581
"2019-04-05 12:10:39.220 +0000",1554466239.220417,-1.262841,-1.508214,1.267907,-0.059599,0.998042,-0.018957,0.000000,0.000000,0.000000,-1,-0.375305,0.056062,0.064149,0.197234,-0.030330,0.054037
"2019-04-05 12:10:39.240 +0000",1554466239.240393,-1.433889,-1.516691,1.097174,-0.053573,0.998537,-0.007381,0.000000,0.000000,0.000000,-1,-0.704659,0.023642,0.447783,0.102600,-0.136217,-0.055134
"2019-04-05 12:10:39.260 +0000",1554466239.260401,-1.735199,-1.524711,0.789427,-0.045448,0.998938,0.007540,0.000000,0.000000,0.000000,-1,-0.678969,0.432812,0.285781,0.091972,-0.053580,-0.065538
"2019-04-05 12:10:39.280 +0000",1554466239.280396,-1.813584,-1.526167,0.711865,-0.043305,0.999004,0.010726,0.000000,0.000000,0.000000,-1,0.141518,-0.356949,0.101411,0.059800,-0.022045,-0.204573
"2019-04-05 12:10:39.300 +0000",1554466239.300386,-1.598632,-1.534437,0.939058,-0.036336,0.999339,0.001012,0.000000,0.000000,0.000000,-1,0.759889,-0.713961,0.499961,0.037847,-0.079707,-0.094701
"2019-04-05 12:10:39.320 +0000",1554466239.320328,-0.802478,-1.536679,1.742687,-0.024528,0.999418,-0.023704,0.000000,0.000000,0.000000,-1,1.528798,0.004518,0.555209,0.250816,0.098131,0.158683
"2019-04-05 12:10:39.340 +0000",1554466239.340327,-0.277552,-1.506548,2.256779,-0.017592,0.997937,-0.061747,0.000000,0.000000,0.000000,-1,2.076780,0.853982,0.172380,0.248259,0.219882,0.212626
"2019-04-05 12:10:39.360 +0000",1554466239.360325,-0.151239,-1.465369,2.366780,-0.015855,0.994448,-0.104030,0.000000,0.000000,0.000000,-1,2.001799,0.608760,-0.043700,0.100434,0.217527,0.026287
"2019-04-05 12:10:39.380 +0000",1554466239.380297,-0.123179,-1.436388,2.395177,-0.016465,0.990981,-0.132988,0.000000,0.000000,0.000000,-1,1.087384,-0.288372,0.009350,-0.006027,0.106370,-0.229256
"2019-04-05 12:10:39.400 +0000",1554466239.400300,-0.107137,-1.423726,2.414184,-0.015670,0.989205,-0.145701,0.000000,0.000000,0.000000,-1,0.493569,0.126648,0.050419,0.067535,0.041115,0.012598
"2019-04-05 12:10:39.420 +0000",1554466239.420303,-0.094740,-1.409539,2.412515,-0.015189,0.987026,-0.159839,0.000000,0.000000,0.000000,-1,0.956950,0.979106,-0.181698,0.066443,0.016300,0.112445
"2019-04-05 12:10:39.440 +0000",1554466239.440289,-0.099769,-1.378061,2.382762,-0.019079,0.981484,-0.190592,0.000000,0.000000,0.000000,-1,1.866299,1.248690,-0.525985,0.051870,-0.038384,0.194620
"2019-04-05 12:10:39.460 +0000",1554466239.460265,-0.115781,-1.336018,2.349686,-0.026874,0.972566,-0.231070,0.000000,0.000000,0.000000,-1,2.030778,0.476495,-0.556194,0.078159,-0.009660,0.028861
"2019-04-05 12:10:39.480 +0000",1554466239.480282,-0.138373,-1.301569,2.326478,-0.036688,0.963977,-0.263444,0.000000,0.000000,0.000000,-1,1.403398,-0.172994,-0.474528,0.142523,-0.015491,-0.002257
"2019-04-05 12:10:39.500 +0000",1554466239.500260,-0.152321,-1.280140,2.309504,-0.043484,0.958056,-0.283263,0.000000,0.000000,0.000000,-1,0.854569,0.354550,-0.326768,0.128689,-0.120898,0.038435
"2019-04-05 12:10:39.520 +0000",1554466239.520235,-0.155438,-1.264480,2.296016,-0.046684,0.953451,-0.297913,0.000000,0.000000,0.000000,-1,0.727514,0.486210,-0.323215,0.058265,-0.130026,-0.007644
"2019-04-05 12:10:39.540 +0000",1554466239.540225,-0.158654,-1.248067,2.284183,-0.050107,0.948373,-0.313172,0.000000,0.000000,0.000000,-1,0.821310,0.350272,-0.313583,0.081510,-0.104944,0.030122
"2019-04-05 12:10:39.560 +0000",1554466239.560251,-0.169705,-1.229606,2.267265,-0.056513,0.942357,-0.329802,0.000000,0.000000,0.000000,-1,0.859591,0.141184,-0.484837,0.140222,-0.093968,0.072524
"2019-04-05 12:10:39.580 +0000",1554466239.580244,-0.192403,-1.215831,2.247758,-0.066459,0.937659,-0.341144,0.000000,0.000000,0.000000,-1,0.407640,-0.445558,-0.380700,0.200965,-0.197699,-0.148403
"2019-04-05 12:10:39.600 +0000",1554466239.600210,-0.213839,-1.214932,2.235950,-0.073935,0.937346,-0.340465,0.000000,0.000000,0.000000,-1,-0.213825,-0.437637,-0.124341,0.200278,-0.144423,-0.187352
"2019-04-05 12:10:39.620 +0000",1554466239.620228,-0.225336,-1.221470,2.227587,-0.076473,0.939604,-0.333612,0.000000,0.000000,0.000000,-1,-0.349958,-0.061727,-0.040966,0.256344,-0.073728,-0.148047
"2019-04-05 12:10:39.640 +0000",1554466239.640221,-0.223005,-1.224953,2.231066,-0.074971,0.940790,-0.330596,0.000000,0.000000,0.000000,-1,-0.020335,-0.098975,0.201264,0.208135,-0.075830,-0.047670
"2019-04-05 12:10:39.660 +0000",1554466239.660187,-0.211126,-1.224177,2.250715,-0.071192,0.940527,-0.332177,0.000000,0.000000,0.000000,-1,0.134017,-0.475122,0.366892,0.139628,-0.087621,-0.021186
"2019-04-05 12:10:39.680 +0000",1554466239.680207,-0.200703,-1.226310,2.275079,-0.067326,0.941249,-0.330934,0.000000,0.000000,0.000000,-1,-0.157120,-0.637926,0.449485,0.062107,-0.059337,-0.010817
"2019-04-05 12:10:39.700 +0000",1554466239.700199,-0.188092,-1.238437,2.294936,-0.061008,0.945275,-0.320519,0.000000,0.000000,0.000000,-1,-0.809582,-0.032705,0.415060,0.081333,-0.023782,0.092217
"2019-04-05 12:10:39.720 +0000",1554466239.720171,-0.182317,-1.264853,2.299152,-0.054609,0.953563,-0.296201,0.000000,0.000000,0.000000,-1,-1.519678,0.041471,0.230385,0.059812,0.003483,0.052762
"2019-04-05 12:10:39.740 +0000",1554466239.740182,-0.201884,-1.297718,2.282847,-0.054078,0.962945,-0.264220,0.000000,0.000000,0.000000,-1,-1.692464,-0.390769,0.011680,0.031328,-0.009957,0.008483
"2019-04-05 12:10:39.760 +0000",1554466239.760176,-0.242246,-1.329919,2.251944,-0.057225,0.971129,-0.231590,0.000000,0.000000,0.000000,-1,-1.609322,-0.487341,-0.045417,-0.002803,-0.025847,-0.048073
"2019-04-05 12:10:39.780 +0000",1554466239.780168,-0.293152,-1.357438,2.206350,-0.061188,0.977325,-0.202710,0.000000,0.000000,0.000000,-1,-1.357440,-0.269271,-0.207228,0.075241,-0.046814,0.006070
"2019-04-05 12:10:39.800 +0000",1554466239.800161,-0.367177,-1.377873,2.134885,-0.068827,0.981448,-0.178949,0.000000,0.000000,0.000000,-1,-1.131250,-0.106404,-0.422464,0.115153,0.150312,0.038003
"2019-04-05 12:10:39.820 +0000",1554466239.820151,-0.446718,-1.394868,2.051561,-0.075611,0.984564,-0.157848,0.000000,0.000000,0.000000,-1,-1.059389,0.246188,-0.282080,0.061665,0.032159,0.046016
"2019-04-05 12:10:39.840 +0000",1554466239.840115,-0.510060,-1.411463,1.979263,-0.077463,0.987333,-0.138465,0.000000,0.000000,0.000000,-1,-0.968919,0.455330,-0.097356,0.075998,0.011873,0.033210
"2019-04-05 12:10:39.860 +0000",1554466239.860116,-0.556330,-1.424075,1.923819,-0.077202,0.989256,-0.124149,0.000000,0.000000,0.000000,-1,-0.600000,0.330104,-0.031687,0.055840,-0.034849,0.035908
"2019-04-05 12:10:39.880 +0000",1554466239.880115,-0.593952,-1.428445,1.886127,-0.079397,0.989885,-0.117574,0.000000,0.000000,0.000000,-1,-0.179256,-0.172018,-0.170719,-0.024607,0.063582,-0.045512
"2019-04-05 12:10:39.900 +0000",1554466239.900123,-0.624014,-1.425073,1.858114,-0.084844,0.989401,-0.117842,0.000000,0.000000,0.000000,-1,0.125539,-0.000690,-0.306430,-0.018580,0.033472,-0.023897
"2019-04-05 12:10:39.920 +0000",1554466239.920085,-0.647132,-1.416549,1.828794,-0.092627,0.988128,-0.122573,0.000000,0.000000,0.000000,-1,0.241946,0.462779,-0.542689,0.065329,-0.058547,0.020721
"2019-04-05 12:10:39.940 +0000",1554466239.940085,-0.688099,-1.402711,1.775227,-0.106244,0.985907,-0.129228,0.000000,0.000000,0.000000,-1,0.301353,0.696837,-0.860337,0.071515,-0.492865,-0.016173
"2019-04-05 12:10:39.960 +0000",1554466239.960100,-0.709082,-1.389426,1.735186,-0.117450,0.983597,-0.136899,0.000000,0.000000,0.000000,-1,0.243117,0.993924,-0.521705,0.084903,-0.736314,-0.083743
"2019-04-05 12:10:39.980 +0000",1554466239.980092,-0.702555,-1.385812,1.725483,-0.118850,0.982939,-0.140375,0.000000,0.000000,0.000000,-1,-0.029817,0.611872,0.017726,0.070739,-0.744948,-0.094168
"2019-04-05 12:10:40.000 +0000",1554466240.000089,-0.683051,-1.393846,1.738164,-0.111103,0.984385,-0.136537,0.000000,0.000000,0.000000,-1,-0.364869,0.213899,0.512200,0.104389,-0.733881,0.072084
"2019-04-05 12:10:40.020 +0000",1554466240.020080,-0.664968,-1.411737,1.754462,-0.097731,0.987377,-0.124642,0.000000,0.000000,0.000000,-1,-0.766150,0.060549,0.679798,0.091018,-0.736873,0.060189
"2019-04-05 12:10:40.040 +0000",1554466240.040072,-0.674749,-1.429160,1.737721,-0.088185,0.989986,-0.110229,0.000000,0.000000,0.000000,-1,-0.671526,0.565603,0.277320,0.206105,-0.490124,0.305587
"2019-04-05 12:10:40.060 +0000",1554466240.060065,-0.694986,-1.440855,1.702350,-0.082977,0.991570,-0.099522,0.000000,0.000000,0.000000,-1,-0.648814,0.676124,0.250173,0.089706,-0.687233,0.208973
"2019-04-05 12:10:40.080 +0000",1554466240.080028,-0.783414,-1.459902,1.619162,-0.078098,0.993858,-0.078409,0.000000,0.000000,0.000000,-1,-1.311410,-0.889047,0.269733,0.121327,-0.679542,0.004343
"2019-04-05 12:10:40.100 +0000",1554466240.100049,-1.087238,-1.489866,1.349961,-0.071573,0.996727,-0.037586,0.000000,0.000000,0.000000,-1,-2.288372,-2.350514,0.532288,0.131296,-0.792580,-0.014553
"2019-04-05 12:10:40.120 +0000",1554466240.120042,-1.887237,-1.506786,0.608259,-0.060791,0.997952,0.019906,0.000000,0.000000,0.000000,-1,-2.837584,-3.235731,0.545163,0.108856,-0.878232,0.037025
"2019-04-05 12:10:40.140 +0000",1554466240.140022,-2.582727,-1.479545,-0.020130,-0.048317,0.995839,0.077261,0.000000,0.000000,0.000000,-1,-2.469067,-3.526463,0.391408,0.108986,-0.890828,0.071055
"2019-04-05 12:10:40.160 +0000",1554466240.160025,-2.843231,-1.447251,-0.211946,-0.036224,0.992378,0.117787,0.000000,0.000000,0.000000,-1,-1.544704,-3.416351,0.180082,0.097626,-0.895210,0.042522
"2019-04-05 12:10:40.180 +0000",1554466240.180016,-2.965366,-1.425926,-0.268733,-0.025309,0.989525,0.142129,0.000000,0.000000,0.000000,-1,-0.924245,-3.249162,0.099286,0.068629,-0.925850,-0.006844
"2019-04-05 12:10:40.200 +0000",1554466240.200010,-3.052186,-1.413104,-0.290652,-0.014022,0.987592,0.156413,0.000000,0.000000,0.000000,-1,-0.495015,-3.296702,0.058890,0.040175,-0.948850,-0.075343
"2019-04-05 12:10:40.220 +0000",1554466240.220001,3.110106,-1.413091,-0.346132,0.004944,0.987590,0.156974,0.000000,0.000000,0.000000,-1,0.691499,-2.869379,1.486161,0.229797,1.887959,0.064309
"2019-04-05 12:10:40.240 +0000",1554466240.239995,2.512102,-1.506467,-1.031343,0.037847,0.997932,0.051963,0.000000,0.000000,0.000000,-1,6.223094,6.786787,2.638009,1.247401,5.827706,1.802575
"2019-04-05 12:10:40.260 +0000",1554466240.259987,1.454026,-1.444375,-2.212441,0.125226,0.992019,-0.014690,0.000000,0.000000,0.000000,-1,2.383024,5.156018,3.934492,1.098681,2.669800,-0.495900
"2019-04-05 12:10:40.280 +0000",1554466240.279957,1.463752,-1.417656,-2.279555,0.151670,0.988297,-0.016298,0.000000,0.000000,0.000000,-1,-0.078435,3.322995,-0.065743,0.340808,0.671859,-0.395247
"2019-04-05 12:10:40.300 +0000",1554466240.299973,1.560907,-1.441687,-2.245019,0.128745,0.991677,-0.001273,0.000000,0.000000,0.000000,-1,-0.275521,3.141681,-1.588882,-0.063315,-0.358498,-0.071481
"2019-04-05 12:10:40.320 +0000",1554466240.319940,1.656927,-1.478505,-2.210187,0.091819,0.995744,0.007928,0.000000,0.000000,0.000000,-1,-0.041182,3.013560,-1.888885,-0.074073,-0.470628,-0.081857
"2019-04-05 12:10:40.340 +0000",1554466240.339934,1.730459,-1.510434,-2.195653,0.059559,0.998179,0.009591,0.000000,0.000000,0.000000,-1,0.298150,2.803772,-1.195738,-0.092777,-0.420832,-0.076409
"2019-04-05 12:10:40.360 +0000",1554466240.359950,1.514723,-1.506093,-2.450124,0.064557,0.997907,-0.003624,0.000000,0.000000,0.000000,-1,0.973339,1.466636,0.971001,-0.226910,-0.105146,-0.123635
"2019-04-05 12:10:40.380 +0000",1554466240.379943,1.335781,-1.485486,-2.652792,0.082865,0.996363,-0.019841,0.000000,0.000000,0.000000,-1,0.759489,1.047217,0.657397,-0.078730,0.051885,-0.142268
"2019-04-05 12:10:40.400 +0000",1554466240.399936,1.286315,-1.479760,-2.720511,0.087257,0.995859,-0.025515,0.000000,0.000000,0.000000,-1,0.121825,0.812774,-0.012743,0.016366,0.192434,-0.143690
"2019-04-05 12:10:40.420 +0000",1554466240.419927,1.334671,-1.481320,-2.684903,0.086878,0.996000,-0.020904,0.000000,0.000000,0.000000,-1,-0.302449,0.507643,0.010575,-0.052439,-0.034955,-0.114975
"2019-04-05 12:10:40.440 +0000",1554466240.439921,1.420878,-1.481308,-2.600794,0.088367,0.995999,-0.013348,0.000000,0.000000,0.000000,-1,-0.405371,-0.180880,0.093319,-0.043659,-0.100186,-0.114276
"2019-04-05 12:10:40.460 +0000",1554466240.459913,1.530184,-1.481980,-2.470934,0.088626,0.996058,-0.003601,0.000000,0.000000,0.000000,-1,-0.713804,-1.570428,-0.043135,0.055814,0.005467,-0.206726
"2019-04-05 12:10:40.480 +0000",1554466240.479907,1.680480,-1.481595,-2.270803,0.088547,0.996024,0.009751,0.000000,0.000000,0.000000,-1,-0.955051,-2.914507,0.070080,0.052398,-0.022987,-0.160630
"2019-04-05 12:10:40.500 +0000",1554466240.499881,1.803715,-1.473733,-2.077801,0.094293,0.995293,0.022369,0.000000,0.000000,0.000000,-1,-0.916301,-3.710390,0.293417,0.081549,0.034126,-0.133651
"2019-04-05 12:10:40.520 +0000",1554466240.519892,1.860467,-1.464135,-1.940518,0.102024,0.994317,0.030409,0.000000,0.000000,0.000000,-1,-0.719680,-4.124530,0.228764,0.112301,0.114509,-0.111891
"2019-04-05 12:10:40.540 +0000",1554466240.539882,1.863635,-1.457880,-1.854074,0.107879,0.993632,0.032526,0.000000,0.000000,0.000000,-1,-0.420471,-4.057398,0.179201,0.083908,-0.033930,-0.032923
"2019-04-05 12:10:40.560 +0000",1554466240.559848,1.818131,-1.452513,-1.824786,0.114416,0.993013,0.028891,0.000000,0.000000,0.000000,-1,-0.145457,-3.510182,0.204934,0.106119,-0.056062,-0.008810
"2019-04-05 12:10:40.580 +0000",1554466240.579869,1.762859,-1.449338,-1.817532,0.118933,0.992633,0.023128,0.000000,0.000000,0.000000,-1,-0.066945,-2.902406,0.121299,0.144175,-0.037463,-0.007472
"2019-04-05 12:10:40.600 +0000",1554466240.599860,1.727966,-1.446415,-1.801449,0.122531,0.992275,0.019418,0.000000,0.000000,0.000000,-1,-0.164802,-2.330937,0.133374,0.166745,-0.020412,-0.014780
"2019-04-05 12:10:40.620 +0000",1554466240.619853,1.722094,-1.443323,-1.767448,0.125676,0.991886,0.019161,0.000000,0.000000,0.000000,-1,-0.271611,-1.773246,0.108032,0.172847,-0.016331,-0.006435
"2019-04-05 12:10:40.640 +0000",1554466240.639847,1.736662,-1.440426,-1.723656,0.128218,0.991514,0.021464,0.000000,0.000000,0.000000,-1,-0.302962,-1.252712,0.098526,0.172457,-0.015668,-0.003382
"2019-04-05 12:10:40.660 +0000",1554466240.659839,1.750316,-1.437499,-1.689377,0.130768,0.991129,0.023731,0.000000,0.000000,0.000000,-1,-0.194840,-0.905287,0.110640,0.165817,-0.017847,-0.000888
"2019-04-05 12:10:40.680 +0000",1554466240.679809,1.738509,-1.435115,-1.684883,0.133368,0.990809,0.022580,0.000000,0.000000,0.000000,-1,0.055493,-0.785114,0.111832,0.151956,-0.033748,0.002933
"2019-04-05 12:10:40.700 +0000",1554466240.699794,1.683648,-1.433618,-1.723833,0.135878,0.990606,0.015400,0.000000,0.000000,0.000000,-1,0.364424,-0.833868,0.125387,0.121263,-0.049749,0.002880
"2019-04-05 12:10:40.720 +0000",1554466240.719794,1.594666,-1.430235,-1.797742,0.140059,0.990138,0.003344,0.000000,0.000000,0.000000,-1,0.569796,-0.741352,0.139720,0.072267,-0.029963,0.011640
"2019-04-05 12:10:40.740 +0000",1554466240.739810,1.501452,-1.427697,-1.879252,0.142269,0.989779,-0.009881,0.000000,0.000000,0.000000,-1,0.555402,-0.551159,0.095064,0.068776,-0.003878,0.015985
"2019-04-05 12:10:40.760 +0000",1554466240.759788,1.433442,-1.425342,-1.939738,0.143577,0.989440,-0.019846,0.000000,0.000000,0.000000,-1,0.369146,-0.317511,0.062293,0.068032,0.042390,0.016077
"2019-04-05 12:10:40.780 +0000",1554466240.779790,1.428864,-1.414520,-1.941235,0.154076,0.987814,-0.022016,0.000000,0.000000,0.000000,-1,0.180947,-0.128481,0.018186,0.042824,0.032160,0.012342
"2019-04-05 12:10:40.800 +0000",1554466240.799785,1.412802,-1.413994,-1.955636,0.154215,0.987732,-0.024570,0.000000,0.000000,0.000000,-1,0.091547,-0.090272,0.007372,0.036855,0.016373,0.016879
"2019-04-05 12:10:40.820 +0000",1554466240.819777,1.423216,-1.406448,-1.943157,0.161831,0.986525,-0.024058,0.000000,0.000000,0.000000,-1,0.093702,-0.138083,0.006809,0.038441,0.021242,0.011470
"2019-04-05 12:10:40.840 +0000",1554466240.839756,1.425433,-1.398227,-1.938618,0.169902,0.985147,-0.024873,0.000000,0.000000,0.000000,-1,0.109734,-0.135951,0.001848,0.056035,-0.003793,0.010438
"2019-04-05 12:10:40.860 +0000",1554466240.859766,1.427094,-1.392554,-1.936022,0.175473,0.984157,-0.025391,0.000000,0.000000,0.000000,-1,0.061420,0.005300,0.011328,0.030643,-0.022319,0.009049
"2019-04-05 12:10:40.880 +0000",1554466240.879756,1.431690,-1.390237,-1.934642,0.177845,0.983743,-0.024900,0.000000,0.000000,0.000000,-1,0.019703,0.243246,0.003015,0.011273,-0.024957,0.004606
"2019-04-05 12:10:40.900 +0000",1554466240.899749,1.437411,-1.390170,-1.936313,0.178050,0.983731,-0.023891,0.000000,0.000000,0.000000,-1,0.018524,0.428097,-0.002896,0.005605,-0.010297,-0.005406
"2019-04-05 12:10:40.920 +0000",1554466240.919715,1.441760,-1.390171,-1.941590,0.178152,0.983732,-0.023116,0.000000,0.000000,0.000000,-1,0.083825,0.517389,-0.025731,0.033335,0.018954,0.010559
"2019-04-05 12:10:40.940 +0000",1554466240.939735,1.395009,-1.398458,-2.016371,0.168843,0.985187,-0.029990,0.000000,0.000000,0.000000,-1,0.968982,1.993118,-0.790819,0.380702,-0.005420,0.273932
"2019-04-05 12:10:40.960 +0000",1554466240.959727,1.315141,-1.396364,-2.148798,0.167908,0.984825,-0.043887,0.000000,0.000000,0.000000,-1,1.116550,2.712394,0.278405,-0.029679,-0.102333,0.036288
"2019-04-05 12:10:40.980 +0000",1554466240.979698,1.285633,-1.385431,-2.231540,0.176863,0.982869,-0.051848,0.000000,0.000000,0.000000,-1,0.691609,2.459407,0.210560,-0.032042,0.008144,-0.071931
"2019-04-05 12:10:41.000 +0000",1554466240.999711,1.287737,-1.382454,-2.272869,0.179780,0.982316,-0.052293,0.000000,0.000000,0.000000,-1,0.253490,1.935667,-0.006713,-0.023225,0.039413,-0.074218
"2019-04-05 12:10:41.020 +0000",1554466241.019704,1.314624,-1.382013,-2.276409,0.181540,0.982233,-0.047550,0.000000,0.000000,0.000000,-1,-0.077542,1.232215,0.013584,-0.040854,0.062856,-0.095577
"2019-04-05 12:10:41.040 +0000",1554466241.039696,1.350094,-1.382775,-2.253150,0.182382,0.982376,-0.040919,0.000000,0.000000,0.000000,-1,-0.293985,0.238819,0.021839,-0.047616,0.007477,-0.136861
"2019-04-05 12:10:41.060 +0000",1554466241.059688,1.380359,-1.383256,-2.213486,0.183072,0.982466,-0.035291,0.000000,0.000000,0.000000,-1,-0.391670,-0.816170,0.071627,-0.049207,-0.010038,-0.134585
"2019-04-05 12:10:41.080 +0000",1554466241.079674,1.393115,-1.382400,-2.174639,0.184335,0.982306,-0.033102,0.000000,0.000000,0.000000,-1,-0.309720,-1.485446,0.125147,-0.029290,-0.016837,-0.082331
"2019-04-05 12:10:41.100 +0000",1554466241.099674,1.386306,-1.380811,-2.147489,0.185640,0.982007,-0.034643,0.000000,0.000000,0.000000,-1,-0.199515,-1.743526,0.118066,0.020094,0.021060,-0.028254
"2019-04-05 12:10:41.120 +0000",1554466241.119666,1.370229,-1.379273,-2.128410,0.186539,0.981715,-0.037923,0.000000,0.000000,0.000000,-1,-0.149311,-1.707371,0.109239,0.030426,0.023991,-0.013270
"2019-04-05 12:10:41.140 +0000",1554466241.139646,1.354724,-1.377557,-2.111861,0.187574,0.981387,-0.041172,0.000000,0.000000,0.000000,-1,-0.134773,-1.506592,0.118467,0.055987,0.014569,0.004673
"2019-04-05 12:10:41.160 +0000",1554466241.159627,1.343723,-1.375631,-2.095845,0.188951,0.981016,-0.043659,0.000000,0.000000,0.000000,-1,-0.126974,-1.228283,0.142875,0.066115,0.020251,0.009845
"2019-04-05 12:10:41.180 +0000",1554466241.179641,1.339049,-1.373034,-2.079231,0.191223,0.980509,-0.045126,0.000000,0.000000,0.000000,-1,-0.127725,-0.941479,0.168090,0.084732,-0.000498,0.025244
"2019-04-05 12:10:41.200 +0000",1554466241.199612,1.338703,-1.370835,-2.064425,0.193306,0.980074,-0.045688,0.000000,0.000000,0.000000,-1,-0.107001,-0.618470,0.117700,0.083367,-0.024645,0.036289
"2019-04-05 12:10:41.220 +0000",1554466241.219629,1.339985,-1.369503,-2.054786,0.194634,0.979809,-0.045739,0.000000,0.000000,0.000000,-1,-0.058831,-0.286964,0.082770,0.083488,-0.011761,0.039590
"2019-04-05 12:10:41.240 +0000",1554466241.239606,1.343578,-1.367748,-2.048996,0.196473,0.979456,-0.045427,0.000000,0.000000,0.000000,-1,-0.028617,0.006233,0.104334,0.079009,-0.010859,0.039384
"2019-04-05 12:10:41.260 +0000",1554466241.259614,1.349815,-1.366515,-2.047012,0.197930,0.979207,-0.044465,0.000000,0.000000,0.000000,-1,0.012662,0.340956,0.035083,0.067573,-0.002141,0.041200
"2019-04-05 12:10:41.280 +0000",1554466241.279607,1.356812,-1.365352,-2.050494,0.199349,0.978970,-0.043321,0.000000,0.000000,0.000000,-1,0.074534,0.638400,0.075438,0.064155,-0.020642,0.046769
"2019-04-05 12:10:41.300 +0000",1554466241.299598,1.388896,-1.355578,-2.039514,0.210037,0.976930,-0.038633,0.000000,0.000000,0.000000,-1,0.248950,1.301212,0.242053,0.108215,-0.012315,0.063902
"2019-04-05 12:10:41.320 +0000",1554466241.319592,1.392051,-1.347731,-2.074369,0.217695,0.975224,-0.039332,0.000000,0.000000,0.000000,-1,0.564930,2.163884,0.345938,0.174669,0.052166,0.059092
"2019-04-05 12:10:41.340 +0000",1554466241.339583,1.386360,-1.338871,-2.130985,0.225953,0.973226,-0.042153,0.000000,0.000000,0.000000,-1,0.774435,2.590050,0.281680,0.134535,0.050776,0.050805
"2019-04-05 12:10:41.360 +0000",1554466241.359577,1.375557,-1.330525,-2.195070,0.233445,0.971274,-0.046166,0.000000,0.000000,0.000000,-1,0.799187,2.470026,0.275800,0.012039,0.009836,0.030724
"2019-04-05 12:10:41.380 +0000",1554466241.379570,1.373152,-1.324227,-2.234632,0.239327,0.969755,-0.047927,0.000000,0.000000,0.000000,-1,0.314010,1.274691,0.241559,-0.149605,0.039140,-0.003129
"2019-04-05 12:10:41.400 +0000",1554466241.399551,1.387719,-1.322030,-2.225614,0.242093,0.969217,-0.044824,0.000000,0.000000,0.000000,-1,-0.302691,-0.262641,0.064484,-0.273786,0.043280,0.006295
"2019-04-05 12:10:41.420 +0000",1554466241.419552,1.407652,-1.323909,-2.183815,0.241141,0.969678,-0.039694,0.000000,0.000000,0.000000,-1,-0.586040,-1.432289,-0.057345,-0.272254,0.033084,0.016210
"2019-04-05 12:10:41.440 +0000",1554466241.439546,1.405312,-1.326420,-2.145779,0.238645,0.970288,-0.039856,0.000000,0.000000,0.000000,-1,-0.376155,-2.190737,0.000805,-0.082899,-0.007032,0.088257
"2019-04-05 12:10:41.460 +0000",1554466241.459539,1.380962,-1.325729,-2.127159,0.238263,0.970121,-0.045782,0.000000,0.000000,0.000000,-1,-0.133943,-1.966556,0.098005,0.015994,-0.009580,0.127416
"2019-04-05 12:10:41.480 +0000",1554466241.479528,1.353060,-1.323843,-2.123889,0.238680,0.969662,-0.052806,0.000000,0.000000,0.000000,-1,0.040243,-1.300377,0.089561,0.058272,-0.004299,0.145961
"2019-04-05 12:10:41.500 +0000",1554466241.499524,1.326216,-1.322077,-2.133018,0.238837,0.969229,-0.059608,0.000000,0.000000,0.000000,-1,0.178816,-0.694737,0.047796,0.039606,0.018992,0.146812
"2019-04-05 12:10:41.520 +0000",1554466241.519518,1.297274,-1.320366,-2.151310,0.238609,0.968806,-0.066943,0.000000,0.000000,0.000000,-1,0.271034,-0.545920,0.004753,0.041070,-0.005442,0.136217
"2019-04-05 12:10:41.540 +0000",1554466241.539510,1.266983,-1.323213,-2.156176,0.233838,0.969508,-0.073313,0.000000,0.000000,0.000000,-1,-0.325666,-2.185121,-0.277693,0.060809,0.059682,-0.239401
"2019-04-05 12:10:41.559 +0000",1554466241.559481,1.224968,-1.330498,-2.146824,0.223902,0.971267,-0.080674,0.000000,0.000000,0.000000,-1,-0.009147,-2.556735,-0.312370,0.148382,-0.013137,0.062562
"2019-04-05 12:10:41.579 +0000",1554466241.579494,1.153028,-1.334060,-2.163967,0.214361,0.972109,-0.095154,0.000000,0.000000,0.000000,-1,0.066423,-3.048656,-0.208259,0.180308,-0.009294,-0.006057
"2019-04-05 12:10:41.599 +0000",1554466241.599470,1.088891,-1.336592,-2.160443,0.205640,0.972699,-0.107557,0.000000,0.000000,0.000000,-1,-0.046486,-3.459984,-0.057733,0.141589,-0.014798,0.143308
"2019-04-05 12:10:41.619 +0000",1554466241.619475,1.020736,-1.336017,-2.160786,0.198314,0.972566,-0.121604,0.000000,0.000000,0.000000,-1,0.044641,-3.279423,0.025893,0.167226,0.055724,0.212531
"2019-04-05 12:10:41.639 +0000",1554466241.639472,0.961704,-1.335393,-2.163593,0.191292,0.972420,-0.133439,0.000000,0.000000,0.000000,-1,0.061251,-2.521950,0.000419,0.112434,0.094383,0.243501
"2019-04-05 12:10:41.659 +0000",1554466241.659458,0.904216,-1.335557,-2.176412,0.183184,0.972459,-0.144111,0.000000,0.000000,0.000000,-1,0.193635,-2.092533,-0.169042,-0.080981,0.125778,0.323829
"2019-04-05 12:10:41.679 +0000",1554466241.679453,0.839845,-1.337944,-2.207379,0.171805,0.973012,-0.154046,0.000000,0.000000,0.000000,-1,0.001588,-1.644058,-0.443888,-0.056205,0.158046,0.180215
"2019-04-05 12:10:41.699 +0000",1554466241.699450,0.810084,-1.349837,-2.213395,0.158752,0.975688,-0.151101,0.000000,0.000000,0.000000,-1,-0.481331,-0.762648,-0.373546,0.021531,-0.059336,0.272088
"2019-04-05 12:10:41.719 +0000",1554466241.719435,0.820030,-1.361357,-2.203847,0.152018,0.978148,-0.141837,0.000000,0.000000,0.000000,-1,-0.532898,0.500403,-0.370820,0.193991,0.079088,0.121970
"2019-04-05 12:10:41.739 +0000",1554466241.739425,0.873544,-1.378998,-2.171074,0.146135,0.981663,-0.122403,0.000000,0.000000,0.000000,-1,-1.041166,1.130340,-0.615720,0.433531,0.190349,-0.172916
"2019-04-05 12:10:41.759 +0000",1554466241.759426,0.912847,-1.405304,-2.146922,0.130349,0.986337,-0.100737,0.000000,0.000000,0.000000,-1,-0.852629,0.516806,-1.011700,0.363105,0.174277,-0.134523
"2019-04-05 12:10:41.779 +0000",1554466241.779419,0.871725,-1.431876,-2.185275,0.105993,0.990366,-0.089109,0.000000,0.000000,0.000000,-1,-0.515757,-0.600343,-1.256005,0.254160,0.150045,-0.182544
"2019-04-05 12:10:41.799 +0000",1554466241.799413,0.778265,-1.454478,-2.264569,0.081476,0.993243,-0.082647,0.000000,0.000000,0.000000,-1,-0.339105,-0.704508,-1.104009,0.016271,-0.078661,-0.144831
"2019-04-05 12:10:41.819 +0000",1554466241.819377,0.669452,-1.472245,-2.360057,0.061058,0.995148,-0.077155,0.000000,0.000000,0.000000,-1,-0.331863,-0.722830,-0.834813,-0.010734,-0.146927,-0.176598
"2019-04-05 12:10:41.839 +0000",1554466241.839397,0.622824,-1.482086,-2.389760,0.051680,0.996068,-0.071960,0.000000,0.000000,0.000000,-1,-0.285703,-0.942334,-0.138355,-0.082793,-0.173344,-0.183884
"2019-04-05 12:10:41.859 +0000",1554466241.859390,0.686352,-1.483489,-2.304113,0.055258,0.996191,-0.067452,0.000000,0.000000,0.000000,-1,-0.283930,-1.110780,0.468133,-0.107291,-0.161337,-0.187919
"2019-04-05 12:10:41.879 +0000",1554466241.879371,0.805831,-1.476490,-2.170160,0.067933,0.995556,-0.065212,0.000000,0.000000,0.000000,-1,-0.018314,-0.283399,0.781426,-0.179444,-0.074170,-0.096775
"2019-04-05 12:10:41.899 +0000",1554466241.899357,0.856162,-1.463895,-2.124832,0.080592,0.994292,-0.069923,0.000000,0.000000,0.000000,-1,0.408170,0.480947,0.467120,-0.201717,-0.153776,-0.119423
"2019-04-05 12:10:41.919 +0000",1554466241.919367,0.808879,-1.454098,-2.186942,0.084242,0.993198,-0.080376,0.000000,0.000000,0.000000,-1,0.662507,0.816279,-0.104316,-0.267363,-0.055927,-0.114677
"2019-04-05 12:10:41.939 +0000",1554466241.939333,0.700169,-1.449282,-2.311080,0.078105,0.992626,-0.092697,0.000000,0.000000,0.000000,-1,0.676072,0.598856,-0.454219,-0.175425,-0.052273,-0.119629
"2019-04-05 12:10:41.959 +0000",1554466241.959350,0.583764,-1.443318,-2.437714,0.070072,0.991886,-0.106079,0.000000,0.000000,0.000000,-1,0.768634,0.382166,-0.428970,-0.014881,-0.033817,-0.027023
"2019-04-05 12:10:41.979 +0000",1554466241.979343,0.457916,-1.430940,-2.565283,0.061626,0.990236,-0.125039,0.000000,0.000000,0.000000,-1,1.073484,-0.218930,-0.451222,0.025913,0.027876,0.035699
"2019-04-05 12:10:41.999 +0000",1554466241.999332,0.332321,-1.414082,-2.681834,0.050917,0.987745,-0.147535,0.000000,0.000000,0.000000,-1,1.079598,-0.575845,-0.473573,0.040239,0.046450,0.085798
"2019-04-05 12:10:42.019 +0000",1554466242.019314,0.245058,-1.397958,-2.765357,0.041724,0.985101,-0.166840,0.000000,0.000000,0.000000,-1,0.892232,-0.005547,-0.399415,0.103555,-0.038156,0.147935
"2019-04-05 12:10:42.039 +0000",1554466242.039295,0.202016,-1.385335,-2.812691,0.036999,0.982851,-0.180650,0.000000,0.000000,0.000000,-1,0.593027,0.192733,-0.177191,0.024708,-0.106188,0.095933
"2019-04-05 12:10:42.059 +0000",1554466242.059315,0.188666,-1.376696,-2.828050,0.036175,0.981221,-0.189462,0.000000,0.000000,0.000000,-1,0.369343,0.046889,0.014477,-0.009259,-0.095983,0.119729
"2019-04-05 12:10:42.079 +0000",1554466242.079305,0.197038,-1.373957,-2.820042,0.038286,0.980690,-0.191787,0.000000,0.000000,0.000000,-1,-0.041890,0.045499,0.129314,-0.010668,-0.078315,0.114547
"2019-04-05 12:10:42.099 +0000",1554466242.099283,0.213483,-1.377626,-2.806673,0.040672,0.981401,-0.187613,0.000000,0.000000,0.000000,-1,-0.246395,0.240946,0.043133,0.034874,-0.049699,0.188864
"2019-04-05 12:10:42.119 +0000",1554466242.119293,0.218582,-1.380593,-2.805939,0.040997,0.981966,-0.184561,0.000000,0.000000,0.000000,-1,-0.056772,0.150861,-0.071456,-0.007366,0.020399,0.159231
"2019-04-05 12:10:42.139 +0000",1554466242.139285,0.203167,-1.380983,-2.819146,0.038069,0.982040,-0.184795,0.000000,0.000000,0.000000,-1,0.019681,-0.286698,-0.151322,-0.060927,0.026353,0.119945
"2019-04-05 12:10:42.159 +0000",1554466242.159277,0.176500,-1.381088,-2.836257,0.033110,0.982059,-0.185643,0.000000,0.000000,0.000000,-1,0.023251,-0.587332,-0.152881,-0.056258,0.029827,0.135685
"2019-04-05 12:10:42.179 +0000",1554466242.179271,0.144922,-1.393727,-2.855166,0.025438,0.984364,-0.174298,0.000000,0.000000,0.000000,-1,-0.015565,-0.682995,-0.123067,-0.027315,0.001994,0.126782
"2019-04-05 12:10:42.199 +0000",1554466242.199260,0.122763,-1.396295,-2.861494,0.021260,0.984813,-0.172311,0.000000,0.000000,0.000000,-1,-0.198445,-0.887170,-0.008957,0.024592,0.080159,0.097512
"2019-04-05 12:10:42.219 +0000",1554466242.219255,0.126123,-1.402761,-2.830981,0.021038,0.985915,-0.165917,0.000000,0.000000,0.000000,-1,-0.362055,-1.606781,0.326679,0.044972,0.167985,0.144112
"2019-04-05 12:10:42.239 +0000",1554466242.239225,0.149644,-1.400310,-2.785572,0.025294,0.985502,-0.167766,0.000000,0.000000,0.000000,-1,0.236181,-0.652609,0.436969,0.039586,0.162371,0.239559
"2019-04-05 12:10:42.259 +0000",1554466242.259239,0.188810,-1.397966,-2.744806,0.032277,0.985102,-0.168915,0.000000,0.000000,0.000000,-1,-0.159926,0.316243,0.218216,0.131388,0.436102,0.049316
"2019-04-05 12:10:42.279 +0000",1554466242.279232,0.216540,-1.404726,-2.761568,0.035517,0.986242,-0.161448,0.000000,0.000000,0.000000,-1,0.014729,3.855553,-0.397932,0.074133,0.335139,0.340144
"2019-04-05 12:10:42.299 +0000",1554466242.299222,0.228723,-1.389063,-2.830720,0.040979,0.983532,-0.176028,0.000000,0.000000,0.000000,-1,0.944288,2.622599,-0.317843,0.052420,0.215366,-0.595609
"2019-04-05 12:10:42.319 +0000",1554466242.319216,0.189793,-1.361659,-2.894870,0.039168,0.978210,-0.203888,0.000000,0.000000,0.000000,-1,1.621048,0.568457,-0.361968,0.168458,0.065689,-0.098495
"2019-04-05 12:10:42.339 +0000",1554466242.339211,0.160303,-1.330525,-2.938139,0.037983,0.971274,-0.234915,0.000000,0.000000,0.000000,-1,1.601553,0.791280,-0.104001,0.218303,-0.110907,0.217123
"2019-04-05 12:10:42.359 +0000",1554466242.359202,0.164301,-1.296887,-2.954345,0.044243,0.962721,-0.266854,0.000000,0.000000,0.000000,-1,1.726589,1.003530,0.180676,0.218437,-0.330320,0.263406
"2019-04-05 12:10:42.379 +0000",1554466242.379194,0.179999,-1.268462,-2.949014,0.053306,0.954644,-0.292939,0.000000,0.000000,0.000000,-1,1.063830,0.102159,0.355537,0.110787,-0.391351,0.054688
"2019-04-05 12:10:42.399 +0000",1554466242.399188,0.184523,-1.262366,-2.932387,0.055697,0.952811,-0.298410,0.000000,0.000000,0.000000,-1,-0.222361,-0.824775,0.269524,0.043287,-0.266959,-0.117682
"2019-04-05 12:10:42.419 +0000",1554466242.419181,0.192803,-1.267554,-2.911415,0.057218,0.954373,-0.293084,0.000000,0.000000,0.000000,-1,-0.110623,-0.415703,0.252369,-0.121152,-0.131375,-0.105567
"2019-04-05 12:10:42.439 +0000",1554466242.439172,0.193889,-1.257350,-2.914968,0.059410,0.951277,-0.302561,0.000000,0.000000,0.000000,-1,0.909993,0.538085,-0.099754,-0.102943,0.024431,-0.078695
"2019-04-05 12:10:42.459 +0000",1554466242.459162,0.178448,-1.233457,-2.942466,0.058749,0.943639,-0.325721,0.000000,0.000000,0.000000,-1,1.291663,0.445986,-0.225085,0.063413,0.170573,0.054084
"2019-04-05 12:10:42.479 +0000",1554466242.479158,0.165572,-1.216174,-2.964802,0.057230,0.937778,-0.342487,0.000000,0.000000,0.000000,-1,0.652001,0.486018,-0.221209,0.067953,0.099438,0.201985
"2019-04-05 12:10:42.499 +0000",1554466242.499133,0.170373,-1.213973,-2.971387,0.059224,0.937011,-0.344242,0.000000,0.000000,0.000000,-1,-0.252376,0.509764,-0.003151,0.129756,0.162476,0.220585
"2019-04-05 12:10:42.519 +0000",1554466242.519135,0.194396,-1.230209,-2.956656,0.064528,0.942559,-0.327749,0.000000,0.000000,0.000000,-1,-1.131632,0.513438,0.116401,0.199693,0.479621,0.229116
"2019-04-05 12:10:42.539 +0000",1554466242.539135,0.225867,-1.256718,-2.927870,0.069188,0.951082,-0.301093,0.000000,0.000000,0.000000,-1,-1.494051,0.023420,0.214170,0.182445,0.524794,0.139396
"2019-04-05 12:10:42.559 +0000",1554466242.559098,0.263019,-1.286721,-2.887906,0.072869,0.959921,-0.270631,0.000000,0.000000,0.000000,-1,-1.626010,0.071172,0.198079,0.124229,0.542688,0.154543
"2019-04-05 12:10:42.579 +0000",1554466242.579106,0.323121,-1.314465,-2.837077,0.080504,0.967327,-0.240413,0.000000,0.000000,0.000000,-1,-1.399522,0.778690,0.309911,0.131776,0.581731,0.134380
"2019-04-05 12:10:42.599 +0000",1554466242.599114,0.396487,-1.330868,-2.779854,0.091769,0.971355,-0.219198,0.000000,0.000000,0.000000,-1,-0.754409,0.873468,0.417006,0.120267,0.536580,-0.013254
"2019-04-05 12:10:42.619 +0000",1554466242.619106,0.448347,-1.333062,-2.743526,0.102084,0.971874,-0.212225,0.000000,0.000000,0.000000,-1,0.014005,0.807057,0.300928,0.172483,0.195301,-0.049539
"2019-04-05 12:10:42.639 +0000",1554466242.639097,0.461396,-1.324401,-2.740411,0.108588,0.969798,-0.218405,0.000000,0.000000,0.000000,-1,0.538931,0.193484,0.122458,0.148919,0.211675,-0.192774
"2019-04-05 12:10:42.659 +0000",1554466242.659066,0.414178,-1.314936,-2.778601,0.101848,0.967446,-0.231679,0.000000,0.000000,0.000000,-1,0.605219,-0.905421,-0.451184,0.047536,0.043784,-0.013987
"2019-04-05 12:10:42.679 +0000",1554466242.679083,0.344915,-1.315498,-2.829045,0.085386,0.967588,-0.237661,0.000000,0.000000,0.000000,-1,-0.069810,-0.865293,-0.563311,0.297915,-0.518705,0.504064
"2019-04-05 12:10:42.699 +0000",1554466242.699076,0.320698,-1.324869,-2.851450,0.076744,0.969912,-0.231043,0.000000,0.000000,0.000000,-1,-0.464430,0.288001,-0.373928,0.234123,-0.593264,0.613871
"2019-04-05 12:10:42.719 +0000",1554466242.719059,0.295561,-1.339968,-2.883973,0.066639,0.973477,-0.218864,0.000000,0.000000,0.000000,-1,-0.667965,0.176725,-0.751889,0.085048,-0.700742,0.114875
"2019-04-05 12:10:42.739 +0000",1554466242.739060,0.232012,-1.358581,-2.949430,0.048431,0.977567,-0.204982,0.000000,0.000000,0.000000,-1,-0.703668,0.036727,-1.027800,-0.041518,-0.750470,0.142696
"2019-04-05 12:10:42.759 +0000",1554466242.759053,0.161369,-1.370678,-3.033277,0.031939,0.980043,-0.196202,0.000000,0.000000,0.000000,-1,-0.203483,0.954664,-0.852105,-0.150759,-0.764162,0.269628
"2019-04-05 12:10:42.779 +0000",1554466242.779045,0.107246,-1.377270,-3.111429,0.020586,0.981332,-0.191216,0.000000,0.000000,0.000000,-1,-0.348273,1.135208,-0.874973,-0.136141,-0.765313,0.264488
"2019-04-05 12:10:42.799 +0000",1554466242.799038,-0.034630,-1.389232,3.015900,-0.006252,0.983562,-0.180461,0.000000,0.000000,0.000000,-1,-0.590599,-0.036755,-1.855871,0.071529,-0.350078,-0.529317
"2019-04-05 12:10:42.819 +0000",1554466242.819031,-0.242389,-1.385752,2.816944,-0.044162,0.982928,-0.178612,0.000000,0.000000,0.000000,-1,0.406506,-0.583784,-1.400473,0.082065,0.089444,-0.893989
"2019-04-05 12:10:42.839 +0000",1554466242.839024,-0.225253,-1.359012,2.828815,-0.046950,0.977657,-0.204894,0.000000,0.000000,0.000000,-1,1.718410,0.676188,0.311388,0.323851,0.723209,-0.210526
"2019-04-05 12:10:42.859 +0000",1554466242.859015,-0.181502,-1.325403,2.858404,-0.043852,0.970042,-0.238947,0.000000,0.000000,0.000000,-1,1.726192,0.820329,-0.418449,0.190703,0.762197,0.092692
"2019-04-05 12:10:42.879 +0000",1554466242.878990,-0.236112,-1.283347,2.781603,-0.066319,0.958970,-0.275641,0.000000,0.000000,0.000000,-1,1.872227,1.020715,-2.088976,0.270360,0.592559,0.304160
"2019-04-05 12:10:42.899 +0000",1554466242.899001,-0.325652,-1.229196,2.649994,-0.107174,0.942220,-0.317389,0.000000,0.000000,0.000000,-1,1.962587,2.450241,-2.746109,0.601864,1.277827,0.128073
"2019-04-05 12:10:42.919 +0000",1554466242.918987,-0.336340,-1.197140,2.572745,-0.120470,0.930999,-0.344569,0.000000,0.000000,0.000000,-1,0.581796,3.218222,-1.244284,0.678636,1.130952,0.073054
"2019-04-05 12:10:42.939 +0000",1554466242.938956,-0.310336,-1.183609,2.554877,-0.115306,0.925975,-0.359548,0.000000,0.000000,0.000000,-1,0.473638,1.460046,-0.201617,0.126522,0.622579,0.141470
"2019-04-05 12:10:42.959 +0000",1554466242.958967,-0.290030,-1.177246,2.566743,-0.109665,0.923553,-0.367454,0.000000,0.000000,0.000000,-1,0.301593,0.054000,0.303091,-0.016052,0.628967,0.107154
"2019-04-05 12:10:42.979 +0000",1554466242.978966,-0.269232,-1.175131,2.583749,-0.102519,0.922740,-0.371537,0.000000,0.000000,0.000000,-1,0.117038,0.584158,0.148261,-0.185567,0.262929,0.118989
"2019-04-05 12:10:42.999 +0000",1554466242.999039,-0.250599,-1.175477,2.581553,-0.095500,0.922874,-0.373074,0.000000,0.000000,0.000000,-1,-0.178959,1.086665,-0.033291,-0.250478,-0.347571,0.264996
"2019-04-05 12:10:43.019 +0000",1554466243.018956,-0.251057,-1.190614,2.569175,-0.092189,0.928597,-0.359457,0.000000,0.000000,0.000000,-1,-1.221278,0.151346,-0.105390,-0.069768,-0.486794,0.169637
"2019-04-05 12:10:43.039 +0000",1554466243.038927,-0.293748,-1.223452,2.528989,-0.098560,0.940280,-0.325821,0.000000,0.000000,0.000000,-1,-1.963930,-0.372597,-0.278070,0.194935,-0.814334,0.106811
"2019-04-05 12:10:43.059 +0000",1554466243.058940,-0.340581,-1.256233,2.485454,-0.103351,0.950931,-0.291630,0.000000,0.000000,0.000000,-1,-1.588273,-0.149585,-0.001907,0.470371,-1.173160,0.007557
"2019-04-05 12:10:43.079 +0000",1554466243.078934,-0.335585,-1.283233,2.486658,-0.093401,0.958938,-0.267795,0.000000,0.000000,0.000000,-1,-1.117255,0.448028,0.728650,0.334902,-1.139587,0.005222
"2019-04-05 12:10:43.099 +0000",1554466243.098925,-0.296841,-1.305693,2.513666,-0.076638,0.965065,-0.250550,0.000000,0.000000,0.000000,-1,-0.857802,0.611988,0.500257,0.053063,-0.618584,-0.057922
"2019-04-05 12:10:43.119 +0000",1554466243.118919,-0.298862,-1.323271,2.502532,-0.072138,0.969522,-0.234145,0.000000,0.000000,0.000000,-1,-1.033753,0.457350,-0.058110,0.203500,-0.358545,-0.137483
"2019-04-05 12:10:43.139 +0000",1554466243.138896,-0.354583,-1.352842,2.430526,-0.075076,0.976342,-0.202781,0.000000,0.000000,0.000000,-1,-2.026282,0.502822,-0.370312,0.170810,0.483772,-0.799050
"2019-04-05 12:10:43.159 +0000",1554466243.158904,-0.396993,-1.387495,2.395156,-0.070477,0.983247,-0.168100,0.000000,0.000000,0.000000,-1,-1.345674,-0.616631,0.820492,-0.191929,0.770125,-0.620337
"2019-04-05 12:10:43.179 +0000",1554466243.178895,-0.361359,-1.399972,2.424884,-0.060101,0.985445,-0.159016,0.000000,0.000000,0.000000,-1,0.027256,0.765899,0.023083,-0.351032,1.214811,-0.424983
"2019-04-05 12:10:43.199 +0000",1554466243.198889,-0.368030,-1.378668,2.395609,-0.068699,0.981600,-0.178163,0.000000,0.000000,0.000000,-1,1.426979,1.341092,-0.791218,0.189366,0.946745,-0.090041
"2019-04-05 12:10:43.219 +0000",1554466243.218880,-0.322610,-1.341928,2.408159,-0.071929,0.973924,-0.215171,0.000000,0.000000,0.000000,-1,1.627226,1.474483,-0.218266,0.527435,0.720504,0.205756
"2019-04-05 12:10:43.239 +0000",1554466243.238874,-0.310859,-1.344802,2.423628,-0.068539,0.974572,-0.213335,0.000000,0.000000,0.000000,-1,-1.122288,-0.798893,0.478045,0.271542,0.600425,0.749529
"2019-04-05 12:10:43.259 +0000",1554466243.258865,-0.277482,-1.382469,2.452144,-0.051285,0.982319,-0.180055,0.000000,0.000000,0.000000,-1,-1.812703,0.975465,0.911633,-0.058944,0.616558,0.395158
"2019-04-05 12:10:43.279 +0000",1554466243.278859,-0.184565,-1.409512,2.516519,-0.029471,0.987022,-0.157858,0.000000,0.000000,0.000000,-1,-0.653470,1.495681,0.777581,-0.150263,0.324135,-0.296365
"2019-04-05 12:10:43.299 +0000",1554466243.298851,-0.061959,-1.404803,2.615499,-0.010231,0.986255,-0.164916,0.000000,0.000000,0.000000,-1,0.799664,1.007815,0.730231,0.167641,0.030133,-0.119279
"2019-04-05 12:10:43.319 +0000",1554466243.318844,0.004860,-1.389525,2.663658,0.000876,0.983615,-0.180279,0.000000,0.000000,0.000000,-1,0.621707,1.133594,0.208844,0.165002,-0.695529,0.356960
"2019-04-05 12:10:43.339 +0000",1554466243.338830,0.032865,-1.383732,2.674916,0.006111,0.982554,-0.185875,0.000000,0.000000,0.000000,-1,0.118238,0.510935,0.081709,-0.098595,-1.158946,0.154610
"2019-04-05 12:10:43.359 +0000",1554466243.358807,0.003352,-1.386677,2.638600,0.000614,0.983098,-0.183080,0.000000,0.000000,0.000000,-1,-0.275065,0.285198,-0.668551,-0.278858,-1.079045,0.507726
"2019-04-05 12:10:43.379 +0000",1554466243.378823,-0.078319,-1.397314,2.542976,-0.013505,0.984990,-0.172084,0.000000,0.000000,0.000000,-1,-0.822680,0.908746,-0.918519,-0.090957,-1.045292,0.661999
"2019-04-05 12:10:43.399 +0000",1554466243.398802,-0.206467,-1.422079,2.388985,-0.030375,0.988962,-0.145023,0.000000,0.000000,0.000000,-1,-1.652741,1.282358,-1.025200,0.071391,-0.856302,0.506259
"2019-04-05 12:10:43.419 +0000",1554466243.418804,-0.363759,-1.448671,2.213802,-0.043343,0.992552,-0.113851,0.000000,0.000000,0.000000,-1,-1.490642,0.437463,-0.589623,0.182046,-0.481032,-0.147135
"2019-04-05 12:10:43.439 +0000",1554466243.438800,-0.506765,-1.465856,2.066370,-0.050840,0.994499,-0.091583,0.000000,0.000000,0.000000,-1,-0.989979,-0.045875,-0.346171,0.134168,-0.386406,-0.571701
"2019-04-05 12:10:43.459 +0000",1554466243.458768,-0.661167,-1.476772,1.924127,-0.057650,0.995583,-0.074102,0.000000,0.000000,0.000000,-1,-0.819727,-1.015899,-0.134454,0.318743,-0.299218,-0.807902
"2019-04-05 12:10:43.479 +0000",1554466243.478785,-0.737612,-1.494782,1.869986,-0.051072,0.997112,-0.056202,0.000000,0.000000,0.000000,-1,-0.741163,-0.927518,0.770208,0.026521,0.477283,-0.622371
"2019-04-05 12:10:43.499 +0000",1554466243.498777,-0.579769,-1.503057,2.025466,-0.037081,0.997707,-0.056627,0.000000,0.000000,0.000000,-1,0.674108,0.850976,0.281811,-0.909437,1.516744,-0.215819
"2019-04-05 12:10:43.519 +0000",1554466243.518765,-0.485471,-1.458041,2.088292,-0.052504,0.993650,-0.099517,0.000000,0.000000,0.000000,-1,2.779914,1.683421,-1.404974,-1.028002,1.953082,-0.050828
"2019-04-05 12:10:43.539 +0000",1554466243.538762,-0.388708,-1.381310,2.147545,-0.071385,0.982101,-0.174303,0.000000,0.000000,0.000000,-1,4.297412,2.201201,-1.036137,0.440388,1.193680,0.086443
"2019-04-05 12:10:43.559 +0000",1554466243.558749,-0.267459,-1.291109,2.242616,-0.072956,0.961142,-0.266240,0.000000,0.000000,0.000000,-1,4.749741,0.128899,-0.024411,0.670033,0.683969,0.303182
"2019-04-05 12:10:43.579 +0000",1554466243.578746,-0.197142,-1.217787,2.327869,-0.067716,0.938337,-0.339026,0.000000,0.000000,0.000000,-1,3.073351,-0.485591,0.636974,0.427091,0.465151,0.970130
"2019-04-05 12:10:43.599 +0000",1554466243.598740,-0.165380,-1.194740,2.378980,-0.060460,0.930120,-0.362244,0.000000,0.000000,0.000000,-1,0.306677,-1.053265,0.648990,-0.080058,0.026850,0.733445
"2019-04-05 12:10:43.619 +0000",1554466243.618703,-0.160545,-1.213963,2.402112,-0.055839,0.937007,-0.344817,0.000000,0.000000,0.000000,-1,-1.375430,-0.684306,0.501412,-0.185112,-0.262340,0.186721
"2019-04-05 12:10:43.639 +0000",1554466243.638724,-0.172738,-1.242039,2.403535,-0.055494,0.946444,-0.318062,0.000000,0.000000,0.000000,-1,-1.184293,-0.685932,0.099066,-0.158220,-0.529727,-0.197105
"2019-04-05 12:10:43.659 +0000",1554466243.658718,-0.189197,-1.255550,2.399115,-0.058311,0.950720,-0.304518,0.000000,0.000000,0.000000,-1,-0.439031,-0.517672,0.076458,0.124153,-0.931738,-0.102189
"2019-04-05 12:10:43.679 +0000",1554466243.678679,-0.192207,-1.260192,2.405045,-0.058384,0.952149,-0.300005,0.000000,0.000000,0.000000,-1,-0.102483,-0.380527,0.147663,0.154102,-1.256623,0.072924
"2019-04-05 12:10:43.699 +0000",1554466243.698702,-0.190310,-1.262916,2.410280,-0.057324,0.952978,-0.297568,0.000000,0.000000,0.000000,-1,-0.184502,0.042332,0.051485,0.037091,-1.182379,0.257056
"2019-04-05 12:10:43.719 +0000",1554466243.718695,-0.194445,-1.270385,2.399323,-0.057177,0.955215,-0.290336,0.000000,0.000000,0.000000,-1,-0.567109,0.388667,-0.166861,0.002077,-0.663589,0.380958
"2019-04-05 12:10:43.739 +0000",1554466243.738676,-0.224925,-1.288144,2.369135,-0.062205,0.960319,-0.271879,0.000000,0.000000,0.000000,-1,-1.122077,-0.485827,-0.256635,0.201746,-0.384635,0.157820
"2019-04-05 12:10:43.759 +0000",1554466243.758658,-0.296095,-1.310580,2.316431,-0.075074,0.966334,-0.246093,0.000000,0.000000,0.000000,-1,-1.378581,-1.402625,-0.406775,0.342362,-0.175914,-0.955704
"2019-04-05 12:10:43.779 +0000",1554466243.778660,-0.346911,-1.329139,2.292423,-0.081365,0.970943,-0.225056,0.000000,0.000000,0.000000,-1,-0.458731,-0.931073,0.200208,-0.112544,0.744374,-0.691708
"2019-04-05 12:10:43.799 +0000",1554466243.798664,-0.342163,-1.320583,2.303416,-0.083080,0.968860,-0.233257,0.000000,0.000000,0.000000,-1,0.686951,-0.370223,-0.209775,0.389461,1.555722,-0.080235
"2019-04-05 12:10:43.819 +0000",1554466243.818654,-0.365306,-1.320520,2.294160,-0.088477,0.968844,-0.231329,0.000000,0.000000,0.000000,-1,-0.536324,-0.475268,0.092101,0.753791,1.528104,0.540350
"2019-04-05 12:10:43.839 +0000",1554466243.838639,-0.359138,-1.345837,2.289232,-0.078401,0.974803,-0.208835,0.000000,0.000000,0.000000,-1,-1.553886,0.988706,0.541564,0.379075,0.950505,0.345874
"2019-04-05 12:10:43.859 +0000",1554466243.858642,-0.335762,-1.382954,2.287665,-0.061529,0.982409,-0.176312,0.000000,0.000000,0.000000,-1,-1.704527,1.365696,0.600073,-0.030634,0.824079,-0.119479
"2019-04-05 12:10:43.879 +0000",1554466243.878635,-0.265882,-1.409287,2.329701,-0.042254,0.986986,-0.155158,0.000000,0.000000,0.000000,-1,-0.729245,1.381886,0.855877,-0.084913,0.708327,-0.451501
"2019-04-05 12:10:43.899 +0000",1554466243.898603,-0.127074,-1.410064,2.444119,-0.020282,0.987110,-0.158751,0.000000,0.000000,0.000000,-1,0.604419,1.250857,0.852954,-0.171933,0.307400,-0.183809
"2019-04-05 12:10:43.919 +0000",1554466243.918618,-0.039485,-1.395099,2.512724,-0.006900,0.984605,-0.174659,0.000000,0.000000,0.000000,-1,0.735447,0.854215,0.247899,-0.140759,-0.596604,0.523704
"2019-04-05 12:10:43.939 +0000",1554466243.938612,-0.018452,-1.384755,2.510118,-0.003413,0.982744,-0.184939,0.000000,0.000000,0.000000,-1,0.353487,1.294206,-0.143036,-0.226247,-1.160982,0.379214
"2019-04-05 12:10:43.959 +0000",1554466243.958605,-0.033608,-1.385805,2.472559,-0.006181,0.982938,-0.183834,0.000000,0.000000,0.000000,-1,-0.237439,0.847047,-0.533951,-0.382781,-0.863813,-0.080357
"2019-04-05 12:10:43.979 +0000",1554466243.978572,-0.136517,-1.392267,2.360093,-0.024168,0.984106,-0.175930,0.000000,0.000000,0.000000,-1,-0.513017,0.260120,-1.224073,-0.216952,-1.104025,0.392132
"2019-04-05 12:10:43.999 +0000",1554466243.998630,-0.307219,-1.400030,2.183428,-0.051391,0.985455,-0.161981,0.000000,0.000000,0.000000,-1,-0.890558,-0.000124,-1.448736,0.153838,-1.056576,0.374597
"2019-04-05 12:10:44.019 +0000",1554466244.018583,-0.509173,-1.412194,1.981617,-0.076988,0.987449,-0.137903,0.000000,0.000000,0.000000,-1,-1.305723,-0.171732,-1.087091,0.389030,-0.932853,0.048044
"2019-04-05 12:10:44.039 +0000",1554466244.038566,-0.641893,-1.422479,1.850669,-0.088474,0.989021,-0.118361,0.000000,0.000000,0.000000,-1,-0.675827,-0.156291,-0.256223,0.402118,-0.597450,-0.277315
"2019-04-05 12:10:44.059 +0000",1554466244.058567,-0.677083,-1.428033,1.823519,-0.089141,0.989827,-0.110893,0.000000,0.000000,0.000000,-1,-0.219687,-0.683322,0.102943,0.153365,-0.075947,-0.544442
"2019-04-05 12:10:44.079 +0000",1554466244.078560,-0.665944,-1.431159,1.856730,-0.085988,0.990267,-0.109445,0.000000,0.000000,0.000000,-1,0.104452,-1.214724,0.515826,0.158834,-0.263368,-0.711615
"2019-04-05 12:10:44.099 +0000",1554466244.098552,-0.547242,-1.444337,1.990015,-0.065626,0.992015,-0.107704,0.000000,0.000000,0.000000,-1,-0.212622,-0.285140,1.373579,-0.144640,0.601857,-0.249123
"2019-04-05 12:10:44.119 +0000",1554466244.118545,-0.423846,-1.450310,2.110211,-0.049433,0.992750,-0.109560,0.000000,0.000000,0.000000,-1,0.543433,0.437715,0.221761,-0.604940,1.369936,-0.094221
"2019-04-05 12:10:44.139 +0000",1554466244.138515,-0.400822,-1.417231,2.123206,-0.059682,0.988232,-0.140838,0.000000,0.000000,0.000000,-1,2.120141,0.474744,-0.940351,-0.233058,1.224796,-0.110809
"2019-04-05 12:10:44.159 +0000",1554466244.158531,-0.378371,-1.358001,2.136640,-0.078016,0.977444,-0.196255,0.000000,0.000000,0.000000,-1,3.129849,0.515596,-0.896342,0.127638,0.830554,0.018490
"2019-04-05 12:10:44.179 +0000",1554466244.178511,-0.315358,-1.299173,2.191232,-0.083214,0.963337,-0.255065,0.000000,0.000000,0.000000,-1,2.605086,0.381683,-0.039132,0.246941,0.905377,0.072967
"2019-04-05 12:10:44.199 +0000",1554466244.198517,-0.260989,-1.268261,2.265219,-0.076880,0.954584,-0.287851,0.000000,0.000000,0.000000,-1,1.206529,-1.307957,0.845766,0.078482,0.770605,0.238321
"2019-04-05 12:10:44.218 +0000",1554466244.218499,-0.215812,-1.267127,2.340493,-0.064033,0.954246,-0.292087,0.000000,0.000000,0.000000,-1,-0.102902,-1.279173,1.127525,-0.227745,0.537423,0.283359
"2019-04-05 12:10:44.239 +0000",1554466244.238500,-0.206743,-1.276168,2.375271,-0.059608,0.956910,-0.284200,0.000000,0.000000,0.000000,-1,-0.322444,-1.058485,0.218158,-0.445550,-0.049791,0.065618
"2019-04-05 12:10:44.258 +0000",1554466244.258493,-0.232712,-1.282680,2.362392,-0.065529,0.958781,-0.276487,0.000000,0.000000,0.000000,-1,-0.468575,-0.631167,-0.123790,-0.081230,-0.599101,-0.021578
"2019-04-05 12:10:44.278 +0000",1554466244.278486,-0.253363,-1.296782,2.361801,-0.067829,0.962692,-0.261960,0.000000,0.000000,0.000000,-1,-0.762765,-1.234078,0.299744,0.346576,-1.045654,-0.073429
"2019-04-05 12:10:44.298 +0000",1554466244.298463,-0.264452,-1.306658,2.373793,-0.068240,0.965318,-0.252001,0.000000,0.000000,0.000000,-1,-0.107840,-0.906491,0.250303,0.261310,-1.206391,-0.062986
"2019-04-05 12:10:44.318 +0000",1554466244.318416,-0.253356,-1.300039,2.391518,-0.067040,0.963569,-0.258923,0.000000,0.000000,0.000000,-1,0.533962,0.033138,0.051179,0.117471,-0.996482,0.271161
"2019-04-05 12:10:44.338 +0000",1554466244.338435,-0.253930,-1.293976,2.385689,-0.068655,0.961929,-0.264534,0.000000,0.000000,0.000000,-1,0.012100,0.250937,-0.244826,0.064230,-0.756378,0.381935
"2019-04-05 12:10:44.358 +0000",1554466244.358408,-0.279726,-1.301965,2.359195,-0.073331,0.964082,-0.255281,0.000000,0.000000,0.000000,-1,-0.672055,-0.288046,-0.217644,0.300275,-0.402238,0.090898
"2019-04-05 12:10:44.378 +0000",1554466244.378420,-0.315728,-1.308373,2.331867,-0.080552,0.965764,-0.246598,0.000000,0.000000,0.000000,-1,-0.267341,-0.619133,-0.365990,0.435396,-0.231527,-1.431136
"2019-04-05 12:10:44.398 +0000",1554466244.398412,-0.355991,-1.309475,2.313735,-0.090042,0.966050,-0.242158,0.000000,0.000000,0.000000,-1,0.105471,-1.113348,0.065765,0.325424,-0.040024,-1.589812
"2019-04-05 12:10:44.418 +0000",1554466244.418402,-0.314895,-1.302013,2.361559,-0.082248,0.964095,-0.252501,0.000000,0.000000,0.000000,-1,0.655563,-0.217706,0.254476,-0.217633,1.422471,-0.167482
"2019-04-05 12:10:44.438 +0000",1554466244.438396,-0.336496,-1.296720,2.349263,-0.089366,0.962676,-0.255479,0.000000,0.000000,0.000000,-1,-0.088362,-0.130403,-0.330098,0.773387,1.765199,0.797365
"2019-04-05 12:10:44.458 +0000",1554466244.458390,-0.336591,-1.307580,2.333106,-0.085932,0.965558,-0.245587,0.000000,0.000000,0.000000,-1,-0.884010,1.134966,0.184613,0.561671,1.080829,0.242993
"2019-04-05 12:10:44.478 +0000",1554466244.478382,-0.313521,-1.331421,2.329189,-0.073123,0.971486,-0.225538,0.000000,0.000000,0.000000,-1,-1.206813,1.369409,0.349457,-0.030347,0.886821,-0.249819
"2019-04-05 12:10:44.498 +0000",1554466244.498374,-0.286325,-1.347728,2.331494,-0.062480,0.975223,-0.212217,0.000000,0.000000,0.000000,-1,-0.348114,1.166041,0.198130,-0.202855,0.659909,-0.381869
"2019-04-05 12:10:44.518 +0000",1554466244.518343,-0.235755,-1.339178,2.361822,-0.053618,0.973296,-0.223203,0.000000,0.000000,0.000000,-1,0.903813,0.935060,0.245518,-0.086015,0.167207,-0.120455
"2019-04-05 12:10:44.538 +0000",1554466244.538349,-0.195037,-1.322892,2.391207,-0.047554,0.969429,-0.240720,0.000000,0.000000,0.000000,-1,0.684928,0.475095,0.108211,-0.063225,-0.270973,0.489851
"2019-04-05 12:10:44.558 +0000",1554466244.558352,-0.175221,-1.317256,2.401412,-0.043727,0.968031,-0.246991,0.000000,0.000000,0.000000,-1,0.137669,0.550277,0.065775,-0.119146,-0.633390,0.497907
"2019-04-05 12:10:44.578 +0000",1554466244.578341,-0.172397,-1.318307,2.392630,-0.042854,0.968294,-0.246111,0.000000,0.000000,0.000000,-1,-0.163314,0.460172,-0.286749,-0.365105,-0.470033,-0.033826
"2019-04-05 12:10:44.598 +0000",1554466244.598338,-0.234977,-1.323503,2.322222,-0.056990,0.969579,-0.238054,0.000000,0.000000,0.000000,-1,-0.596553,0.291880,-1.138676,-0.347963,-0.979588,0.202485
"2019-04-05 12:10:44.618 +0000",1554466244.618331,-0.344044,-1.330327,2.202233,-0.080330,0.971226,-0.224202,0.000000,0.000000,0.000000,-1,-0.849523,0.229236,-1.304742,-0.111091,-1.754368,0.370717
"2019-04-05 12:10:44.638 +0000",1554466244.638313,-0.479684,-1.344324,2.067272,-0.103626,0.974465,-0.199200,0.000000,0.000000,0.000000,-1,-1.473520,-0.394994,-0.981021,0.405612,-1.359139,0.216808
"2019-04-05 12:10:44.658 +0000",1554466244.658316,-0.589231,-1.359532,1.967225,-0.116533,0.977767,-0.174335,0.000000,0.000000,0.000000,-1,-0.811266,-0.675860,-0.216210,0.476106,-0.832243,0.123569
"2019-04-05 12:10:44.678 +0000",1554466244.678308,-0.568404,-1.361956,2.000891,-0.111601,0.978272,-0.174726,0.000000,0.000000,0.000000,-1,0.523935,-0.512397,0.624433,0.284132,-0.569611,-0.214510
"2019-04-05 12:10:44.698 +0000",1554466244.698301,-0.524949,-1.354708,2.068515,-0.107456,0.976744,-0.185540,0.000000,0.000000,0.000000,-1,0.701777,-1.721881,0.207829,-0.306835,0.044588,-0.783988
"2019-04-05 12:10:44.718 +0000",1554466244.718267,-0.513195,-1.350734,2.127201,-0.107173,0.975884,-0.190170,0.000000,0.000000,0.000000,-1,0.276041,-2.212461,0.840914,-0.159261,0.151786,-0.746140
"2019-04-05 12:10:44.738 +0000",1554466244.738268,-0.455507,-1.363512,2.210056,-0.090537,0.978593,-0.184820,0.000000,0.000000,0.000000,-1,-0.337861,-0.620305,0.791221,-0.787988,1.567900,-0.057231
"2019-04-05 12:10:44.758 +0000",1554466244.758278,-0.489111,-1.358005,2.179000,-0.099225,0.977445,-0.186427,0.000000,0.000000,0.000000,-1,0.564284,0.118197,-1.066028,-0.200610,1.276522,-0.253712
"2019-04-05 12:10:44.778 +0000",1554466244.778262,-0.545493,-1.319193,2.121080,-0.129169,0.968515,-0.212826,0.000000,0.000000,0.000000,-1,1.743989,-0.102577,-1.735178,0.390949,0.716392,-0.054401
"2019-04-05 12:10:44.798 +0000",1554466244.798233,-0.537323,-1.267324,2.117275,-0.152955,0.954305,-0.256724,0.000000,0.000000,0.000000,-1,2.167448,0.883810,-0.991987,0.514222,0.642436,0.292415
"2019-04-05 12:10:44.818 +0000",1554466244.818257,-0.496507,-1.234453,2.162658,-0.157216,0.943968,-0.290186,0.000000,0.000000,0.000000,-1,1.408270,-0.551037,0.395395,0.035512,1.349718,0.267679
"2019-04-05 12:10:44.838 +0000",1554466244.838231,-0.459513,-1.230054,2.216872,-0.148216,0.942507,-0.299521,0.000000,0.000000,0.000000,-1,0.326652,-0.836496,0.588831,-0.085244,1.475767,0.262870
"2019-04-05 12:10:44.858 +0000",1554466244.858240,-0.451219,-1.229910,2.245900,-0.145786,0.942459,-0.300863,0.000000,0.000000,0.000000,-1,0.117205,-0.961746,0.374111,-0.137936,-0.071182,0.048574
"2019-04-05 12:10:44.878 +0000",1554466244.878235,-0.458646,-1.236555,2.260718,-0.145240,0.944660,-0.294149,0.000000,0.000000,0.000000,-1,-0.439742,-1.126676,0.353839,0.049369,-0.538272,0.211629
"2019-04-05 12:10:44.898 +0000",1554466244.898226,-0.483152,-1.254757,2.257404,-0.144391,0.950474,-0.275228,0.000000,0.000000,0.000000,-1,-0.943477,-0.947430,0.378658,0.296216,-0.938236,0.156194
"2019-04-05 12:10:44.918 +0000",1554466244.918195,-0.491660,-1.270470,2.260590,-0.139659,0.955240,-0.260791,0.000000,0.000000,0.000000,-1,-0.443227,-0.315147,0.442688,0.330714,-1.325662,-0.033033
"2019-04-05 12:10:44.938 +0000",1554466244.938185,-0.461788,-1.276298,2.288965,-0.129325,0.956948,-0.259858,0.000000,0.000000,0.000000,-1,0.124630,0.302323,0.480576,0.210533,-1.313546,-0.105819
"2019-04-05 12:10:44.958 +0000",1554466244.958205,-0.434479,-1.280959,2.314042,-0.120303,0.958290,-0.259243,0.000000,0.000000,0.000000,-1,-0.326294,-0.087688,0.382423,0.133990,-0.937248,-0.030750
"2019-04-05 12:10:44.978 +0000",1554466244.978198,-0.449565,-1.297932,2.312350,-0.117114,0.963003,-0.242713,0.000000,0.000000,0.000000,-1,-0.948049,-0.970758,0.335017,0.223879,-0.503057,0.219917
"2019-04-05 12:10:44.998 +0000",1554466244.998175,-0.479807,-1.315949,2.297868,-0.116370,0.967702,-0.223631,0.000000,0.000000,0.000000,-1,-0.775114,-0.459512,0.157186,0.263724,-0.474385,-0.507905
"2019-04-05 12:10:45.018 +0000",1554466245.018183,-0.488648,-1.330372,2.271308,-0.111779,0.971237,-0.210248,0.000000,0.000000,0.000000,-1,-0.880333,1.372027,0.012964,0.320794,-0.355774,-0.983417
"2019-04-05 12:10:45.038 +0000",1554466245.038175,-0.492325,-1.337836,2.252946,-0.109121,0.972987,-0.203441,0.000000,0.000000,0.000000,-1,0.114399,-0.000059,0.093554,0.409018,-0.043636,-1.227895
"2019-04-05 12:10:45.058 +0000",1554466245.058166,-0.450560,-1.317871,2.309668,-0.108971,0.968185,-0.225265,0.000000,0.000000,0.000000,-1,1.566923,-0.895732,-0.080410,0.059349,1.914918,0.231902
"2019-04-05 12:10:45.078 +0000",1554466245.078159,-0.472895,-1.299366,2.301916,-0.122115,0.963388,-0.238686,0.000000,0.000000,0.000000,-1,0.043989,0.125770,-0.421226,0.449355,1.983267,1.015129
"2019-04-05 12:10:45.098 +0000",1554466245.098151,-0.464238,-1.314545,2.278340,-0.113483,0.967347,-0.226632,0.000000,0.000000,0.000000,-1,-1.119308,1.843345,0.247979,0.696277,1.399764,0.418862
"2019-04-05 12:10:45.118 +0000",1554466245.118121,-0.456868,-1.341952,2.256363,-0.100073,0.973929,-0.203585,0.000000,0.000000,0.000000,-1,-1.403745,1.161147,0.285108,-0.027155,1.119302,-0.108899
"2019-04-05 12:10:45.138 +0000",1554466245.138136,-0.484750,-1.361716,2.204658,-0.096721,0.978222,-0.183648,0.000000,0.000000,0.000000,-1,-0.790289,1.188502,-0.195799,-0.426091,0.817798,-0.324149
"2019-04-05 12:10:45.158 +0000",1554466245.158109,-0.475072,-1.357404,2.190798,-0.096867,0.977318,-0.188324,0.000000,0.000000,0.000000,-1,0.626966,0.918368,-0.215960,-0.114818,-0.183571,-0.138351
"2019-04-05 12:10:45.178 +0000",1554466245.178124,-0.454480,-1.338161,2.205193,-0.101207,0.973062,-0.207140,0.000000,0.000000,0.000000,-1,0.915229,0.182431,-0.320616,-0.004689,-0.843683,0.590075
"2019-04-05 12:10:45.198 +0000",1554466245.198114,-0.429157,-1.325082,2.210093,-0.101217,0.969964,-0.221191,0.000000,0.000000,0.000000,-1,0.518710,1.673580,-0.168374,0.103430,-1.039864,0.816253
"2019-04-05 12:10:45.218 +0000",1554466245.218086,-0.393528,-1.317798,2.210458,-0.095980,0.968166,-0.231175,0.000000,0.000000,0.000000,-1,0.126247,1.562937,-0.212219,-0.312330,-1.049541,-0.134075
"2019-04-05 12:10:45.238 +0000",1554466245.238100,-0.414616,-1.317057,2.166780,-0.101123,0.967981,-0.229756,0.000000,0.000000,0.000000,-1,-0.283508,0.828086,-0.708708,-0.278470,-1.044824,0.300313
"2019-04-05 12:10:45.258 +0000",1554466245.258094,-0.472714,-1.316216,2.095028,-0.114663,0.967769,-0.224221,0.000000,0.000000,0.000000,-1,-0.401471,0.439334,-0.830573,0.172265,-0.947017,0.459603
"2019-04-05 12:10:45.278 +0000",1554466245.278086,-0.537184,-1.320435,2.023965,-0.126780,0.968823,-0.212859,0.000000,0.000000,0.000000,-1,-0.738970,0.127647,-0.578045,0.431712,-0.681805,0.335997
"2019-04-05 12:10:45.298 +0000",1554466245.298077,-0.597319,-1.327204,1.956971,-0.135652,0.970478,-0.199428,0.000000,0.000000,0.000000,-1,-0.635707,0.228496,-0.449711,0.418886,-0.469883,0.066066
"2019-04-05 12:10:45.318 +0000",1554466245.318070,-0.625709,-1.326547,1.917089,-0.141632,0.970319,-0.196014,0.000000,0.000000,0.000000,-1,0.018415,0.888503,-0.410319,0.203766,-0.725599,-0.525651
"2019-04-05 12:10:45.338 +0000",1554466245.338063,-0.661675,-1.322086,1.887283,-0.151247,0.969231,-0.194207,0.000000,0.000000,0.000000,-1,-0.105578,-1.570845,-0.411763,0.165682,-0.177956,-1.169853
"2019-04-05 12:10:45.358 +0000",1554466245.358030,-0.673731,-1.327975,1.921564,-0.150013,0.970663,-0.187906,0.000000,0.000000,0.000000,-1,0.184278,-1.831437,1.139667,0.116459,0.840173,-0.410697
"2019-04-05 12:10:45.378 +0000",1554466245.378048,-0.602844,-1.335335,2.004800,-0.132273,0.972407,-0.192168,0.000000,0.000000,0.000000,-1,0.401320,0.065539,0.523877,-1.189260,2.052129,-0.113969
"2019-04-05 12:10:45.398 +0000",1554466245.398042,-0.581007,-1.307938,2.010090,-0.142618,0.965651,-0.217204,0.000000,0.000000,0.000000,-1,1.666921,0.992211,-1.281235,-0.456701,1.360994,-0.179585
"2019-04-05 12:10:45.418 +0000",1554466245.418006,-0.591504,-1.261439,1.995600,-0.169762,0.952530,-0.252722,0.000000,0.000000,0.000000,-1,1.677090,-0.215571,-1.360069,0.181420,0.567765,0.282003
"2019-04-05 12:10:45.438 +0000",1554466245.438025,-0.573717,-1.240855,2.017812,-0.175847,0.946061,-0.272114,0.000000,0.000000,0.000000,-1,0.730561,-0.325132,0.430960,0.446401,0.924422,0.144459
"2019-04-05 12:10:45.458 +0000",1554466245.458020,-0.544353,-1.242541,2.067077,-0.166955,0.946606,-0.275794,0.000000,0.000000,0.000000,-1,0.172515,-0.992832,0.702081,0.165582,0.605304,0.201606
"2019-04-05 12:10:45.478 +0000",1554466245.477991,-0.535871,-1.244377,2.099657,-0.163722,0.947197,-0.275705,0.000000,0.000000,0.000000,-1,0.168903,-1.098719,0.351894,0.020580,0.251259,0.126551
"2019-04-05 12:10:45.498 +0000",1554466245.498005,-0.552802,-1.249770,2.099720,-0.165682,0.948912,-0.268543,0.000000,0.000000,0.000000,-1,-0.462074,-0.754575,0.070549,0.064699,-0.162749,0.096378
"2019-04-05 12:10:45.518 +0000",1554466245.517997,-0.580354,-1.263050,2.083415,-0.166093,0.953019,-0.253316,0.000000,0.000000,0.000000,-1,-0.820359,-0.444675,0.184881,0.413117,-0.689637,0.089177
"2019-04-05 12:10:45.538 +0000",1554466245.537990,-0.608748,-1.282080,2.060257,-0.162816,0.958610,-0.233576,0.000000,0.000000,0.000000,-1,-1.005636,-0.349270,0.294183,0.609639,-1.030281,0.153971
"2019-04-05 12:10:45.558 +0000",1554466245.557979,-0.623669,-1.303478,2.054152,-0.154266,0.964483,-0.214418,0.000000,0.000000,0.000000,-1,-0.834844,-0.442036,0.731901,0.551238,-1.265920,0.073091
"2019-04-05 12:10:45.578 +0000",1554466245.577953,-0.603965,-1.324453,2.079884,-0.138490,0.969811,-0.200718,0.000000,0.000000,0.000000,-1,-0.598713,-0.107413,0.866412,0.153779,-1.294350,-0.154689
"2019-04-05 12:10:45.598 +0000",1554466245.597965,-0.579019,-1.339662,2.098511,-0.125354,0.973407,-0.191741,0.000000,0.000000,0.000000,-1,-0.415749,0.649594,0.327078,-0.192837,-1.037555,-0.238755
"2019-04-05 12:10:45.618 +0000",1554466245.617936,-0.606385,-1.339072,2.061643,-0.130881,0.973272,-0.188711,0.000000,0.000000,0.000000,-1,-0.137496,-0.129049,-0.641672,-0.163079,-0.524374,-0.116098
"2019-04-05 12:10:45.638 +0000",1554466245.637940,-0.683177,-1.338935,1.988800,-0.145057,0.973240,-0.178218,0.000000,0.000000,0.000000,-1,-0.848787,-0.024198,-0.693270,0.188270,-0.284047,-0.812291
"2019-04-05 12:10:45.658 +0000",1554466245.657946,-0.749886,-1.343374,1.915255,-0.153669,0.974251,-0.164990,0.000000,0.000000,0.000000,-1,-0.251963,0.449434,-0.210698,0.017469,0.693825,-0.583820
"2019-04-05 12:10:45.678 +0000",1554466245.677933,-0.678777,-1.332616,1.973027,-0.148129,0.971769,-0.183637,0.000000,0.000000,0.000000,-1,1.279401,0.745243,0.109169,-0.116397,1.375033,-0.461779
"2019-04-05 12:10:45.698 +0000",1554466245.697910,-0.647773,-1.313576,1.996060,-0.153504,0.967101,-0.202860,0.000000,0.000000,0.000000,-1,0.512079,0.241906,-0.501687,0.424118,1.694551,0.595942
"2019-04-05 12:10:45.718 +0000",1554466245.717923,-0.654416,-1.315857,1.973154,-0.153505,0.967679,-0.200086,0.000000,0.000000,0.000000,-1,-0.734689,1.242425,0.109027,0.547197,1.116870,0.669736
"2019-04-05 12:10:45.738 +0000",1554466245.737898,-0.660251,-1.342373,1.938452,-0.138880,0.974025,-0.178853,0.000000,0.000000,0.000000,-1,-1.474450,1.341400,0.612755,0.269053,0.977773,0.277363
"2019-04-05 12:10:45.758 +0000",1554466245.757902,-0.652686,-1.370952,1.924028,-0.120564,0.980097,-0.157713,0.000000,0.000000,0.000000,-1,-0.953303,0.974951,0.834290,-0.349468,0.768026,-0.383639
"2019-04-05 12:10:45.778 +0000",1554466245.777899,-0.557785,-1.383085,1.999127,-0.098775,0.982434,-0.158327,0.000000,0.000000,0.000000,-1,0.467456,1.058426,0.962621,-0.333125,0.266300,-0.306685
"2019-04-05 12:10:45.798 +0000",1554466245.797875,-0.405045,-1.374214,2.136042,-0.076967,0.980740,-0.179514,0.000000,0.000000,0.000000,-1,1.087072,0.935566,0.888610,-0.183256,-0.133724,0.026423
"2019-04-05 12:10:45.818 +0000",1554466245.817885,-0.299928,-1.369047,2.205385,-0.059204,0.979718,-0.191438,0.000000,0.000000,0.000000,-1,0.029531,2.469615,0.282419,-0.020157,-1.329235,0.948839
"2019-04-05 12:10:45.838 +0000",1554466245.837848,-0.258459,-1.370356,2.198783,-0.050888,0.979979,-0.192488,0.000000,0.000000,0.000000,-1,-0.038751,2.153486,-0.201773,-0.199127,-0.690535,-0.061952
"2019-04-05 12:10:45.858 +0000",1554466245.857872,-0.287754,-1.367324,2.138569,-0.057347,0.979371,-0.193762,0.000000,0.000000,0.000000,-1,0.016793,1.047260,-0.897220,-0.159495,-0.998582,-0.041360
"2019-04-05 12:10:45.878 +0000",1554466245.877863,-0.379633,-1.361470,2.039832,-0.077007,0.978171,-0.193006,0.000000,0.000000,0.000000,-1,-0.194025,-0.298643,-1.073545,0.029796,-1.075141,0.308744
"2019-04-05 12:10:45.898 +0000",1554466245.897845,-0.510661,-1.363309,1.925801,-0.100684,0.978552,-0.179721,0.000000,0.000000,0.000000,-1,-0.802344,-1.173420,-0.905202,0.164298,-0.755712,0.225955
"2019-04-05 12:10:45.918 +0000",1554466245.917849,-0.610609,-1.371800,1.833469,-0.113346,0.980265,-0.161964,0.000000,0.000000,0.000000,-1,-0.820546,0.060505,-0.411718,0.300785,-0.396785,-0.092080
"2019-04-05 12:10:45.938 +0000",1554466245.937841,-0.674879,-1.379943,1.779049,-0.118523,0.981843,-0.148112,0.000000,0.000000,0.000000,-1,-0.525007,-1.425808,-0.135141,0.131112,0.204635,-0.495382
"2019-04-05 12:10:45.958 +0000",1554466245.957834,-0.689821,-1.371605,1.807368,-0.125929,0.980227,-0.152634,0.000000,0.000000,0.000000,-1,0.964081,-2.603420,0.136951,0.130155,0.175886,-0.967025
"2019-04-05 12:10:45.978 +0000",1554466245.977827,-0.625857,-1.364260,1.933669,-0.120129,0.978747,-0.166202,0.000000,0.000000,0.000000,-1,1.019120,-2.934766,1.138670,0.094388,0.083982,-0.511944
"2019-04-05 12:10:45.998 +0000",1554466245.997818,-0.583723,-1.354522,2.020674,-0.118269,0.976704,-0.179059,0.000000,0.000000,0.000000,-1,1.017061,-1.582067,-0.296558,-0.813112,0.728664,-0.183611
"2019-04-05 12:10:46.018 +0000",1554466246.017812,-0.629190,-1.317982,1.986339,-0.147199,0.968212,-0.202231,0.000000,0.000000,0.000000,-1,1.188435,-0.083684,-1.786906,-0.763445,0.696674,-0.422479
"2019-04-05 12:10:46.038 +0000",1554466246.037789,-0.646060,-1.278572,1.938070,-0.173439,0.957605,-0.230023,0.000000,0.000000,0.000000,-1,1.418429,2.662344,-1.578673,-0.358528,0.353796,0.053098
"2019-04-05 12:10:46.058 +0000",1554466246.057782,-0.579445,-1.234074,1.952889,-0.180911,0.943843,-0.276463,0.000000,0.000000,0.000000,-1,2.204077,1.150019,-0.522987,0.734469,2.633870,-0.128383
"2019-04-05 12:10:46.078 +0000",1554466246.077762,-0.520533,-1.199033,2.044565,-0.180664,0.931688,-0.315147,0.000000,0.000000,0.000000,-1,2.153254,-1.933140,0.815272,0.378220,0.598784,0.642570
"2019-04-05 12:10:46.098 +0000",1554466246.097755,-0.470725,-1.187773,2.121616,-0.169497,0.927539,-0.333080,0.000000,0.000000,0.000000,-1,0.539516,-0.719908,0.982951,0.057848,0.347150,0.792552
"2019-04-05 12:10:46.118 +0000",1554466246.117757,-0.460167,-1.202570,2.154198,-0.159858,0.932967,-0.322518,0.000000,0.000000,0.000000,-1,-0.842043,-1.315326,0.776729,-0.236627,-0.429656,0.170067
"2019-04-05 12:10:46.138 +0000",1554466246.137766,-0.490690,-1.228994,2.156380,-0.157951,0.942152,-0.295637,0.000000,0.000000,0.000000,-1,-1.251251,-1.665935,0.603383,0.120735,-0.842848,-0.054553
"2019-04-05 12:10:46.158 +0000",1554466246.157759,-0.521062,-1.255544,2.162807,-0.154346,0.950718,-0.268909,0.000000,0.000000,0.000000,-1,-0.950477,-2.045233,0.809568,0.389423,-1.145283,-0.274472
"2019-04-05 12:10:46.178 +0000",1554466246.177753,-0.534712,-1.272465,2.194068,-0.149783,0.955828,-0.252898,0.000000,0.000000,0.000000,-1,-0.196182,-1.921559,0.759805,0.262194,-1.385302,-0.143403
"2019-04-05 12:10:46.198 +0000",1554466246.197736,-0.519058,-1.274230,2.217589,-0.144968,0.956346,-0.253746,0.000000,0.000000,0.000000,-1,0.170979,0.593800,0.111992,-0.021383,-1.082017,0.301964
"2019-04-05 12:10:46.218 +0000",1554466246.217737,-0.515881,-1.274119,2.206284,-0.144214,0.956313,-0.254298,0.000000,0.000000,0.000000,-1,-0.333740,0.353845,-0.285264,0.112323,-0.719070,0.421077
"2019-04-05 12:10:46.238 +0000",1554466246.237732,-0.568854,-1.282527,2.156598,-0.153139,0.958737,-0.239522,0.000000,0.000000,0.000000,-1,-0.862713,-0.496176,-0.401361,0.380205,-0.334241,0.206945
"2019-04-05 12:10:46.258 +0000",1554466246.257702,-0.612898,-1.288331,2.115292,-0.160333,0.960371,-0.227992,0.000000,0.000000,0.000000,-1,-0.397082,0.010632,-0.234557,0.358835,-0.256453,-1.188528
"2019-04-05 12:10:46.278 +0000",1554466246.277714,-0.609794,-1.287342,2.111188,-0.160169,0.960095,-0.229267,0.000000,0.000000,0.000000,-1,0.396146,0.842537,0.079502,0.120633,0.381931,-0.857082
"2019-04-05 12:10:46.298 +0000",1554466246.297708,-0.564435,-1.282727,2.143936,-0.151977,0.958794,-0.240035,0.000000,0.000000,0.000000,-1,0.207313,0.163493,0.199772,-0.408250,1.060310,0.000868
"2019-04-05 12:10:46.318 +0000",1554466246.317698,-0.592972,-1.293266,2.122887,-0.153108,0.961735,-0.227208,0.000000,0.000000,0.000000,-1,-0.962689,-0.264988,-0.048122,0.066622,1.668422,0.370564
"2019-04-05 12:10:46.338 +0000",1554466246.337695,-0.629904,-1.311270,2.074807,-0.151168,0.966512,-0.207373,0.000000,0.000000,0.000000,-1,-1.150926,0.723780,0.113047,0.277389,1.666682,0.267798
"2019-04-05 12:10:46.358 +0000",1554466246.357685,-0.644754,-1.333833,2.043542,-0.141086,0.972055,-0.187625,0.000000,0.000000,0.000000,-1,-1.070158,0.850918,0.501002,0.115009,1.175207,0.000613
"2019-04-05 12:10:46.378 +0000",1554466246.377678,-0.622505,-1.352806,2.041285,-0.126100,0.976334,-0.175700,0.000000,0.000000,0.000000,-1,-0.506235,1.498154,0.517205,-0.218871,0.633514,-0.103215
"2019-04-05 12:10:46.398 +0000",1554466246.397671,-0.562921,-1.355002,2.065749,-0.114269,0.976807,-0.181084,0.000000,0.000000,0.000000,-1,0.344391,1.802823,0.112651,-0.225911,0.320816,-0.161567
"2019-04-05 12:10:46.418 +0000",1554466246.417663,-0.522156,-1.345180,2.077042,-0.111574,0.974656,-0.193898,0.000000,0.000000,0.000000,-1,0.496120,1.303976,-0.257392,-0.100767,-0.457078,0.082173
"2019-04-05 12:10:46.438 +0000",1554466246.437655,-0.511841,-1.340135,2.060915,-0.111975,0.973515,-0.199323,0.000000,0.000000,0.000000,-1,-0.133240,1.487479,-0.305763,0.101050,-1.116246,0.554715
"2019-04-05 12:10:46.458 +0000",1554466246.457638,-0.526407,-1.340711,2.013540,-0.114585,0.973647,-0.197186,0.000000,0.000000,0.000000,-1,-0.281260,1.437730,-0.565687,-0.096124,-1.095610,-0.088856
"2019-04-05 12:10:46.478 +0000",1554466246.477631,-0.583247,-1.336185,1.937218,-0.128027,0.972605,-0.194034,0.000000,0.000000,0.000000,-1,-0.299564,0.499118,-1.063616,-0.224603,-1.200068,0.043338
"2019-04-05 12:10:46.498 +0000",1554466246.497633,-0.682512,-1.329766,1.838827,-0.150561,0.971093,-0.185231,0.000000,0.000000,0.000000,-1,-0.503290,-0.634449,-1.105073,-0.181349,-0.812035,0.259831
"2019-04-05 12:10:46.518 +0000",1554466246.517608,-0.818985,-1.327852,1.728094,-0.175719,0.970634,-0.164295,0.000000,0.000000,0.000000,-1,-1.084402,-1.808776,-0.949521,0.133254,-0.539039,0.281330
"2019-04-05 12:10:46.538 +0000",1554466246.537602,-0.957530,-1.331621,1.612483,-0.193731,0.971534,-0.136347,0.000000,0.000000,0.000000,-1,-1.088126,-0.802096,-0.541226,0.397040,-0.507590,-0.008032
"2019-04-05 12:10:46.558 +0000",1554466246.557612,-1.019671,-1.336257,1.558611,-0.197986,0.972621,-0.121693,0.000000,0.000000,0.000000,-1,-0.444597,-0.695105,0.105617,0.410556,-0.270107,-0.631481
"2019-04-05 12:10:46.578 +0000",1554466246.577605,-1.061685,-1.339455,1.550871,-0.200205,0.973360,-0.111753,0.000000,0.000000,0.000000,-1,-0.013278,-2.404176,0.118219,0.168070,-0.163622,-1.197344
"2019-04-05 12:10:46.598 +0000",1554466246.597574,-1.098122,-1.352741,1.582048,-0.192612,0.976320,-0.098489,0.000000,0.000000,0.000000,-1,0.002804,-3.634365,1.216584,0.066559,0.348906,-0.906058
"2019-04-05 12:10:46.618 +0000",1554466246.617590,-1.078782,-1.370460,1.656811,-0.175394,0.980000,-0.094007,0.000000,0.000000,0.000000,-1,0.565818,-1.594937,0.681759,-1.112432,1.452541,0.023390
"2019-04-05 12:10:46.638 +0000",1554466246.637555,-1.013014,-1.350077,1.718724,-0.185749,0.975740,-0.115882,0.000000,0.000000,0.000000,-1,1.395846,1.161979,-1.208595,-0.939663,1.280684,-0.221063
"2019-04-05 12:10:46.658 +0000",1554466246.657576,-0.912341,-1.295870,1.775559,-0.214721,0.962445,-0.166115,0.000000,0.000000,0.000000,-1,2.543421,3.084001,-1.952676,0.212188,1.045154,0.161934
"2019-04-05 12:10:46.678 +0000",1554466246.677545,-0.765208,-1.247105,1.867565,-0.220322,0.948068,-0.229403,0.000000,0.000000,0.000000,-1,2.619133,1.831833,-0.084601,0.617310,1.322288,0.283618
"2019-04-05 12:10:46.698 +0000",1554466246.697560,-0.682427,-1.223978,1.973952,-0.214372,0.940459,-0.263783,0.000000,0.000000,0.000000,-1,1.265162,-1.776298,0.751905,0.201173,0.797090,0.927647
"2019-04-05 12:10:46.718 +0000",1554466246.717553,-0.679128,-1.236537,2.009763,-0.206065,0.944654,-0.255278,0.000000,0.000000,0.000000,-1,-0.691791,-1.511902,0.920425,-0.127706,0.467715,0.535368
"2019-04-05 12:10:46.738 +0000",1554466246.737528,-0.718002,-1.263666,2.009548,-0.198894,0.953205,-0.227687,0.000000,0.000000,0.000000,-1,-1.122844,-2.022976,0.789620,-0.268666,-0.030765,0.076076
"2019-04-05 12:10:46.758 +0000",1554466246.757538,-0.774299,-1.287376,1.983758,-0.195529,0.960105,-0.199919,0.000000,0.000000,0.000000,-1,-1.096358,-1.186548,0.423305,-0.014950,-0.665259,0.039885
"2019-04-05 12:10:46.778 +0000",1554466246.777531,-0.826264,-1.305490,1.948594,-0.192827,0.965012,-0.177678,0.000000,0.000000,0.000000,-1,-0.889222,-0.939817,0.258135,0.418916,-1.329026,-0.098125
"2019-04-05 12:10:46.798 +0000",1554466246.797514,-0.871624,-1.315496,1.920609,-0.193285,0.967588,-0.162528,0.000000,0.000000,0.000000,-1,-0.379200,-0.682293,0.082387,0.486879,-1.628919,-0.258905
"2019-04-05 12:10:46.818 +0000",1554466246.817517,-0.858777,-1.316418,1.933648,-0.190505,0.967820,-0.164415,0.000000,0.000000,0.000000,-1,0.400149,0.371807,0.191472,0.378952,-1.269349,-0.422515
"2019-04-05 12:10:46.838 +0000",1554466246.837508,-0.799853,-1.309170,1.987427,-0.185519,0.965971,-0.180232,0.000000,0.000000,0.000000,-1,0.774725,0.137238,0.181400,0.178897,-0.843153,-0.275746
"2019-04-05 12:10:46.857 +0000",1554466246.857481,-0.801523,-1.309289,1.995206,-0.185737,0.966001,-0.179842,0.000000,0.000000,0.000000,-1,-0.489392,-0.781076,-0.014107,-0.032860,-0.397138,0.464785
"2019-04-05 12:10:46.877 +0000",1554466246.877492,-0.886354,-1.320145,1.924803,-0.192171,0.968751,-0.156818,0.000000,0.000000,0.000000,-1,-1.184919,-0.656918,-0.244783,-0.018950,-0.399033,-0.211346
"2019-04-05 12:10:46.897 +0000",1554466246.897465,-1.001458,-1.329062,1.820202,-0.201626,0.970924,-0.129048,0.000000,0.000000,0.000000,-1,-1.263682,-0.780001,-0.434273,0.185512,0.375603,-0.852352
"2019-04-05 12:10:46.917 +0000",1554466246.917480,-1.053793,-1.330079,1.777717,-0.207241,0.971167,-0.117835,0.000000,0.000000,0.000000,-1,0.176114,-0.313313,-0.004794,-0.036136,1.036859,-0.532998
"2019-04-05 12:10:46.937 +0000",1554466246.937460,-0.967065,-1.319607,1.859100,-0.204617,0.968618,-0.141110,0.000000,0.000000,0.000000,-1,1.531730,0.856082,-0.134922,-0.089237,1.309962,-0.376468
"2019-04-05 12:10:46.957 +0000",1554466246.957462,-0.868399,-1.291912,1.930704,-0.210123,0.961363,-0.177847,0.000000,0.000000,0.000000,-1,1.403032,1.790196,-0.534276,0.375604,1.550997,0.234503
"2019-04-05 12:10:46.977 +0000",1554466246.977455,-0.818588,-1.278572,1.942930,-0.210353,0.957605,-0.196834,0.000000,0.000000,0.000000,-1,0.078132,1.928430,-0.291155,0.449672,1.056112,0.448085
"2019-04-05 12:10:46.997 +0000",1554466246.997419,-0.804625,-1.287974,1.913773,-0.201087,0.960272,-0.193500,0.000000,0.000000,0.000000,-1,-0.954933,2.148354,0.214738,-0.067208,0.801859,0.307239
"2019-04-05 12:10:47.017 +0000",1554466247.017442,-0.800772,-1.307481,1.875063,-0.186855,0.965532,-0.181196,0.000000,0.000000,0.000000,-1,-0.934892,2.034487,0.426365,-0.212864,0.377302,-0.085131
"2019-04-05 12:10:47.037 +0000",1554466247.037421,-0.747960,-1.319172,1.888239,-0.169341,0.968509,-0.182520,0.000000,0.000000,0.000000,-1,0.050005,1.875515,0.565477,-0.300508,0.049710,-0.365637
"2019-04-05 12:10:47.057 +0000",1554466247.057426,-0.699184,-1.323296,1.914745,-0.157669,0.969528,-0.187501,0.000000,0.000000,0.000000,-1,-0.062762,0.765641,0.246244,-0.300294,-0.513824,0.182145
"2019-04-05 12:10:47.077 +0000",1554466247.077420,-0.688911,-1.328335,1.902689,-0.152626,0.970750,-0.185337,0.000000,0.000000,0.000000,-1,-0.337944,1.368184,-0.103245,-0.061714,-1.241960,0.482807
"2019-04-05 12:10:47.097 +0000",1554466247.097405,-0.708396,-1.328566,1.855930,-0.156062,0.970805,-0.182157,0.000000,0.000000,0.000000,-1,-0.506445,1.182676,-0.595028,-0.199925,-0.938686,-0.025347
"2019-04-05 12:10:47.117 +0000",1554466247.117405,-0.775063,-1.325800,1.771434,-0.169729,0.970138,-0.173274,0.000000,0.000000,0.000000,-1,-0.515725,0.459575,-0.946337,-0.017161,-1.113632,0.037532
"2019-04-05 12:10:47.137 +0000",1554466247.137397,-0.852192,-1.315198,1.700228,-0.190307,0.967512,-0.166443,0.000000,0.000000,0.000000,-1,-0.184333,-1.102857,-1.023617,0.103790,-0.907286,0.084030
"2019-04-05 12:10:47.157 +0000",1554466247.157371,-0.960957,-1.305256,1.627409,-0.215125,0.964951,-0.150303,0.000000,0.000000,0.000000,-1,-0.663325,-1.934051,-0.815498,0.312354,-0.587372,0.296757
"2019-04-05 12:10:47.177 +0000",1554466247.177368,-1.045220,-1.307795,1.559408,-0.224892,0.965614,-0.130435,0.000000,0.000000,0.000000,-1,-0.790642,-0.339179,-0.132291,0.524117,-0.416816,0.184985
"2019-04-05 12:10:47.197 +0000",1554466247.197375,-1.059607,-1.313281,1.544155,-0.222121,0.967026,-0.124592,0.000000,0.000000,0.000000,-1,0.044194,-0.239307,0.293643,0.417144,-0.418137,-0.543620
"2019-04-05 12:10:47.217 +0000",1554466247.217368,-1.050938,-1.316846,1.597631,-0.218039,0.967928,-0.124800,0.000000,0.000000,0.000000,-1,0.637259,-3.350863,0.610122,0.346289,-0.131883,-1.022127
"2019-04-05 12:10:47.237 +0000",1554466247.237361,-1.042389,-1.330910,1.684563,-0.205187,0.971365,-0.119784,0.000000,0.000000,0.000000,-1,0.530779,-3.358232,1.559612,0.025866,0.304377,-0.438611
"2019-04-05 12:10:47.257 +0000",1554466247.257353,-0.981686,-1.344998,1.775128,-0.186146,0.974616,-0.124395,0.000000,0.000000,0.000000,-1,0.483673,-0.265743,0.403729,-1.199230,1.355447,-0.098154
"2019-04-05 12:10:47.277 +0000",1554466247.277346,-0.959196,-1.315953,1.778668,-0.206397,0.967703,-0.144747,0.000000,0.000000,0.000000,-1,1.198588,1.411160,-1.922472,-0.479089,0.770365,-0.346525
"2019-04-05 12:10:47.297 +0000",1554466247.297337,-0.914619,-1.266913,1.785528,-0.237088,0.954182,-0.182557,0.000000,0.000000,0.000000,-1,1.546368,2.449880,-1.501477,-0.286731,1.486172,-0.170120
"2019-04-05 12:10:47.317 +0000",1554466247.317305,-0.797982,-1.245335,1.850565,-0.228922,0.947503,-0.223232,0.000000,0.000000,0.000000,-1,1.708355,1.789384,0.457190,0.425714,0.910498,0.282650
"2019-04-05 12:10:47.337 +0000",1554466247.337298,-0.710856,-1.235635,1.958293,-0.214616,0.944357,-0.249258,0.000000,0.000000,0.000000,-1,1.215677,-1.807483,1.100002,0.176453,0.828317,0.523382
"2019-04-05 12:10:47.357 +0000",1554466247.357312,-0.692897,-1.242724,2.022606,-0.205823,0.946665,-0.247915,0.000000,0.000000,0.000000,-1,-0.073627,-2.159656,0.969413,-0.046130,0.360174,0.636434
"2019-04-05 12:10:47.377 +0000",1554466247.377283,-0.722753,-1.261170,2.031961,-0.201546,0.952447,-0.228523,0.000000,0.000000,0.000000,-1,-0.793854,-1.720861,0.536989,-0.144538,-0.346109,0.111687
"2019-04-05 12:10:47.397 +0000",1554466247.397302,-0.771458,-1.276420,2.007458,-0.202282,0.956983,-0.208002,0.000000,0.000000,0.000000,-1,-0.784008,-1.042715,0.156760,0.230435,-0.776563,-0.080160
"2019-04-05 12:10:47.417 +0000",1554466247.417278,-0.813009,-1.288844,1.981580,-0.202096,0.960514,-0.191233,0.000000,0.000000,0.000000,-1,-0.641733,-0.810071,0.237841,0.484048,-1.222523,-0.160513
"2019-04-05 12:10:47.437 +0000",1554466247.437280,-0.837939,-1.301511,1.976038,-0.197740,0.963961,-0.177981,0.000000,0.000000,0.000000,-1,-0.333931,-1.050279,0.524051,0.414171,-1.518298,-0.315183
"2019-04-05 12:10:47.457 +0000",1554466247.457279,-0.825398,-1.311460,2.005485,-0.188436,0.966560,-0.173934,0.000000,0.000000,0.000000,-1,0.128508,-0.453106,0.620642,0.123480,-1.183067,-0.362458
"2019-04-05 12:10:47.477 +0000",1554466247.477271,-0.774089,-1.312361,2.048879,-0.178659,0.966791,-0.182746,0.000000,0.000000,0.000000,-1,0.463888,1.079341,0.219743,-0.066031,-0.876764,-0.039483
"2019-04-05 12:10:47.497 +0000",1554466247.497266,-0.747662,-1.307753,2.053546,-0.176795,0.965603,-0.190668,0.000000,0.000000,0.000000,-1,-0.129369,0.752346,-0.294977,-0.004205,-0.282955,0.570169
"2019-04-05 12:10:47.517 +0000",1554466247.517255,-0.820735,-1.312647,1.992219,-0.186783,0.966864,-0.174028,0.000000,0.000000,0.000000,-1,-0.884995,-1.714679,-0.386914,0.297562,-0.219733,0.034944
"2019-04-05 12:10:47.537 +0000",1554466247.537250,-0.925352,-1.323337,1.917776,-0.195667,0.969538,-0.147346,0.000000,0.000000,0.000000,-1,-1.189568,-1.147878,-0.060267,0.337071,-0.187738,-1.017907
"2019-04-05 12:10:47.557 +0000",1554466247.557242,-0.974699,-1.332641,1.873072,-0.195224,0.971775,-0.132444,0.000000,0.000000,0.000000,-1,-0.085574,0.312164,0.112078,0.056033,0.791302,-0.856386
"2019-04-05 12:10:47.577 +0000",1554466247.577223,-0.881877,-1.319025,1.941445,-0.192304,0.968473,-0.158366,0.000000,0.000000,0.000000,-1,1.609282,1.636053,-0.300108,-0.224047,1.526111,-0.609776
"2019-04-05 12:10:47.597 +0000",1554466247.597229,-0.796969,-1.286527,1.999232,-0.200594,0.959867,-0.196005,0.000000,0.000000,0.000000,-1,1.269284,1.248544,-0.721298,0.396441,1.833697,0.353247
"2019-04-05 12:10:47.617 +0000",1554466247.617220,-0.781661,-1.283168,1.979912,-0.199840,0.958919,-0.201339,0.000000,0.000000,0.000000,-1,-0.760776,2.157235,-0.049994,0.708919,1.308918,0.832992
"2019-04-05 12:10:47.637 +0000",1554466247.637209,-0.782698,-1.304148,1.925793,-0.185819,0.964659,-0.186825,0.000000,0.000000,0.000000,-1,-1.409222,2.514526,0.329691,0.005353,0.938295,0.065044
"2019-04-05 12:10:47.657 +0000",1554466247.657204,-0.765399,-1.323785,1.892675,-0.169401,0.969648,-0.176316,0.000000,0.000000,0.000000,-1,-0.534328,2.506407,0.407473,-0.453097,0.697894,-0.367584
"2019-04-05 12:10:47.677 +0000",1554466247.677198,-0.674742,-1.325002,1.941779,-0.152006,0.969944,-0.190006,0.000000,0.000000,0.000000,-1,0.764952,1.748464,0.527723,-0.494998,0.130687,-0.489498
"2019-04-05 12:10:47.697 +0000",1554466247.697191,-0.590444,-1.319702,2.011750,-0.138327,0.968641,-0.206397,0.000000,0.000000,0.000000,-1,0.423966,0.435232,0.547806,-0.392694,-0.501051,0.322944
"2019-04-05 12:10:47.717 +0000",1554466247.717184,-0.546933,-1.330019,2.036072,-0.124015,0.971153,-0.203672,0.000000,0.000000,0.000000,-1,-0.459815,1.411172,0.425082,0.018577,-1.323555,0.718840
"2019-04-05 12:10:47.737 +0000",1554466247.737169,-0.533578,-1.333964,2.030867,-0.119334,0.972086,-0.202011,0.000000,0.000000,0.000000,-1,-0.137399,0.571644,-0.184738,-0.291966,-1.008127,-0.128571
"2019-04-05 12:10:47.757 +0000",1554466247.757168,-0.580046,-1.334777,1.972248,-0.128155,0.972277,-0.195587,0.000000,0.000000,0.000000,-1,-0.554992,0.505078,-0.768337,-0.280399,-1.045748,0.072113
"2019-04-05 12:10:47.777 +0000",1554466247.777133,-0.671709,-1.331968,1.880868,-0.147220,0.971616,-0.185173,0.000000,0.000000,0.000000,-1,-0.422646,-0.667415,-1.016606,0.039691,-0.834561,0.324257
"2019-04-05 12:10:47.797 +0000",1554466247.797136,-0.783561,-1.326280,1.789708,-0.170867,0.970255,-0.171496,0.000000,0.000000,0.000000,-1,-0.663530,-1.180677,-0.982142,0.451155,-0.544260,0.465563
"2019-04-05 12:10:47.817 +0000",1554466247.817145,-0.884483,-1.328100,1.698248,-0.185909,0.970693,-0.152289,0.000000,0.000000,0.000000,-1,-0.869063,-0.225245,-0.422009,0.546444,-0.525579,-0.041086
"2019-04-05 12:10:47.837 +0000",1554466247.837130,-0.926870,-1.333243,1.661640,-0.188200,0.971917,-0.141275,0.000000,0.000000,0.000000,-1,-0.326267,-0.764178,0.173880,0.452162,-0.524621,-0.530722
"2019-04-05 12:10:47.857 +0000",1554466247.857131,-0.975966,-1.341596,1.654676,-0.188176,0.973848,-0.127315,0.000000,0.000000,0.000000,-1,-0.317565,-2.779595,0.365626,0.153981,-0.158800,-0.912632
"2019-04-05 12:10:47.877 +0000",1554466247.877125,-1.027516,-1.359841,1.665545,-0.179245,0.977831,-0.108246,0.000000,0.000000,0.000000,-1,-0.378982,-3.058645,1.061333,-0.214767,0.688917,-0.631424
"2019-04-05 12:10:47.897 +0000",1554466247.897095,-1.026586,-1.363413,1.713626,-0.176155,0.978573,-0.106604,0.000000,0.000000,0.000000,-1,0.966263,-1.727491,-0.435097,-1.479667,1.525623,-0.539713
"2019-04-05 12:10:47.917 +0000",1554466247.917080,-1.014128,-1.310128,1.745404,-0.218815,0.966218,-0.136173,0.000000,0.000000,0.000000,-1,1.944631,-0.516897,-2.675731,-0.996532,0.686309,-0.514066
"2019-04-05 12:10:47.937 +0000",1554466247.937103,-0.920400,-1.251091,1.810437,-0.250123,0.949328,-0.190301,0.000000,0.000000,0.000000,-1,2.648570,3.036579,-1.225499,-0.322020,1.893506,0.303232
"2019-04-05 12:10:47.957 +0000",1554466247.957086,-0.760443,-1.216190,1.903200,-0.239320,0.937783,-0.251573,0.000000,0.000000,0.000000,-1,2.208399,3.565975,0.327680,0.512239,1.118827,0.424165
"2019-04-05 12:10:47.977 +0000",1554466247.977087,-0.631064,-1.192622,2.015683,-0.217844,0.929340,-0.298112,0.000000,0.000000,0.000000,-1,1.991004,-0.489625,0.921811,0.361368,0.739452,0.459061
"2019-04-05 12:10:47.997 +0000",1554466247.997076,-0.595395,-1.185181,2.089880,-0.210947,0.926567,-0.311408,0.000000,0.000000,0.000000,-1,0.496969,-1.797005,0.861281,0.096674,0.141853,0.744254
"2019-04-05 12:10:48.017 +0000",1554466248.017057,-0.606403,-1.197640,2.106019,-0.207767,0.931181,-0.299557,0.000000,0.000000,0.000000,-1,-0.732215,-0.945234,0.431245,-0.030911,-0.278975,0.318677
"2019-04-05 12:10:48.037 +0000",1554466248.037046,-0.630328,-1.215915,2.090444,-0.204808,0.937688,-0.280706,0.000000,0.000000,0.000000,-1,-0.849864,-0.318377,0.284494,0.204258,-0.817525,-0.006968
"2019-04-05 12:10:48.057 +0000",1554466248.057029,-0.643265,-1.229423,2.090743,-0.200806,0.942296,-0.267873,0.000000,0.000000,0.000000,-1,-0.362378,-1.012036,0.501758,0.304428,-0.974278,-0.186183
"2019-04-05 12:10:48.077 +0000",1554466248.077022,-0.647280,-1.240445,2.108809,-0.195604,0.945929,-0.258763,0.000000,0.000000,0.000000,-1,-0.265690,-0.813399,0.570409,0.315172,-1.065161,-0.163173
"2019-04-05 12:10:48.097 +0000",1554466248.097025,-0.635486,-1.250081,2.116839,-0.187120,0.949010,-0.253704,0.000000,0.000000,0.000000,-1,-0.296674,0.904669,0.265548,0.049516,-1.110845,0.007687
"2019-04-05 12:10:48.117 +0000",1554466248.117035,-0.616492,-1.253745,2.107571,-0.180256,0.950159,-0.254374,0.000000,0.000000,0.000000,-1,-0.258710,1.245075,-0.179400,0.088306,-0.712335,0.288706
"2019-04-05 12:10:48.137 +0000",1554466248.137029,-0.661713,-1.259673,2.059113,-0.188107,0.951990,-0.241517,0.000000,0.000000,0.000000,-1,-0.993125,-0.608751,-0.498173,0.250668,-0.253443,0.632798
"2019-04-05 12:10:48.157 +0000",1554466248.157020,-0.757100,-1.274165,1.983361,-0.200757,0.956327,-0.212453,0.000000,0.000000,0.000000,-1,-1.573053,-1.092638,-0.269683,0.366208,-0.322278,-0.508174
"2019-04-05 12:10:48.177 +0000",1554466248.177014,-0.896518,-1.302674,1.860251,-0.206945,0.964270,-0.165399,0.000000,0.000000,0.000000,-1,-2.448847,-1.180376,-0.095907,0.342138,0.230478,-1.120734
"2019-04-05 12:10:48.197 +0000",1554466248.196981,-1.006209,-1.325041,1.767571,-0.205533,0.969954,-0.130176,0.000000,0.000000,0.000000,-1,-0.728147,-0.537277,0.414960,-0.501529,1.065538,-0.749081
"2019-04-05 12:10:48.217 +0000",1554466248.216989,-0.935989,-1.309635,1.823508,-0.207901,0.966091,-0.153120,0.000000,0.000000,0.000000,-1,1.916725,1.498562,-0.763821,-0.225494,1.588215,-0.536135
"2019-04-05 12:10:48.237 +0000",1554466248.236990,-0.825212,-1.275205,1.901220,-0.214020,0.956630,-0.197622,0.000000,0.000000,0.000000,-1,1.039212,1.335164,-0.354685,0.608628,1.385640,1.167623
"2019-04-05 12:10:48.257 +0000",1554466248.256980,-0.854762,-1.293192,1.841678,-0.206749,0.961715,-0.179888,0.000000,0.000000,0.000000,-1,-2.270300,1.499615,0.261163,0.283150,0.994523,1.448381
"2019-04-05 12:10:48.277 +0000",1554466248.276953,-0.957718,-1.329770,1.706951,-0.195227,0.971094,-0.137345,0.000000,0.000000,0.000000,-1,-2.101877,1.398587,0.458832,-0.411462,0.659720,-0.397003
"2019-04-05 12:10:48.297 +0000",1554466248.296970,-0.929777,-1.345292,1.704869,-0.179210,0.974682,-0.133714,0.000000,0.000000,0.000000,-1,0.432874,1.441090,0.710979,-0.373539,0.431263,-0.616561
"2019-04-05 12:10:48.317 +0000",1554466248.316961,-0.805127,-1.341595,1.809413,-0.163793,0.973848,-0.157454,0.000000,0.000000,0.000000,-1,1.095460,0.959335,0.514077,-0.068522,-0.666933,0.336928
"2019-04-05 12:10:48.337 +0000",1554466248.336949,-0.731739,-1.332564,1.868974,-0.157677,0.971757,-0.175576,0.000000,0.000000,0.000000,-1,0.656769,0.640919,-0.001624,0.000160,-1.281235,0.564340
"2019-04-05 12:10:48.357 +0000",1554466248.356948,-0.720622,-1.321640,1.875171,-0.162711,0.969121,-0.185284,0.000000,0.000000,0.000000,-1,0.246026,0.001625,-0.445623,-0.205896,-1.064351,0.069790
"2019-04-05 12:10:48.377 +0000",1554466248.376940,-0.782284,-1.317002,1.816885,-0.176985,0.967967,-0.178091,0.000000,0.000000,0.000000,-1,-0.594511,-0.312876,-0.834592,-0.056779,-1.177882,0.120413
"2019-04-05 12:10:48.397 +0000",1554466248.396931,-0.886702,-1.309180,1.718533,-0.200445,0.965973,-0.163454,0.000000,0.000000,0.000000,-1,-0.648011,-0.653441,-1.308646,0.211310,-0.885926,0.197542
"2019-04-05 12:10:48.417 +0000",1554466248.416895,-1.015231,-1.297092,1.611164,-0.229647,0.962776,-0.142563,0.000000,0.000000,0.000000,-1,-0.953388,-1.449430,-1.158944,0.397586,-0.575340,0.300766
"2019-04-05 12:10:48.437 +0000",1554466248.436897,-1.107920,-1.295279,1.534498,-0.243418,0.962285,-0.121474,0.000000,0.000000,0.000000,-1,-0.662152,-0.558921,-0.215064,0.760721,-0.495640,0.161895
"2019-04-05 12:10:48.457 +0000",1554466248.456910,-1.139290,-1.300846,1.509015,-0.242239,0.963784,-0.111538,0.000000,0.000000,0.000000,-1,-0.256814,-0.210666,0.189752,0.380270,-0.496804,-0.076130
"2019-04-05 12:10:48.477 +0000",1554466248.476894,-1.164171,-1.297849,1.500178,-0.247590,0.962981,-0.106619,0.000000,0.000000,0.000000,-1,-0.063258,-1.518646,-0.522267,-0.191405,-0.081557,-0.853586
"2019-04-05 12:10:48.497 +0000",1554466248.496896,-1.216894,-1.287974,1.487954,-0.261772,0.960272,-0.096714,0.000000,0.000000,0.000000,-1,0.138757,-1.993715,-0.204293,-0.127861,0.105219,-0.828122
"2019-04-05 12:10:48.517 +0000",1554466248.516888,-1.162609,-1.290622,1.547728,-0.253805,0.961007,-0.109765,0.000000,0.000000,0.000000,-1,1.175421,1.151740,0.436243,-0.908549,0.922568,-0.183509
"2019-04-05 12:10:48.537 +0000",1554466248.536871,-1.039944,-1.271679,1.638087,-0.254122,0.955597,-0.149185,0.000000,0.000000,0.000000,-1,1.776660,1.760823,-0.692340,-0.885206,1.148117,-0.372726
"2019-04-05 12:10:48.557 +0000",1554466248.556869,-0.951111,-1.234191,1.711857,-0.268872,0.943881,-0.191822,0.000000,0.000000,0.000000,-1,2.094702,0.397145,-0.877280,-0.027103,1.222226,0.233448
"2019-04-05 12:10:48.577 +0000",1554466248.576865,-0.878230,-1.203618,1.787690,-0.276277,0.933344,-0.229216,0.000000,0.000000,0.000000,-1,1.745152,-0.071245,-0.084819,0.452928,1.118170,0.413588
"2019-04-05 12:10:48.597 +0000",1554466248.596838,-0.822004,-1.196378,1.859894,-0.267903,0.930720,-0.248974,0.000000,0.000000,0.000000,-1,1.027934,-0.922474,0.920658,0.287220,0.990621,0.456951
"2019-04-05 12:10:48.617 +0000",1554466248.616850,-0.767603,-1.200658,1.943493,-0.251200,0.932277,-0.260303,0.000000,0.000000,0.000000,-1,0.827460,-1.137566,1.322564,0.026972,0.600727,0.317615
"2019-04-05 12:10:48.637 +0000",1554466248.636828,-0.728542,-1.211143,2.007514,-0.234322,0.936019,-0.262606,0.000000,0.000000,0.000000,-1,0.058469,-0.940072,1.018162,-0.192344,-0.087127,0.135393
"2019-04-05 12:10:48.657 +0000",1554466248.656837,-0.728495,-1.222511,2.018709,-0.227211,0.939959,-0.254660,0.000000,0.000000,0.000000,-1,-0.393024,-0.250090,0.242617,-0.024315,-0.515078,0.057395
"2019-04-05 12:10:48.677 +0000",1554466248.676804,-0.741705,-1.230541,2.009455,-0.225448,0.942669,-0.246063,0.000000,0.000000,0.000000,-1,-0.429782,-0.339317,0.215924,0.470550,-0.895871,0.108322
"2019-04-05 12:10:48.697 +0000",1554466248.696805,-0.755509,-1.244278,2.005118,-0.219924,0.947165,-0.233479,0.000000,0.000000,0.000000,-1,-0.591402,-0.490553,0.521022,0.460158,-1.108420,-0.083949
"2019-04-05 12:10:48.717 +0000",1554466248.716814,-0.754888,-1.258353,2.007368,-0.210622,0.951586,-0.223883,0.000000,0.000000,0.000000,-1,-0.361740,0.273461,0.439307,0.119084,-1.159090,-0.252893
"2019-04-05 12:10:48.737 +0000",1554466248.736800,-0.720424,-1.264454,2.018554,-0.198949,0.953443,-0.226641,0.000000,0.000000,0.000000,-1,0.006136,1.648468,0.273093,0.034841,-0.760480,-0.164793
"2019-04-05 12:10:48.757 +0000",1554466248.756800,-0.690645,-1.270394,2.018918,-0.188502,0.955217,-0.228094,0.000000,0.000000,0.000000,-1,-0.460946,0.832480,0.150575,0.156519,-0.304033,0.167776
"2019-04-05 12:10:48.777 +0000",1554466248.776792,-0.730231,-1.285691,1.981016,-0.187612,0.959632,-0.209544,0.000000,0.000000,0.000000,-1,-1.258661,-0.081496,0.110283,0.232411,-0.273826,-0.416997
"2019-04-05 12:10:48.797 +0000",1554466248.796764,-0.779467,-1.310991,1.919874,-0.180570,0.966440,-0.182725,0.000000,0.000000,0.000000,-1,-1.386206,0.518399,0.365801,0.270169,0.077231,-0.699111
"2019-04-05 12:10:48.817 +0000",1554466248.816777,-0.772275,-1.325721,1.927572,-0.169299,0.970119,-0.173802,0.000000,0.000000,0.000000,-1,0.175429,-0.238525,0.668866,0.151492,0.472493,-0.521739
"2019-04-05 12:10:48.837 +0000",1554466248.836754,-0.707140,-1.319873,1.995202,-0.161310,0.968684,-0.188762,0.000000,0.000000,0.000000,-1,0.905553,0.137386,0.135164,0.183145,0.795660,-0.402501
"2019-04-05 12:10:48.857 +0000",1554466248.856762,-0.670128,-1.301253,2.028472,-0.165390,0.963893,-0.208704,0.000000,0.000000,0.000000,-1,1.075003,0.301498,-0.320319,0.318710,1.406286,-0.020926
"2019-04-05 12:10:48.877 +0000",1554466248.876734,-0.643988,-1.298026,2.046522,-0.161745,0.963028,-0.215442,0.000000,0.000000,0.000000,-1,-0.499509,0.650630,0.301772,0.089617,1.570938,0.803714
