timestamp,timeIntervalSince1970,attitude.roll,attitude.pitch,attitude.yaw,gravity.x,gravity.y,gravity.z,magneticField.x,magneticField.y,magneticField.z,magneticField.accuracy,rotationRate.x,rotationRate.y,rotationRate.z,userAcceleration.x,userAcceleration.y,userAcceleration.z
"2019-04-05 12:11:04.595 +0000",1554466264.594616,-0.126578,0.339386,0.040875,-0.119039,-0.332908,-0.935415,0.000000,0.000000,0.000000,-1,-0.144095,-1.102434,0.114983,-0.148936,-0.002663,0.053778
"2019-04-05 12:11:04.615 +0000",1554466264.614605,-0.145628,0.333863,0.042793,-0.137101,-0.327695,-0.934783,0.000000,0.000000,0.000000,-1,-0.383049,-0.915800,0.112250,-0.209304,-0.021700,0.116652
"2019-04-05 12:11:04.635 +0000",1554466264.634563,-0.172222,0.325932,0.041784,-0.162350,-0.320192,-0.933338,0.000000,0.000000,0.000000,-1,-0.326557,-1.888997,-0.085624,-0.127934,-0.035826,0.087925
"2019-04-05 12:11:04.655 +0000",1554466264.654553,-0.217460,0.323490,0.037860,-0.204559,-0.317877,-0.925802,0.000000,0.000000,0.000000,-1,0.007206,-2.834596,-0.226156,-0.069138,0.003256,0.164541
"2019-04-05 12:11:04.675 +0000",1554466264.674553,-0.274511,0.328508,0.032522,-0.256580,-0.322631,-0.911085,0.000000,0.000000,0.000000,-1,0.313228,-2.814586,-0.401635,-0.080426,-0.024598,0.009306
"2019-04-05 12:11:04.695 +0000",1554466264.694542,-0.321998,0.337884,0.023875,-0.298569,-0.331491,-0.894969,0.000000,0.000000,0.000000,-1,0.301238,-2.174142,-0.617820,-0.228912,0.072245,-0.005299
"2019-04-05 12:11:04.715 +0000",1554466264.714530,-0.353448,0.348694,0.011460,-0.325304,-0.341670,-0.881725,0.000000,0.000000,0.000000,-1,0.363586,-1.449552,-0.863575,-0.271604,0.086894,0.035320
"2019-04-05 12:11:04.735 +0000",1554466264.734519,-0.370502,0.358608,-0.000316,-0.339050,-0.350971,-0.872849,0.000000,0.000000,0.000000,-1,0.036588,-0.631517,-0.033961,-0.179490,0.004169,0.146042
"2019-04-05 12:11:04.755 +0000",1554466264.754508,-0.391203,0.354111,-0.002673,-0.357643,-0.346757,-0.867093,0.000000,0.000000,0.000000,-1,-0.532090,-1.752548,-0.245194,0.154244,-0.195083,0.106244
"2019-04-05 12:11:04.774 +0000",1554466264.774495,-0.442178,0.346441,-0.013356,-0.402485,-0.339553,-0.850123,0.000000,0.000000,0.000000,-1,-0.479872,-3.821365,-0.410011,-0.072017,-0.092958,0.134013
"2019-04-05 12:11:04.794 +0000",1554466264.794454,-0.532664,0.340301,-0.024794,-0.478708,-0.333771,-0.812056,0.000000,0.000000,0.000000,-1,-0.587103,-4.762175,0.071046,-0.159400,0.104248,0.005691
"2019-04-05 12:11:04.814 +0000",1554466264.814443,-0.607047,0.327108,-0.028921,-0.540197,-0.321306,-0.777785,0.000000,0.000000,0.000000,-1,-0.771392,-2.781781,0.175587,-0.077723,-0.065978,0.275618
"2019-04-05 12:11:04.834 +0000",1554466264.834432,-0.643129,0.308961,-0.041368,-0.571307,-0.304069,-0.762332,0.000000,0.000000,0.000000,-1,-1.500808,-1.499377,-0.070049,-0.017148,-0.140710,0.119480
"2019-04-05 12:11:04.854 +0000",1554466264.854421,-0.666322,0.278322,-0.069819,-0.594313,-0.274743,-0.755849,0.000000,0.000000,0.000000,-1,-2.555928,-1.854852,-0.140566,-0.011735,-0.111396,0.119741
"2019-04-05 12:11:04.874 +0000",1554466264.874410,-0.703928,0.236081,-0.109400,-0.629264,-0.233894,-0.741161,0.000000,0.000000,0.000000,-1,-3.030367,-2.824525,-0.222496,-0.092354,-0.072273,0.198665
"2019-04-05 12:11:04.894 +0000",1554466264.894398,-0.755954,0.194901,-0.154243,-0.672995,-0.193669,-0.713841,0.000000,0.000000,0.000000,-1,-2.885708,-3.297851,-0.301178,-0.054772,-0.068202,0.134786
"2019-04-05 12:11:04.914 +0000",1554466264.914388,-0.818858,0.165812,-0.200500,-0.720349,-0.165053,-0.673687,0.000000,0.000000,0.000000,-1,-2.377944,-3.805769,-1.002870,0.058286,-0.016359,0.275677
"2019-04-05 12:11:04.934 +0000",1554466264.934377,-0.889928,0.158161,-0.252551,-0.767328,-0.157502,-0.621612,0.000000,0.000000,0.000000,-1,-2.105464,-3.803060,-1.723708,0.120859,-0.078078,0.177428
"2019-04-05 12:11:04.954 +0000",1554466264.954336,-0.950119,0.161033,-0.307730,-0.802960,-0.160338,-0.574062,0.000000,0.000000,0.000000,-1,-2.019306,-3.282963,-1.656953,0.081876,-0.061342,0.446361
"2019-04-05 12:11:04.974 +0000",1554466264.974324,-1.005087,0.162546,-0.354964,-0.833081,-0.161831,-0.528949,0.000000,0.000000,0.000000,-1,-1.747051,-2.972680,-1.091854,-0.189792,0.011486,0.142276
"2019-04-05 12:11:04.994 +0000",1554466264.994314,-1.063567,0.165075,-0.394352,-0.862211,-0.164327,-0.479154,0.000000,0.000000,0.000000,-1,-1.497949,-3.778654,-1.309573,-0.155367,0.160252,-0.035189
"2019-04-05 12:11:05.014 +0000",1554466265.014303,-1.141971,0.180309,-0.438168,-0.894711,-0.179333,-0.409062,0.000000,0.000000,0.000000,-1,-1.798595,-4.564326,-1.993839,-0.004505,0.192562,-0.209300
"2019-04-05 12:11:05.034 +0000",1554466265.034292,-1.218500,0.203690,-0.496709,-0.919179,-0.202284,-0.337921,0.000000,0.000000,0.000000,-1,-2.681606,-4.119544,-2.207442,0.163945,0.180144,-0.128037
"2019-04-05 12:11:05.054 +0000",1554466265.054281,-1.278761,0.226575,-0.565267,-0.933184,-0.224642,-0.280543,0.000000,0.000000,0.000000,-1,-2.482144,-3.222191,-2.096216,0.080309,0.097337,-0.038960
"2019-04-05 12:11:05.074 +0000",1554466265.074270,-1.329389,0.249983,-0.613926,-0.940821,-0.247387,-0.231638,0.000000,0.000000,0.000000,-1,-1.643594,-3.075185,-1.372787,-0.094870,-0.008853,0.180964
"2019-04-05 12:11:05.094 +0000",1554466265.094259,-1.381566,0.261848,-0.652907,-0.948671,-0.258866,-0.181691,0.000000,0.000000,0.000000,-1,-1.748613,-3.125983,-0.742227,-0.108702,-0.022674,0.095311
"2019-04-05 12:11:05.114 +0000",1554466265.114218,-1.441402,0.270951,-0.685436,-0.955462,-0.267648,-0.124326,0.000000,0.000000,0.000000,-1,-1.091248,-3.582433,-0.650314,0.083620,-0.040854,0.031110
"2019-04-05 12:11:05.134 +0000",1554466265.134207,-1.499726,0.280945,-0.703185,-0.958368,-0.277264,-0.068227,0.000000,0.000000,0.000000,-1,-0.971428,-2.550757,-0.555194,0.037668,-0.164417,0.138417
"2019-04-05 12:11:05.154 +0000",1554466265.154196,-1.539354,0.292233,-0.739006,-0.957130,-0.288091,-0.030104,0.000000,0.000000,0.000000,-1,-2.308641,-2.730293,-0.750154,-0.070382,-0.564692,-0.477434
"2019-04-05 12:11:05.174 +0000",1554466265.174184,-1.588976,0.306551,-0.786767,-0.953222,-0.301772,0.017331,0.000000,0.000000,0.000000,-1,-1.946357,-3.365659,-0.685158,0.222143,-0.448655,-0.230496
"2019-04-05 12:11:05.194 +0000",1554466265.194175,-1.642561,0.323234,-0.816070,-0.945772,-0.317635,0.067990,0.000000,0.000000,0.000000,-1,-0.984899,-2.890842,-0.765870,0.566988,-0.326378,0.272785
"2019-04-05 12:11:05.214 +0000",1554466265.214162,-1.693193,0.305596,-0.838145,-0.946533,-0.300862,0.116435,0.000000,0.000000,0.000000,-1,-0.944491,-2.660497,1.740667,-0.880722,-0.570323,0.057149
"2019-04-05 12:11:05.234 +0000",1554466265.234152,-1.728134,0.289992,-0.856284,-0.946410,-0.285945,0.150147,0.000000,0.000000,0.000000,-1,-0.563146,-1.660642,0.231762,0.149504,-0.028935,0.037353
"2019-04-05 12:11:05.254 +0000",1554466265.254140,-1.751035,0.303801,-0.860208,-0.938749,-0.299149,0.171055,0.000000,0.000000,0.000000,-1,-0.074214,-0.644896,-1.361919,-0.198870,0.026170,0.077434
"2019-04-05 12:11:05.274 +0000",1554466265.274098,-1.760318,0.333472,-0.854485,-0.927992,-0.327326,0.178011,0.000000,0.000000,0.000000,-1,-0.020175,-0.277282,-1.481176,-0.018266,0.188410,0.058073
"2019-04-05 12:11:05.294 +0000",1554466265.294088,-1.771936,0.361597,-0.850732,-0.916476,-0.353768,0.186867,0.000000,0.000000,0.000000,-1,-0.183362,-0.788763,-1.445450,0.041873,0.269250,0.068123
"2019-04-05 12:11:05.314 +0000",1554466265.314077,-1.786318,0.389320,-0.850418,-0.903764,-0.379559,0.197853,0.000000,0.000000,0.000000,-1,-0.330159,-0.530661,-1.228106,0.198472,0.083722,0.170799
"2019-04-05 12:11:05.334 +0000",1554466265.334065,-1.786068,0.420688,-0.856817,-0.891739,-0.408389,0.194988,0.000000,0.000000,0.000000,-1,-0.945397,0.278286,-1.855828,-0.165070,-0.202970,0.061162
"2019-04-05 12:11:05.354 +0000",1554466265.354054,-1.772125,0.468361,-0.865984,-0.874286,-0.451424,0.178436,0.000000,0.000000,0.000000,-1,-0.785452,0.650895,-2.551140,-0.106457,0.010567,0.123230
"2019-04-05 12:11:05.374 +0000",1554466265.374043,-1.754580,0.522003,-0.868698,-0.852224,-0.498617,0.158412,0.000000,0.000000,0.000000,-1,-0.482194,0.957666,-2.600879,-0.029734,-0.040399,0.111241
"2019-04-05 12:11:05.394 +0000",1554466265.394032,-1.733172,0.571181,-0.873102,-0.830197,-0.540626,0.136001,0.000000,0.000000,0.000000,-1,-0.703276,1.028423,-1.980667,0.172574,-0.133523,0.010743
"2019-04-05 12:11:05.414 +0000",1554466265.414020,-1.710716,0.596471,-0.886484,-0.819238,-0.561726,0.115381,0.000000,0.000000,0.000000,-1,-0.879432,0.379015,-0.667606,0.184671,-0.956188,-0.075205
"2019-04-05 12:11:05.434 +0000",1554466265.433980,-1.693102,0.607574,-0.904986,-0.814902,-0.570877,0.100167,0.000000,0.000000,0.000000,-1,-0.825060,0.400511,-0.240668,0.214713,-0.023758,0.045051
"2019-04-05 12:11:05.454 +0000",1554466265.453969,-1.673562,0.613302,-0.925508,-0.813438,-0.575571,0.083889,0.000000,0.000000,0.000000,-1,-0.804954,0.423929,-0.279868,0.249275,0.027399,0.103230
"2019-04-05 12:11:05.474 +0000",1554466265.473958,-1.657923,0.625648,-0.937757,-0.807509,-0.585623,0.070535,0.000000,0.000000,0.000000,-1,-0.276844,0.407380,-0.883905,0.011855,-0.015009,-0.000451
"2019-04-05 12:11:05.494 +0000",1554466265.493947,-1.652281,0.647641,-0.936921,-0.794863,-0.603307,0.064913,0.000000,0.000000,0.000000,-1,0.039986,0.128210,-1.223504,-0.045591,-0.156337,-0.043352
"2019-04-05 12:11:05.514 +0000",1554466265.513936,-1.652723,0.672591,-0.937776,-0.779587,-0.623015,0.064012,0.000000,0.000000,0.000000,-1,-0.414829,-0.130546,-1.220195,0.013458,-0.222368,0.021025
"2019-04-05 12:11:05.534 +0000",1554466265.533927,-1.650154,0.695335,-0.954208,-0.765422,-0.640643,0.060870,0.000000,0.000000,0.000000,-1,-1.080472,-0.691824,-1.101310,0.182033,-0.211362,0.042905
"2019-04-05 12:11:05.554 +0000",1554466265.553915,-1.646858,0.721700,-0.989290,-0.748513,-0.660662,0.057043,0.000000,0.000000,0.000000,-1,-1.648877,-1.117867,-1.127076,0.402474,-0.211484,0.123789
"2019-04-05 12:11:05.574 +0000",1554466265.573904,-1.633808,0.745342,-1.028811,-0.733398,-0.678223,0.046274,0.000000,0.000000,0.000000,-1,-1.513495,-0.301481,-1.014990,0.216049,0.040161,0.221243
"2019-04-05 12:11:05.594 +0000",1554466265.593862,-1.610299,0.763335,-1.070546,-0.721971,-0.691335,0.028535,0.000000,0.000000,0.000000,-1,-1.617646,-0.359851,-0.611315,0.111055,-0.037730,0.048355
"2019-04-05 12:11:05.614 +0000",1554466265.613851,-1.594845,0.772231,-1.114044,-0.716149,-0.697735,0.017226,0.000000,0.000000,0.000000,-1,-1.470486,-1.032284,-0.284740,0.076607,-0.072040,-0.072493
"2019-04-05 12:11:05.634 +0000",1554466265.633840,-1.592150,0.779930,-1.146941,-0.710801,-0.703230,0.015181,0.000000,0.000000,0.000000,-1,-0.826002,-0.921833,-0.417736,0.135163,-0.039309,-0.066694
"2019-04-05 12:11:05.654 +0000",1554466265.653829,-1.596688,0.791167,-1.160832,-0.702780,-0.711174,0.018200,0.000000,0.000000,0.000000,-1,-0.253103,-0.443757,-0.778136,0.058066,-0.169822,-0.104977
"2019-04-05 12:11:05.674 +0000",1554466265.673832,-1.600738,0.811704,-1.161094,-0.687954,-0.725461,0.020605,0.000000,0.000000,0.000000,-1,0.111325,0.051440,-1.217059,-0.117069,-0.165469,-0.011373
"2019-04-05 12:11:05.694 +0000",1554466265.693822,-1.596389,0.839121,-1.159350,-0.667898,-0.744056,0.017097,0.000000,0.000000,0.000000,-1,-0.227311,0.340290,-1.529552,-0.052378,-0.109856,0.096215
"2019-04-05 12:11:05.714 +0000",1554466265.713810,-1.582613,0.866908,-1.169754,-0.647141,-0.762332,0.007648,0.000000,0.000000,0.000000,-1,-0.531693,0.181828,-1.145629,0.182312,0.061770,0.139706
"2019-04-05 12:11:05.734 +0000",1554466265.733799,-1.570779,0.884474,-1.189994,-0.633697,-0.773582,-0.000011,0.000000,0.000000,0.000000,-1,-0.664656,-0.493558,-0.608841,0.416595,0.074714,0.068370
"2019-04-05 12:11:05.754 +0000",1554466265.753758,-1.575279,0.892641,-1.203112,-0.627352,-0.778731,0.002812,0.000000,0.000000,0.000000,-1,-0.011236,-1.413545,-0.348828,0.444063,-0.036378,0.010936
"2019-04-05 12:11:05.774 +0000",1554466265.773747,-1.618442,0.901597,-1.193303,-0.619654,-0.784319,0.029546,0.000000,0.000000,0.000000,-1,0.528268,-1.942583,-0.614430,0.286982,-0.091093,-0.046117
"2019-04-05 12:11:05.794 +0000",1554466265.793737,-1.671634,0.916738,-1.169934,-0.605321,-0.793621,0.061247,0.000000,0.000000,0.000000,-1,0.737320,-1.455798,-0.979030,0.058767,0.051281,0.059725
"2019-04-05 12:11:05.814 +0000",1554466265.813724,-1.716074,0.931068,-1.143587,-0.590688,-0.802258,0.086423,0.000000,0.000000,0.000000,-1,0.532040,-0.810784,-0.766218,-0.433939,0.314893,0.055744
"2019-04-05 12:11:05.834 +0000",1554466265.833714,-1.743649,0.945181,-1.127546,-0.576870,-0.810603,0.100719,0.000000,0.000000,0.000000,-1,0.335475,-0.696639,-0.756582,-0.051273,-0.133901,-0.189983
"2019-04-05 12:11:05.854 +0000",1554466265.853703,-1.771211,0.957849,-1.108976,-0.563766,-0.817956,0.114525,0.000000,0.000000,0.000000,-1,0.418355,-0.488842,-0.737596,0.060959,-0.223914,-0.129295
"2019-04-05 12:11:05.874 +0000",1554466265.873692,-1.788114,0.971626,-1.094321,-0.550693,-0.825804,0.121595,0.000000,0.000000,0.000000,-1,0.016965,-0.227514,-0.730176,0.148990,0.086699,0.029039
"2019-04-05 12:11:05.894 +0000",1554466265.893650,-1.798186,0.982554,-1.092904,-0.540616,-0.831917,0.125094,0.000000,0.000000,0.000000,-1,-0.054523,-0.764437,-0.314043,0.184170,0.242363,-0.028933
"2019-04-05 12:11:05.914 +0000",1554466265.913640,-1.823731,0.983513,-1.092245,-0.536471,-0.832449,0.138662,0.000000,0.000000,0.000000,-1,0.049788,-1.753297,0.203791,0.057711,-0.054941,-0.271917
"2019-04-05 12:11:05.934 +0000",1554466265.933629,-1.857041,0.976001,-1.096259,-0.537540,-0.828263,0.158213,0.000000,0.000000,0.000000,-1,-0.086521,-1.541025,0.428718,-0.225125,-0.151199,-0.302683
"2019-04-05 12:11:05.954 +0000",1554466265.953618,-1.870851,0.972006,-1.091413,-0.538460,-0.826018,0.166598,0.000000,0.000000,0.000000,-1,0.460181,0.458884,-0.215921,-0.204902,0.096755,0.118040
"2019-04-05 12:11:05.974 +0000",1554466265.973607,-1.878363,0.978231,-1.068311,-0.532282,-0.829511,0.169078,0.000000,0.000000,0.000000,-1,0.526754,0.245543,-0.519124,-0.166906,0.000714,-0.121409
"2019-04-05 12:11:05.994 +0000",1554466265.993596,-1.887280,0.988577,-1.062022,-0.522570,-0.835244,0.171137,0.000000,0.000000,0.000000,-1,-0.566596,0.316268,-0.875206,-0.366407,0.620309,-0.433283
"2019-04-05 12:11:06.014 +0000",1554466266.013584,-1.846015,1.019141,-1.083843,-0.504374,-0.851658,0.142427,0.000000,0.000000,0.000000,-1,-1.275568,1.439669,-1.507149,0.285410,-0.486874,0.570326
"2019-04-05 12:11:06.034 +0000",1554466266.033575,-1.770495,1.058043,-1.132792,-0.480829,-0.871397,0.097318,0.000000,0.000000,0.000000,-1,-2.037532,1.717049,-1.742516,0.180276,-0.426424,0.084933
"2019-04-05 12:11:06.054 +0000",1554466266.053533,-1.676923,1.100570,-1.210067,-0.450539,-0.891466,0.047994,0.000000,0.000000,0.000000,-1,-1.997240,1.298219,-1.642047,0.212395,-0.365919,-0.116781
"2019-04-05 12:11:06.074 +0000",1554466266.073520,-1.595603,1.125194,-1.279141,-0.430869,-0.902351,0.010691,0.000000,0.000000,0.000000,-1,-1.194033,0.499993,-0.689955,0.160819,-0.167992,-0.174799
"2019-04-05 12:11:06.094 +0000",1554466266.093513,-1.548739,1.140276,-1.327762,-0.417242,-0.908749,-0.009205,0.000000,0.000000,0.000000,-1,-1.209563,-0.020258,-1.000556,0.027197,-0.062458,-0.184322
"2019-04-05 12:11:06.113 +0000",1554466266.113499,-1.487882,1.167285,-1.390153,-0.391301,-0.919688,-0.032519,0.000000,0.000000,0.000000,-1,-0.822871,0.315965,-1.764753,0.141240,0.109400,0.054675
"2019-04-05 12:11:06.133 +0000",1554466266.133487,-1.464073,1.204761,-1.412673,-0.355880,-0.933754,-0.038126,0.000000,0.000000,0.000000,-1,0.176079,0.041501,-1.861286,0.101638,0.116233,-0.170676
"2019-04-05 12:11:06.153 +0000",1554466266.153477,-1.462969,1.234442,-1.411415,-0.328131,-0.943964,-0.035519,0.000000,0.000000,0.000000,-1,0.027442,0.183747,-0.998867,0.117681,-0.074941,0.017621
"2019-04-05 12:11:06.173 +0000",1554466266.173466,-1.433176,1.240065,-1.439609,-0.321665,-0.945805,-0.044549,0.000000,0.000000,0.000000,-1,-0.775959,0.113291,0.119240,0.110163,-0.349636,0.069696
"2019-04-05 12:11:06.193 +0000",1554466266.193454,-1.393594,1.238120,-1.478052,-0.321460,-0.945172,-0.057567,0.000000,0.000000,0.000000,-1,-0.220710,0.203482,-0.126658,0.164096,0.083996,0.008754
"2019-04-05 12:11:06.213 +0000",1554466266.213415,-1.404493,1.241779,-1.461317,-0.318656,-0.946360,-0.053487,0.000000,0.000000,0.000000,-1,0.621373,0.355464,-0.124483,0.092826,-0.070043,-0.052760
"2019-04-05 12:11:06.233 +0000",1554466266.233402,-1.412414,1.244739,-1.443951,-0.316301,-0.947313,-0.050520,0.000000,0.000000,0.000000,-1,-0.275303,0.539218,-0.162260,0.134279,-0.056609,0.001493
"2019-04-05 12:11:06.253 +0000",1554466266.253392,-1.367575,1.245382,-1.481420,-0.313122,-0.947518,-0.064524,0.000000,0.000000,0.000000,-1,-0.737545,0.249557,-0.161283,0.128964,0.100244,0.082331
"2019-04-05 12:11:06.273 +0000",1554466266.273380,-1.334012,1.249310,-1.520281,-0.307160,-0.948767,-0.074121,0.000000,0.000000,0.000000,-1,-0.204169,-0.351913,-0.345801,0.089128,0.066961,-0.116110
"2019-04-05 12:11:06.293 +0000",1554466266.293370,-1.342876,1.252846,-1.512633,-0.304535,-0.949878,-0.070637,0.000000,0.000000,0.000000,-1,0.386446,0.255446,-0.026047,0.110794,-0.206463,-0.026760
"2019-04-05 12:11:06.313 +0000",1554466266.313358,-1.350792,1.256660,-1.497498,-0.301547,-0.951064,-0.067433,0.000000,0.000000,0.000000,-1,0.048359,0.317246,-0.412828,0.141726,0.097914,-0.016094
"2019-04-05 12:11:06.333 +0000",1554466266.333348,-1.301811,1.268446,-1.541377,-0.287057,-0.954639,-0.079132,0.000000,0.000000,0.000000,-1,-1.044957,0.424276,-0.628639,0.077081,0.780918,-0.024643
"2019-04-05 12:11:06.353 +0000",1554466266.353337,-1.274549,1.271240,-1.565535,-0.282242,-0.955467,-0.086148,0.000000,0.000000,0.000000,-1,0.429145,0.063580,-0.028894,0.102219,-0.509941,-0.053180
"2019-04-05 12:11:06.373 +0000",1554466266.373295,-1.305029,1.275363,-1.532696,-0.280932,-0.956676,-0.076471,0.000000,0.000000,0.000000,-1,0.619014,0.129543,-0.070394,0.101581,-0.184468,-0.080816
"2019-04-05 12:11:06.393 +0000",1554466266.393283,-1.335325,1.279600,-1.496889,-0.279176,-0.957901,-0.066980,0.000000,0.000000,0.000000,-1,0.362595,0.193627,-0.057623,0.091660,-0.068374,-0.059896
"2019-04-05 12:11:06.413 +0000",1554466266.413273,-1.330346,1.280571,-1.497975,-0.277936,-0.958179,-0.068148,0.000000,0.000000,0.000000,-1,-0.215996,0.240796,-0.098676,0.126309,-0.014797,-0.009367
"2019-04-05 12:11:06.433 +0000",1554466266.433261,-1.327099,1.283562,-1.497866,-0.274931,-0.959031,-0.068358,0.000000,0.000000,0.000000,-1,0.317336,0.140300,-0.180525,0.071897,-0.044936,-0.079255
"2019-04-05 12:11:06.453 +0000",1554466266.453252,-1.341559,1.289097,-1.478951,-0.270716,-0.960585,-0.063169,0.000000,0.000000,0.000000,-1,0.311393,0.226624,-0.199720,0.033274,-0.050295,-0.057498
"2019-04-05 12:11:06.473 +0000",1554466266.473240,-1.326907,1.306744,-1.485327,-0.253270,-0.965340,-0.063025,0.000000,0.000000,0.000000,-1,0.231027,0.473915,-0.229527,0.024831,-0.007835,-0.019586
"2019-04-05 12:11:06.493 +0000",1554466266.493229,-1.328599,1.312767,-1.473558,-0.247727,-0.966895,-0.061200,0.000000,0.000000,0.000000,-1,0.177759,0.414236,-0.281948,0.089219,0.031348,-0.030536
"2019-04-05 12:11:06.513 +0000",1554466266.513217,-1.144731,1.328287,-1.644959,-0.218671,-0.970738,-0.099248,0.000000,0.000000,0.000000,-1,0.172930,0.401415,-0.351622,0.095853,0.017385,-0.020442
"2019-04-05 12:11:06.533 +0000",1554466266.533177,-1.076115,1.322547,-1.704945,-0.216252,-0.969344,-0.116650,0.000000,0.000000,0.000000,-1,0.273202,0.256370,-0.445408,0.103398,-0.067796,0.015255
"2019-04-05 12:11:06.553 +0000",1554466266.553165,-1.117730,1.330292,-1.660681,-0.214162,-0.971218,-0.104263,0.000000,0.000000,0.000000,-1,-0.024318,0.222318,-0.645454,0.156590,0.071087,0.034988
"2019-04-05 12:11:06.573 +0000",1554466266.573155,-1.087650,1.350856,-1.689322,-0.193199,-0.975910,-0.101355,0.000000,0.000000,0.000000,-1,-0.221703,0.063613,-0.650290,0.144051,0.209889,0.017875
"2019-04-05 12:11:06.593 +0000",1554466266.593144,-1.029622,1.365795,-1.746527,-0.174480,-0.979061,-0.104867,0.000000,0.000000,0.000000,-1,0.074819,0.093263,-0.736018,0.124523,0.131572,0.006555
"2019-04-05 12:11:06.613 +0000",1554466266.613133,-0.999343,1.379886,-1.775145,-0.159604,-0.981832,-0.102629,0.000000,0.000000,0.000000,-1,0.111977,0.142275,-0.726709,0.094968,0.218725,0.033308
"2019-04-05 12:11:06.633 +0000",1554466266.633121,-0.948470,1.397745,-1.823572,-0.139908,-0.985064,-0.100374,0.000000,0.000000,0.000000,-1,0.151166,0.099309,-1.373589,0.137268,0.252901,0.073320
"2019-04-05 12:11:06.653 +0000",1554466266.653111,-0.842673,1.422105,-1.928955,-0.110579,-0.988966,-0.098586,0.000000,0.000000,0.000000,-1,0.141834,0.117357,-1.526757,0.047468,-0.058489,0.000349
"2019-04-05 12:11:06.673 +0000",1554466266.673100,-0.695545,1.446424,-2.074030,-0.079493,-0.992276,-0.095235,0.000000,0.000000,0.000000,-1,0.199871,0.168546,-1.402566,0.126338,-0.085987,0.019109
"2019-04-05 12:11:06.693 +0000",1554466266.693066,-0.551606,1.463337,-2.214186,-0.056206,-0.994232,-0.091345,0.000000,0.000000,0.000000,-1,0.218296,0.327588,-0.894645,0.021706,-0.142884,0.015829
"2019-04-05 12:11:06.713 +0000",1554466266.713054,-0.439041,1.474977,-2.319553,-0.040668,-0.995413,-0.086599,0.000000,0.000000,0.000000,-1,0.236157,0.376772,-0.551767,0.033634,-0.098475,0.029608
"2019-04-05 12:11:06.733 +0000",1554466266.733043,-0.341192,1.482444,-2.412639,-0.029525,-0.996099,-0.083151,0.000000,0.000000,0.000000,-1,0.087290,0.119977,-0.579495,0.079467,0.133718,-0.033075
"2019-04-05 12:11:06.753 +0000",1554466266.753032,-0.186277,1.487870,-2.566096,-0.015341,-0.996564,-0.081399,0.000000,0.000000,0.000000,-1,0.098690,0.045304,-0.706800,0.074209,0.079907,0.010232
"2019-04-05 12:11:06.773 +0000",1554466266.773021,-0.024285,1.492409,-2.727244,-0.001901,-0.996929,-0.078283,0.000000,0.000000,0.000000,-1,0.215657,0.141199,-0.639282,0.043131,-0.036320,0.001562
"2019-04-05 12:11:06.793 +0000",1554466266.793012,0.173134,1.497142,-2.919833,0.012677,-0.997289,-0.072488,0.000000,0.000000,0.000000,-1,0.295897,0.362818,-0.692019,0.099521,-0.155986,-0.006583
"2019-04-05 12:11:06.813 +0000",1554466266.813000,0.390614,1.498810,-3.130482,0.027386,-0.997410,-0.066507,0.000000,0.000000,0.000000,-1,0.242117,0.265843,-0.722048,0.058949,-0.091121,-0.010443
"2019-04-05 12:11:06.833 +0000",1554466266.832989,0.599980,1.489318,2.948786,0.045954,-0.996682,-0.067174,0.000000,0.000000,0.000000,-1,0.170200,0.361788,-0.749869,0.036214,0.023156,0.010198
"2019-04-05 12:11:06.853 +0000",1554466266.852948,0.755265,1.481893,2.800776,0.060861,-0.996051,-0.064644,0.000000,0.000000,0.000000,-1,0.100768,0.499336,-0.698367,0.006354,-0.029355,0.046287
"2019-04-05 12:11:06.873 +0000",1554466266.872936,0.912241,1.471314,2.656293,0.078549,-0.995056,-0.060781,0.000000,0.000000,0.000000,-1,0.157217,0.902115,-0.829284,0.017154,-0.072205,0.035741
"2019-04-05 12:11:06.893 +0000",1554466266.892925,1.040403,1.456051,2.547975,0.098763,-0.993424,-0.057919,0.000000,0.000000,0.000000,-1,0.140679,1.006423,-1.134376,0.276359,0.222367,0.090146
"2019-04-05 12:11:06.913 +0000",1554466266.912914,1.130436,1.439623,2.472855,0.118319,-0.991409,-0.055754,0.000000,0.000000,0.000000,-1,-0.122016,0.584707,-0.709581,0.089368,-0.215485,0.058867
"2019-04-05 12:11:06.933 +0000",1554466266.932904,1.118329,1.429305,2.497422,0.126829,-0.990007,-0.061652,0.000000,0.000000,0.000000,-1,-0.571316,0.632105,-0.144774,-0.144956,-0.252425,-0.188623
"2019-04-05 12:11:06.953 +0000",1554466266.952893,1.045767,1.422592,2.581698,0.127775,-0.989038,-0.074015,0.000000,0.000000,0.000000,-1,-0.785828,0.428760,0.087590,0.110003,-0.201667,-0.124777
"2019-04-05 12:11:06.973 +0000",1554466266.972881,0.954859,1.416849,2.679871,0.125161,-0.988174,-0.088588,0.000000,0.000000,0.000000,-1,-0.741327,0.163428,0.239808,0.228233,-0.145387,-0.069264
"2019-04-05 12:11:06.993 +0000",1554466266.992871,0.861816,1.414177,2.773916,0.118392,-0.987760,-0.101552,0.000000,0.000000,0.000000,-1,-0.576475,-0.146700,0.449692,0.136750,-0.134402,-0.086849
"2019-04-05 12:11:07.013 +0000",1554466267.012829,0.768274,1.414775,2.866332,0.107979,-0.987853,-0.111742,0.000000,0.000000,0.000000,-1,-0.433297,-0.051874,0.538000,0.021019,-0.193238,-0.045500
"2019-04-05 12:11:07.033 +0000",1554466267.032819,0.691241,1.415797,2.945204,0.098416,-0.988012,-0.118943,0.000000,0.000000,0.000000,-1,-0.304198,0.080175,0.447411,0.039615,-0.193217,0.000275
"2019-04-05 12:11:07.053 +0000",1554466267.052807,0.633311,1.416093,3.006203,0.091191,-0.988057,-0.124205,0.000000,0.000000,0.000000,-1,-0.270892,0.150428,0.297233,0.046641,-0.153437,-0.013780
"2019-04-05 12:11:07.073 +0000",1554466267.072797,0.590778,1.414288,3.053033,0.086821,-0.987778,-0.129452,0.000000,0.000000,0.000000,-1,-0.304391,0.191997,0.268905,0.045701,-0.076416,-0.054523
"2019-04-05 12:11:07.093 +0000",1554466267.092785,0.514813,1.413023,3.130718,0.077361,-0.987580,-0.136754,0.000000,0.000000,0.000000,-1,-0.477956,0.264574,0.299193,0.074205,-0.214554,-0.114665
"2019-04-05 12:11:07.113 +0000",1554466267.112774,0.490104,1.403565,-3.116444,0.078352,-0.986049,-0.146859,0.000000,0.000000,0.000000,-1,-0.616154,0.705692,-0.096180,-0.055464,0.396282,0.014397
"2019-04-05 12:11:07.133 +0000",1554466267.132762,0.471635,1.392622,-3.083805,0.080524,-0.984169,-0.157883,0.000000,0.000000,0.000000,-1,-0.606221,0.661030,0.124368,-0.047077,0.039024,0.011552
"2019-04-05 12:11:07.153 +0000",1554466267.152751,0.428102,1.384601,-3.029919,0.076853,-0.982716,-0.168416,0.000000,0.000000,0.000000,-1,-0.563001,0.308400,0.473310,-0.065454,0.009403,0.037663
"2019-04-05 12:11:07.173 +0000",1554466267.172709,0.370751,1.375967,-2.961807,0.070144,-0.981081,-0.180445,0.000000,0.000000,0.000000,-1,-0.683908,0.453417,0.488610,0.120118,0.273012,0.045069
"2019-04-05 12:11:07.193 +0000",1554466267.192699,0.298875,1.367051,-2.880946,0.059578,-0.979316,-0.193369,0.000000,0.000000,0.000000,-1,-0.680357,0.382182,0.849192,0.104317,0.166480,-0.005103
"2019-04-05 12:11:07.213 +0000",1554466267.212687,0.190131,1.361314,-2.768540,0.039301,-0.978139,-0.204206,0.000000,0.000000,0.000000,-1,-0.299928,-0.346664,1.572500,-0.062692,0.002766,-0.036684
"2019-04-05 12:11:07.233 +0000",1554466267.232677,0.029522,1.355460,-2.605841,0.006307,-0.976905,-0.213584,0.000000,0.000000,0.000000,-1,-0.674078,0.357920,1.372588,0.210764,0.216773,0.063208
"2019-04-05 12:11:07.253 +0000",1554466267.252666,-0.036900,1.339846,-2.527117,-0.008445,-0.973449,-0.228746,0.000000,0.000000,0.000000,-1,-0.936266,0.660321,0.512438,0.016394,1.001297,0.123369
"2019-04-05 12:11:07.273 +0000",1554466267.272656,-0.055332,1.319419,-2.495746,-0.013756,-0.968571,-0.248358,0.000000,0.000000,0.000000,-1,-1.002173,0.450386,0.498025,0.121605,0.887959,0.047598
"2019-04-05 12:11:07.293 +0000",1554466267.292644,-0.087720,1.298582,-2.455573,-0.023555,-0.963178,-0.267831,0.000000,0.000000,0.000000,-1,-1.064062,0.305490,0.542674,0.141169,0.701505,-0.055579
"2019-04-05 12:11:07.313 +0000",1554466267.312634,-0.067866,1.275603,-2.462652,-0.019729,-0.956746,-0.290256,0.000000,0.000000,0.000000,-1,-1.026007,0.673926,-0.095914,0.106399,1.048848,0.000766
"2019-04-05 12:11:07.333 +0000",1554466267.332592,-0.056757,1.256613,-2.463007,-0.017531,-0.951049,-0.308542,0.000000,0.000000,0.000000,-1,-0.859185,0.281802,0.261530,0.022017,0.205840,-0.350882
"2019-04-05 12:11:07.353 +0000",1554466267.352581,-0.079524,1.242097,-2.440685,-0.025644,-0.946463,-0.321792,0.000000,0.000000,0.000000,-1,-0.471856,-0.370526,0.539902,-0.103613,-0.038767,-0.682114
"2019-04-05 12:11:07.373 +0000",1554466267.372570,-0.120388,1.235797,-2.405084,-0.039484,-0.944411,-0.326389,0.000000,0.000000,0.000000,-1,-0.034569,-0.104245,0.650815,-0.347387,-0.258897,-0.736432
"2019-04-05 12:11:07.393 +0000",1554466267.392559,-0.154725,1.236956,-2.360218,-0.050497,-0.944791,-0.323759,0.000000,0.000000,0.000000,-1,0.436505,0.782369,0.880209,-0.675119,-0.505465,-0.717180
"2019-04-05 12:11:07.413 +0000",1554466267.412548,-0.194283,1.247572,-2.297032,-0.061322,-0.948216,-0.311650,0.000000,0.000000,0.000000,-1,0.938198,1.178546,0.788096,-0.722370,-0.538386,-0.802684
"2019-04-05 12:11:07.433 +0000",1554466267.432537,-0.214783,1.266592,-2.252832,-0.063841,-0.954086,-0.292652,0.000000,0.000000,0.000000,-1,1.234956,0.912734,0.216976,-0.562684,-0.246705,-0.936078
"2019-04-05 12:11:07.453 +0000",1554466267.452526,-0.221884,1.292455,-2.225504,-0.060466,-0.961513,-0.268025,0.000000,0.000000,0.000000,-1,1.468553,1.028700,0.036143,-0.340123,-0.127156,-0.863033
"2019-04-05 12:11:07.473 +0000",1554466267.472515,-0.225781,1.319591,-2.196523,-0.055647,-0.968614,-0.242263,0.000000,0.000000,0.000000,-1,1.251030,1.395488,0.126182,-0.264589,-0.091247,-0.496461
"2019-04-05 12:11:07.492 +0000",1554466267.492473,-0.232673,1.338163,-2.162020,-0.053158,-0.973063,-0.224328,0.000000,0.000000,0.000000,-1,0.924241,1.041857,0.224647,-0.082981,-0.356024,-0.119392
"2019-04-05 12:11:07.512 +0000",1554466267.512461,-0.254822,1.358374,-2.129866,-0.053144,-0.977523,-0.204021,0.000000,0.000000,0.000000,-1,1.244322,-0.116969,-0.068521,0.191252,-0.220567,-0.026601
"2019-04-05 12:11:07.532 +0000",1554466267.532449,-0.268545,1.381290,-2.123423,-0.049981,-0.982097,-0.181623,0.000000,0.000000,0.000000,-1,0.817722,-0.494191,-0.369966,0.569146,0.296032,-0.074832
"2019-04-05 12:11:07.552 +0000",1554466267.552439,-0.227434,1.392315,-2.175154,-0.040030,-0.984115,-0.172963,0.000000,0.000000,0.000000,-1,0.170406,-0.560159,-0.818057,0.665320,0.537017,-0.106593
"2019-04-05 12:11:07.572 +0000",1554466267.572428,-0.154167,1.397659,-2.269523,-0.026454,-0.985049,-0.170231,0.000000,0.000000,0.000000,-1,0.149096,-1.615271,-0.786287,0.362651,0.226901,-0.017559
"2019-04-05 12:11:07.592 +0000",1554466267.592417,-0.137122,1.405095,-2.329829,-0.022547,-0.986303,-0.163396,0.000000,0.000000,0.000000,-1,0.576160,-2.494550,-0.333229,-0.106863,-0.095759,-0.030726
"2019-04-05 12:11:07.612 +0000",1554466267.612406,-0.161817,1.421511,-2.355181,-0.023962,-0.988878,-0.146788,0.000000,0.000000,0.000000,-1,0.874504,-2.257062,-0.402456,0.021887,0.090928,0.278746
"2019-04-05 12:11:07.632 +0000",1554466267.632398,-0.140274,1.437642,-2.417471,-0.018562,-0.991148,-0.131456,0.000000,0.000000,0.000000,-1,0.644424,-1.762560,-0.698729,0.090324,0.259092,0.151934
"2019-04-05 12:11:07.652 +0000",1554466267.652355,-0.050346,1.452137,-2.535665,-0.005958,-0.992968,-0.118232,0.000000,0.000000,0.000000,-1,0.768353,-1.064593,-0.836440,-0.149362,0.127871,0.323738
"2019-04-05 12:11:07.672 +0000",1554466267.672375,0.084844,1.470958,-2.688954,0.008447,-0.995020,-0.099315,0.000000,0.000000,0.000000,-1,1.156131,-0.590493,-0.798752,-0.174279,0.052790,0.323330
"2019-04-05 12:11:07.692 +0000",1554466267.692375,0.343750,1.493475,-2.958328,0.026033,-0.997012,-0.072726,0.000000,0.000000,0.000000,-1,1.596030,-0.526909,-1.088457,0.123655,0.160083,0.090839
"2019-04-05 12:11:07.712 +0000",1554466267.712364,1.064868,1.512530,2.588106,0.050941,-0.998303,-0.028223,0.000000,0.000000,0.000000,-1,2.923775,-0.861318,-1.377355,0.439248,0.243252,0.104181
"2019-04-05 12:11:07.732 +0000",1554466267.732353,1.979534,1.492140,1.644281,0.072100,-0.996908,0.031229,0.000000,0.000000,0.000000,-1,3.163783,-1.802312,-0.912705,0.327954,-0.005732,-0.399210
"2019-04-05 12:11:07.752 +0000",1554466267.752343,2.334914,1.440079,1.246698,0.094108,-0.991469,0.090186,0.000000,0.000000,0.000000,-1,3.149695,-2.192384,-0.908378,-0.086738,-0.396166,-0.556967
"2019-04-05 12:11:07.772 +0000",1554466267.772300,2.506180,1.384339,1.031060,0.110024,-0.982667,0.149197,0.000000,0.000000,0.000000,-1,3.279429,-1.880882,-0.176674,-0.822655,-0.592604,-0.548092
"2019-04-05 12:11:07.792 +0000",1554466267.792289,2.628049,1.328105,0.873068,0.118059,-0.970695,0.209317,0.000000,0.000000,0.000000,-1,3.243585,-1.326655,-0.189037,-0.894594,-0.903802,-0.668317
"2019-04-05 12:11:07.812 +0000",1554466267.812278,2.681859,1.273778,0.792974,0.129861,-0.956214,0.262282,0.000000,0.000000,0.000000,-1,2.417490,-1.138746,-0.374333,-1.018883,-0.952615,-0.787871
"2019-04-05 12:11:07.832 +0000",1554466267.832267,2.691222,1.234430,0.756355,0.143675,-0.943960,0.297148,0.000000,0.000000,0.000000,-1,1.514312,-0.868725,-0.547969,-1.057875,-0.969965,-1.032897
"2019-04-05 12:11:07.852 +0000",1554466267.852256,2.660841,1.208909,0.785350,0.163724,-0.935230,0.313908,0.000000,0.000000,0.000000,-1,0.594600,0.322868,-1.440310,-0.384061,-0.678921,-1.112752
"2019-04-05 12:11:07.872 +0000",1554466267.872244,2.640541,1.184467,0.828512,0.180991,-0.926299,0.330475,0.000000,0.000000,0.000000,-1,0.735119,1.397386,-0.892042,0.612955,-0.101808,0.581955
"2019-04-05 12:11:07.892 +0000",1554466267.892233,2.650850,1.181274,0.836191,0.178968,-0.925090,0.334931,0.000000,0.000000,0.000000,-1,-0.719196,0.224265,0.441517,0.112414,-0.435872,-0.033219
"2019-04-05 12:11:07.912 +0000",1554466267.912223,2.665650,1.207638,0.823066,0.162757,-0.934779,0.315749,0.000000,0.000000,0.000000,-1,-1.259854,0.279276,1.223067,-0.730094,0.217769,-0.286452
"2019-04-05 12:11:07.932 +0000",1554466267.932181,2.741471,1.244750,0.761715,0.124766,-0.947316,0.295000,0.000000,0.000000,0.000000,-1,-1.239118,1.421211,2.207094,-0.725246,0.988225,-0.098406
"2019-04-05 12:11:07.952 +0000",1554466267.952169,2.890005,1.296109,0.646925,0.067524,-0.962510,0.262707,0.000000,0.000000,0.000000,-1,-2.056750,3.052353,2.326625,-0.503453,1.024339,-0.267833
"2019-04-05 12:11:07.972 +0000",1554466267.972158,3.093365,1.342457,0.514334,0.010913,-0.974044,0.226097,0.000000,0.000000,0.000000,-1,-2.250939,3.778984,1.626902,0.425428,0.706069,0.961128
"2019-04-05 12:11:07.992 +0000",1554466267.992148,-2.987111,1.397109,0.369879,-0.026591,-0.984954,0.170757,0.000000,0.000000,0.000000,-1,-3.208600,2.330684,0.867760,0.231196,0.357269,0.050754
"2019-04-05 12:11:08.012 +0000",1554466268.012137,-2.696900,1.465363,0.106274,-0.045272,-0.994447,0.095004,0.000000,0.000000,0.000000,-1,-4.279081,0.953098,0.755337,-0.049348,-0.457350,-0.418078
"2019-04-05 12:11:08.032 +0000",1554466268.032127,-1.677843,1.508253,-0.886767,-0.062145,-0.998045,0.006678,0.000000,0.000000,0.000000,-1,-4.181390,2.018862,0.791277,-0.435688,-1.560763,-0.210200
"2019-04-05 12:11:08.052 +0000",1554466268.052115,-0.755949,1.460645,-1.765293,-0.075408,-0.993940,-0.079986,0.000000,0.000000,0.000000,-1,-4.199860,2.532573,0.765223,-0.233338,-1.870990,0.126342
"2019-04-05 12:11:08.072 +0000",1554466268.072104,-0.485375,1.389143,-1.975182,-0.084283,-0.983546,-0.159790,0.000000,0.000000,0.000000,-1,-3.333365,3.625719,0.927024,-0.249289,-1.880742,0.346390
"2019-04-05 12:11:08.092 +0000",1554466268.092062,-0.383322,1.327991,-2.014164,-0.089921,-0.970667,-0.222978,0.000000,0.000000,0.000000,-1,-2.568003,2.604219,0.767127,-0.050537,-1.334890,-0.013731
"2019-04-05 12:11:08.112 +0000",1554466268.112051,-0.309128,1.287229,-2.038319,-0.085118,-0.960064,-0.266521,0.000000,0.000000,0.000000,-1,-1.323592,2.982648,0.020144,0.032521,-0.733296,-0.239186
"2019-04-05 12:11:08.132 +0000",1554466268.132040,-0.230104,1.277108,-2.062307,-0.066025,-0.957183,-0.281854,0.000000,0.000000,0.000000,-1,0.096291,2.358286,-0.288056,0.085221,-0.288652,0.169260
"2019-04-05 12:11:08.152 +0000",1554466268.152028,-0.185759,1.292076,-2.057647,-0.050814,-0.961408,-0.270392,0.000000,0.000000,0.000000,-1,1.385636,2.407952,0.180854,-0.247145,0.164427,0.122702
"2019-04-05 12:11:08.172 +0000",1554466268.172018,-0.206735,1.326160,-2.000876,-0.049716,-0.970225,-0.237047,0.000000,0.000000,0.000000,-1,1.858015,0.844372,0.556284,0.037067,1.264644,0.114580
"2019-04-05 12:11:08.192 +0000",1554466268.192006,-0.248368,1.336753,-1.943220,-0.057009,-0.972737,-0.224797,0.000000,0.000000,0.000000,-1,-0.575177,0.387261,0.446499,0.492373,2.018605,-0.032772
"2019-04-05 12:11:08.212 +0000",1554466268.211995,-0.244715,1.314069,-1.952306,-0.061519,-0.967226,-0.246352,0.000000,0.000000,0.000000,-1,-1.195175,-1.166573,-0.001942,0.252330,1.610048,0.177077
"2019-04-05 12:11:08.232 +0000",1554466268.231985,-0.268551,1.298594,-1.969459,-0.071336,-0.963181,-0.259217,0.000000,0.000000,0.000000,-1,-0.468869,-2.558915,-0.091557,0.294084,1.354462,0.392289
"2019-04-05 12:11:08.252 +0000",1554466268.251943,-0.296625,1.287258,-1.991979,-0.081771,-0.960072,-0.267537,0.000000,0.000000,0.000000,-1,-0.745210,-2.265681,-0.091520,0.231383,0.741413,0.076543
"2019-04-05 12:11:08.272 +0000",1554466268.271932,-0.320735,1.272454,-2.008608,-0.092668,-0.955825,-0.278947,0.000000,0.000000,0.000000,-1,-0.642081,-1.857453,0.072699,0.270966,0.190765,-0.118545
"2019-04-05 12:11:08.292 +0000",1554466268.291923,-0.375693,1.263346,-1.996278,-0.111040,-0.953108,-0.281522,0.000000,0.000000,0.000000,-1,-0.072581,-2.602477,0.600219,0.131792,0.135314,-0.095995
"2019-04-05 12:11:08.312 +0000",1554466268.311912,-0.460589,1.259153,-1.958976,-0.136287,-0.951831,-0.274671,0.000000,0.000000,0.000000,-1,0.020505,-1.618839,0.508558,-0.066701,0.173495,0.344632
"2019-04-05 12:11:08.332 +0000",1554466268.331901,-0.462423,1.253002,-1.958858,-0.139400,-0.949927,-0.279655,0.000000,0.000000,0.000000,-1,-0.002913,0.966328,-0.449887,0.334209,0.256201,2.029899
"2019-04-05 12:11:08.352 +0000",1554466268.351890,-0.436117,1.291093,-1.983790,-0.116619,-0.961137,-0.250230,0.000000,0.000000,0.000000,-1,2.735764,-0.669374,-1.367415,0.831829,-0.232405,0.453813
"2019-04-05 12:11:08.372 +0000",1554466268.371878,-0.479528,1.345665,-1.959899,-0.102991,-0.974765,-0.198056,0.000000,0.000000,0.000000,-1,2.328007,-1.660042,-0.718334,0.093073,-0.729489,-0.315005
"2019-04-05 12:11:08.392 +0000",1554466268.391866,-0.569880,1.391990,-1.911531,-0.095958,-0.984057,-0.149747,0.000000,0.000000,0.000000,-1,2.714572,-2.154775,-0.733970,0.502147,-0.066740,-0.430468
"2019-04-05 12:11:08.412 +0000",1554466268.411824,-0.885688,1.456441,-1.648679,-0.088357,-0.993469,-0.072201,0.000000,0.000000,0.000000,-1,4.239018,-3.033802,-0.808614,0.544458,0.215576,0.011364
"2019-04-05 12:11:08.432 +0000",1554466268.431814,-1.711411,1.482233,-0.897867,-0.087574,-0.996081,0.012396,0.000000,0.000000,0.000000,-1,3.797416,-4.449164,0.952050,-0.583859,-0.519331,-0.896872
"2019-04-05 12:11:08.452 +0000",1554466268.451803,-2.278650,1.418613,-0.383704,-0.115177,-0.988442,0.098569,0.000000,0.000000,0.000000,-1,4.190760,-1.140735,1.770324,-1.740948,-0.857505,0.187152
"2019-04-05 12:11:08.472 +0000",1554466268.471791,-2.451035,1.344886,-0.213017,-0.142677,-0.974591,0.172675,0.000000,0.000000,0.000000,-1,3.138502,0.679685,0.753847,-0.968911,-0.695698,-0.257422
"2019-04-05 12:11:08.492 +0000",1554466268.491780,-2.584737,1.297850,-0.063296,-0.142473,-0.962981,0.228844,0.000000,0.000000,0.000000,-1,2.834229,0.395384,-1.176280,-0.976606,-0.670900,-0.483361
"2019-04-05 12:11:08.512 +0000",1554466268.511770,-2.757513,1.276710,0.124470,-0.108614,-0.957068,0.268747,0.000000,0.000000,0.000000,-1,1.613043,0.473285,-2.249486,-0.168729,-0.635614,-0.830713
"2019-04-05 12:11:08.532 +0000",1554466268.531759,-2.900248,1.267770,0.283449,-0.071323,-0.954438,0.289761,0.000000,0.000000,0.000000,-1,0.519302,0.285601,-1.413872,0.837283,-0.297546,0.277530
"2019-04-05 12:11:08.552 +0000",1554466268.551717,-2.895105,1.275535,0.279365,-0.071001,-0.956726,0.282195,0.000000,0.000000,0.000000,-1,-1.199906,-0.052307,1.070415,-0.145735,-0.523712,-0.226500
"2019-04-05 12:11:08.572 +0000",1554466268.571706,-2.764939,1.300978,0.149000,-0.098042,-0.963819,0.247871,0.000000,0.000000,0.000000,-1,-2.111604,0.636899,1.560999,-0.084972,0.546461,-0.310982
"2019-04-05 12:11:08.592 +0000",1554466268.591694,-2.537840,1.313891,-0.049939,-0.144255,-0.967181,0.209168,0.000000,0.000000,0.000000,-1,-1.471643,2.987022,2.316388,-0.545091,1.268847,-0.014787
"2019-04-05 12:11:08.612 +0000",1554466268.611684,-2.296119,1.302010,-0.223121,-0.198716,-0.964094,0.176167,0.000000,0.000000,0.000000,-1,-1.153181,3.815657,1.508103,0.147370,0.804563,0.573146
"2019-04-05 12:11:08.632 +0000",1554466268.631673,-2.089671,1.311889,-0.374370,-0.222326,-0.966670,0.126963,0.000000,0.000000,0.000000,-1,-2.365970,2.288320,0.137533,0.693289,0.782405,-0.166942
"2019-04-05 12:11:08.652 +0000",1554466268.651661,-1.893474,1.332692,-0.555551,-0.223688,-0.971787,0.074793,0.000000,0.000000,0.000000,-1,-2.861820,-0.427195,-0.105574,0.766947,0.490418,-0.187022
"2019-04-05 12:11:08.672 +0000",1554466268.671650,-1.615624,1.339666,-0.846222,-0.228847,-0.973408,0.010266,0.000000,0.000000,0.000000,-1,-3.450512,0.492298,0.875921,-0.093571,-0.016597,0.758350
"2019-04-05 12:11:08.692 +0000",1554466268.691633,-1.314046,1.307761,-1.128003,-0.251490,-0.965605,-0.066027,0.000000,0.000000,0.000000,-1,-3.801359,1.873704,0.786928,-1.189367,-1.541780,0.506884
"2019-04-05 12:11:08.712 +0000",1554466268.711592,-1.029082,1.281980,-1.375014,-0.244040,-0.958582,-0.146854,0.000000,0.000000,0.000000,-1,-3.015934,2.605847,-0.706888,-0.076929,-2.496023,-0.035244
"2019-04-05 12:11:08.732 +0000",1554466268.731580,-0.829078,1.263391,-1.545653,-0.223100,-0.953122,-0.204414,0.000000,0.000000,0.000000,-1,-2.304559,1.225327,-0.608383,-0.204085,-1.962726,0.088722
"2019-04-05 12:11:08.752 +0000",1554466268.751570,-0.706827,1.239826,-1.646895,-0.211037,-0.945728,-0.247109,0.000000,0.000000,0.000000,-1,-1.436615,1.598233,0.045376,0.009499,-1.454846,-0.332405
"2019-04-05 12:11:08.772 +0000",1554466268.771559,-0.671261,1.218635,-1.666468,-0.214536,-0.938630,-0.270091,0.000000,0.000000,0.000000,-1,-0.741489,0.184917,0.625128,-0.160846,-0.558532,-0.229467
"2019-04-05 12:11:08.792 +0000",1554466268.791549,-0.673576,1.202556,-1.650408,-0.224547,-0.932962,-0.281355,0.000000,0.000000,0.000000,-1,-0.045100,0.836892,0.752040,0.157866,0.506891,0.197126
"2019-04-05 12:11:08.812 +0000",1554466268.811537,-0.706570,1.195585,-1.608932,-0.237923,-0.930430,-0.278734,0.000000,0.000000,0.000000,-1,0.526224,0.525403,0.780667,-0.217216,0.953211,0.386339
"2019-04-05 12:11:08.832 +0000",1554466268.831521,-0.720241,1.195746,-1.577329,-0.241612,-0.930489,-0.275343,0.000000,0.000000,0.000000,-1,0.357774,0.532556,-0.028134,0.369267,1.548623,0.487119
"2019-04-05 12:11:08.852 +0000",1554466268.851504,-0.718570,1.205100,-1.589434,-0.235411,-0.933875,-0.269182,0.000000,0.000000,0.000000,-1,-0.062227,-1.458528,-0.830333,1.131102,2.057029,0.553530
"2019-04-05 12:11:08.871 +0000",1554466268.871457,-0.718231,1.213718,-1.627964,-0.230015,-0.936922,-0.263192,0.000000,0.000000,0.000000,-1,-0.035770,-2.031847,-0.639446,0.765415,1.515124,0.532693
"2019-04-05 12:11:08.891 +0000",1554466268.891439,-0.739195,1.216225,-1.653378,-0.233898,-0.937795,-0.256576,0.000000,0.000000,0.000000,-1,-0.458366,-2.430037,-0.222750,0.381222,1.197942,0.170135
"2019-04-05 12:11:08.911 +0000",1554466268.911422,-0.751566,1.210664,-1.689140,-0.240612,-0.935850,-0.257469,0.000000,0.000000,0.000000,-1,-0.724995,-2.074020,-0.415057,0.200542,0.193236,-0.194603
"2019-04-05 12:11:08.931 +0000",1554466268.931405,-0.736047,1.201059,-1.733414,-0.242611,-0.932422,-0.267822,0.000000,0.000000,0.000000,-1,-0.896144,-0.600779,0.045083,-0.074528,-0.282650,0.275939
"2019-04-05 12:11:08.951 +0000",1554466268.951388,-0.756956,1.192746,-1.727902,-0.253472,-0.929386,-0.268317,0.000000,0.000000,0.000000,-1,0.709557,-1.104435,0.487381,-0.477271,0.131077,0.151724
"2019-04-05 12:11:08.971 +0000",1554466268.971372,-0.810207,1.192046,-1.687361,-0.267865,-0.929127,-0.254894,0.000000,0.000000,0.000000,-1,-0.026702,0.743877,0.174261,0.035779,0.537144,1.082423
"2019-04-05 12:11:08.991 +0000",1554466268.991354,-0.770688,1.232147,-1.693015,-0.231429,-0.943204,-0.238340,0.000000,0.000000,0.000000,-1,2.316798,0.932097,-2.638673,1.654708,-0.501986,1.376326
"2019-04-05 12:11:09.011 +0000",1554466269.011337,-0.806546,1.292424,-1.692020,-0.198372,-0.961504,-0.190154,0.000000,0.000000,0.000000,-1,2.287209,-3.242954,-1.151358,0.542641,-0.461149,-1.482255
"2019-04-05 12:11:09.031 +0000",1554466269.031291,-0.962365,1.327092,-1.585798,-0.197996,-0.970451,-0.137922,0.000000,0.000000,0.000000,-1,2.562955,-1.397716,-0.155051,-0.783922,-1.142052,-0.397921
"2019-04-05 12:11:09.051 +0000",1554466269.051274,-1.312593,1.353737,-1.257181,-0.208219,-0.976535,-0.054991,0.000000,0.000000,0.000000,-1,5.028676,-1.687486,0.487849,-0.440050,-0.175549,0.089765
"2019-04-05 12:11:09.071 +0000",1554466269.071256,-1.802679,1.341574,-0.778610,-0.221138,-0.973843,0.052217,0.000000,0.000000,0.000000,-1,4.892275,-0.312192,1.203111,-0.483528,-0.377887,-0.405153
"2019-04-05 12:11:09.091 +0000",1554466269.091239,-2.103860,1.278685,-0.457904,-0.248019,-0.957638,0.146341,0.000000,0.000000,0.000000,-1,4.954068,0.715121,1.032866,-0.975233,-0.483310,-0.122370
"2019-04-05 12:11:09.111 +0000",1554466269.111223,-2.307009,1.227228,-0.233794,-0.249611,-0.941559,0.226190,0.000000,0.000000,0.000000,-1,3.570408,-0.023707,-0.888137,-0.003624,-0.765946,-0.235467
"2019-04-05 12:11:09.131 +0000",1554466269.131206,-2.477829,1.208809,-0.056055,-0.218177,-0.935195,0.278943,0.000000,0.000000,0.000000,-1,1.981939,-0.083357,-2.475316,0.058783,-0.255235,-0.330243
"2019-04-05 12:11:09.151 +0000",1554466269.151189,-2.631158,1.220899,0.106110,-0.167477,-0.939408,0.299105,0.000000,0.000000,0.000000,-1,0.080821,-0.255023,-2.417912,0.415921,-0.894531,-0.504595
"2019-04-05 12:11:09.171 +0000",1554466269.171171,-2.681410,1.244299,0.155728,-0.142439,-0.947171,0.287362,0.000000,0.000000,0.000000,-1,-1.330882,0.011243,0.115762,-0.251742,-0.219851,-0.361947
"2019-04-05 12:11:09.191 +0000",1554466269.191123,-2.568024,1.263166,0.046226,-0.164310,-0.953054,0.254343,0.000000,0.000000,0.000000,-1,-1.764975,0.908554,1.669268,-0.276349,0.579717,-0.341898
"2019-04-05 12:11:09.211 +0000",1554466269.211107,-2.373829,1.262696,-0.125221,-0.210614,-0.952911,0.218177,0.000000,0.000000,0.000000,-1,-1.434333,2.679961,2.125929,-0.215228,1.348343,0.088326
"2019-04-05 12:11:09.231 +0000",1554466269.231090,-2.167901,1.253109,-0.272112,-0.258320,-0.949960,0.175631,0.000000,0.000000,0.000000,-1,-1.769161,3.378971,1.462221,0.202534,0.733850,0.577116
"2019-04-05 12:11:09.251 +0000",1554466269.251072,-1.948469,1.257804,-0.431040,-0.286208,-0.951416,0.113543,0.000000,0.000000,0.000000,-1,-2.543584,3.415111,0.454531,0.602202,0.311509,-0.106768
"2019-04-05 12:11:09.271 +0000",1554466269.271056,-1.749393,1.268467,-0.600843,-0.293009,-0.954646,0.052894,0.000000,0.000000,0.000000,-1,-2.912917,0.201812,0.226554,0.713678,0.272807,-0.145896
"2019-04-05 12:11:09.291 +0000",1554466269.291040,-1.514090,1.256182,-0.834291,-0.308952,-0.950916,-0.017538,0.000000,0.000000,0.000000,-1,-3.598422,1.236477,1.242974,0.021904,-0.148541,1.086706
"2019-04-05 12:11:09.311 +0000",1554466269.311021,-1.294516,1.228342,-1.044569,-0.323066,-0.941933,-0.091599,0.000000,0.000000,0.000000,-1,-3.659599,0.418334,-0.213077,-0.724954,-1.627067,0.322526
"2019-04-05 12:11:09.331 +0000",1554466269.331004,-1.084778,1.225941,-1.252212,-0.298914,-0.941124,-0.157911,0.000000,0.000000,0.000000,-1,-2.821936,1.287940,-1.702496,-0.146094,-2.924644,-0.097643
"2019-04-05 12:11:09.351 +0000",1554466269.350958,-0.899521,1.225398,-1.425485,-0.265111,-0.940941,-0.210586,0.000000,0.000000,0.000000,-1,-2.156624,0.996721,-1.535200,0.014928,-2.276955,-0.279801
"2019-04-05 12:11:09.371 +0000",1554466269.370940,-0.767025,1.218935,-1.549165,-0.239183,-0.938733,-0.248137,0.000000,0.000000,0.000000,-1,-1.339614,0.613064,-0.621638,0.048188,-1.605426,-0.338029
"2019-04-05 12:11:09.391 +0000",1554466269.390924,-0.724706,1.207610,-1.582823,-0.235504,-0.934770,-0.265977,0.000000,0.000000,0.000000,-1,-0.344182,0.188835,0.330278,-0.319443,-0.301604,0.095658
"2019-04-05 12:11:09.411 +0000",1554466269.410907,-0.729531,1.204382,-1.569527,-0.238794,-0.933618,-0.267086,0.000000,0.000000,0.000000,-1,0.537239,0.574188,0.295079,0.244074,0.611718,0.248608
"2019-04-05 12:11:09.431 +0000",1554466269.430889,-0.777746,1.209572,-1.511058,-0.247986,-0.935465,-0.251811,0.000000,0.000000,0.000000,-1,1.057740,0.523025,0.827408,-0.089035,1.328516,0.357798
"2019-04-05 12:11:09.451 +0000",1554466269.450873,-0.819419,1.211043,-1.457183,-0.257256,-0.935984,-0.240321,0.000000,0.000000,0.000000,-1,0.419069,-0.071612,0.320622,0.460488,1.631479,0.634319
"2019-04-05 12:11:09.471 +0000",1554466269.470855,-0.834511,1.212917,-1.465189,-0.259552,-0.936642,-0.235232,0.000000,0.000000,0.000000,-1,-0.387054,-1.823811,-0.583097,1.053391,2.329220,0.474322
"2019-04-05 12:11:09.491 +0000",1554466269.490809,-0.831889,1.218534,-1.514277,-0.255042,-0.938595,-0.232365,0.000000,0.000000,0.000000,-1,-0.468479,-2.515538,-0.719677,0.824927,1.492565,0.201253
"2019-04-05 12:11:09.511 +0000",1554466269.510792,-0.839791,1.216276,-1.558545,-0.258447,-0.937813,-0.231757,0.000000,0.000000,0.000000,-1,-0.862398,-2.560868,-0.103786,0.195719,0.998101,0.102912
"2019-04-05 12:11:09.531 +0000",1554466269.530775,-0.841584,1.208506,-1.606589,-0.264289,-0.935087,-0.236142,0.000000,0.000000,0.000000,-1,-0.908365,-1.736233,-0.749354,-0.055276,-0.003984,0.011380
"2019-04-05 12:11:09.551 +0000",1554466269.550758,-0.803295,1.211951,-1.664470,-0.252735,-0.936303,-0.243847,0.000000,0.000000,0.000000,-1,-0.272108,-0.309380,-0.596261,0.112446,-0.406592,0.291668
"2019-04-05 12:11:09.571 +0000",1554466269.570741,-0.821504,1.215981,-1.662668,-0.254369,-0.937711,-0.236633,0.000000,0.000000,0.000000,-1,0.633090,-1.356049,0.231902,-0.340480,0.353909,-0.183426
"2019-04-05 12:11:09.591 +0000",1554466269.590725,-0.861390,1.210787,-1.645149,-0.267294,-0.935894,-0.229471,0.000000,0.000000,0.000000,-1,-1.350627,-0.518371,0.273823,-0.013330,0.565288,0.583307
"2019-04-05 12:11:09.611 +0000",1554466269.610707,-0.789257,1.229420,-1.709527,-0.237640,-0.942295,-0.235813,0.000000,0.000000,0.000000,-1,2.054402,0.663506,-2.931682,1.912674,-0.689847,1.953114
"2019-04-05 12:11:09.631 +0000",1554466269.630690,-0.823881,1.300865,-1.708178,-0.195676,-0.963789,-0.181167,0.000000,0.000000,0.000000,-1,2.942153,-2.404699,-1.548133,0.806562,0.031019,-0.968903
"2019-04-05 12:11:09.651 +0000",1554466269.650644,-0.996394,1.341046,-1.583904,-0.191187,-0.973723,-0.123735,0.000000,0.000000,0.000000,-1,1.905344,-1.946154,0.080653,-1.095831,-1.742967,-0.719908
"2019-04-05 12:11:09.671 +0000",1554466269.670625,-1.276095,1.352793,-1.334290,-0.206956,-0.976331,-0.062820,0.000000,0.000000,0.000000,-1,3.926846,-2.215282,1.063651,-0.829390,-0.245394,-0.426637
"2019-04-05 12:11:09.691 +0000",1554466269.690618,-1.772628,1.334798,-0.847536,-0.229068,-0.972281,0.046871,0.000000,0.000000,0.000000,-1,6.544617,0.338032,0.920780,-0.638013,0.116217,0.085453
"2019-04-05 12:11:09.711 +0000",1554466269.710600,-2.118696,1.288662,-0.494914,-0.237653,-0.960464,0.145020,0.000000,0.000000,0.000000,-1,3.828736,-0.645834,-0.003007,-0.703158,-0.807099,-0.804627
"2019-04-05 12:11:09.731 +0000",1554466269.730583,-2.343854,1.239704,-0.256506,-0.232683,-0.945688,0.227010,0.000000,0.000000,0.000000,-1,4.388897,0.677383,-0.449701,-0.422789,-0.607321,0.222178
"2019-04-05 12:11:09.751 +0000",1554466269.750566,-2.507765,1.208020,-0.074562,-0.210167,-0.934915,0.285943,0.000000,0.000000,0.000000,-1,1.898651,0.195971,-2.375614,0.797432,-0.011725,-0.517434
"2019-04-05 12:11:09.771 +0000",1554466269.770549,-2.677225,1.218358,0.107897,-0.154594,-0.938534,0.308633,0.000000,0.000000,0.000000,-1,0.372010,-0.770363,-3.264671,0.840584,-0.775104,-0.005456
"2019-04-05 12:11:09.791 +0000",1554466269.790533,-2.800879,1.240840,0.214882,-0.108269,-0.946056,0.305378,0.000000,0.000000,0.000000,-1,-0.975533,-0.880337,-0.694239,-0.492607,-0.299702,-0.376575
"2019-04-05 12:11:09.810 +0000",1554466269.810485,-2.745520,1.266942,0.155206,-0.115431,-0.954190,0.276038,0.000000,0.000000,0.000000,-1,-1.776249,0.636563,1.221179,-0.538332,0.717664,-0.276129
"2019-04-05 12:11:09.830 +0000",1554466269.830469,-2.586206,1.281453,0.007362,-0.150443,-0.958431,0.242438,0.000000,0.000000,0.000000,-1,-1.530727,1.584096,1.561267,-0.261499,1.094509,0.012445
"2019-04-05 12:11:09.850 +0000",1554466269.850452,-2.416772,1.294732,-0.124167,-0.180715,-0.962136,0.204052,0.000000,0.000000,0.000000,-1,-1.991859,1.992076,0.627217,0.397253,0.804528,0.381245
"2019-04-05 12:11:09.870 +0000",1554466269.870436,-2.239562,1.319404,-0.271640,-0.195169,-0.968567,0.154231,0.000000,0.000000,0.000000,-1,-2.208516,1.864152,0.342780,0.422494,0.537995,-0.196788
"2019-04-05 12:11:09.890 +0000",1554466269.890419,-2.023026,1.334751,-0.464945,-0.210351,-0.972270,0.102190,0.000000,0.000000,0.000000,-1,-2.939911,1.107042,0.958845,0.107965,0.569438,0.490476
"2019-04-05 12:11:09.910 +0000",1554466269.910402,-1.669283,1.328420,-0.794264,-0.238847,-0.970770,0.023599,0.000000,0.000000,0.000000,-1,-3.765013,1.552132,1.439753,-0.470153,-0.596155,1.074087
"2019-04-05 12:11:09.930 +0000",1554466269.930384,-1.380700,1.319828,-1.084490,-0.243869,-0.968672,-0.046925,0.000000,0.000000,0.000000,-1,-3.560131,-0.689434,-0.943435,-0.174069,-1.388444,0.280781
"2019-04-05 12:11:09.950 +0000",1554466269.950369,-1.095197,1.324765,-1.397812,-0.216526,-0.969887,-0.111518,0.000000,0.000000,0.000000,-1,-3.565288,-0.333824,-1.700527,0.414830,-2.111626,0.043006
"2019-04-05 12:11:09.970 +0000",1554466269.970320,-0.802805,1.310715,-1.686129,-0.184976,-0.966369,-0.178646,0.000000,0.000000,0.000000,-1,-2.990720,0.975863,-1.464200,0.417169,-2.028733,0.015087
"2019-04-05 12:11:09.990 +0000",1554466269.990304,-0.612998,1.286074,-1.876336,-0.161603,-0.959740,-0.229748,0.000000,0.000000,0.000000,-1,-2.014076,-0.014354,-0.632535,-0.254794,-1.956459,-0.714069
"2019-04-05 12:11:10.010 +0000",1554466270.010288,-0.577495,1.265137,-1.916496,-0.164281,-0.953649,-0.252122,0.000000,0.000000,0.000000,-1,-0.415752,-0.193568,0.704980,-0.708674,-0.912760,-0.210036
"2019-04-05 12:11:10.030 +0000",1554466270.030271,-0.623733,1.254658,-1.870474,-0.181586,-0.950443,-0.252357,0.000000,0.000000,0.000000,-1,0.118067,-0.302418,0.978435,0.017661,0.080784,0.302833
"2019-04-05 12:11:10.050 +0000",1554466270.050255,-0.697960,1.249283,-1.803738,-0.203081,-0.948758,-0.242108,0.000000,0.000000,0.000000,-1,0.812212,-0.379517,0.959375,0.038927,1.031781,0.267590
"2019-04-05 12:11:10.070 +0000",1554466270.070237,-0.741383,1.253138,-1.748159,-0.210928,-0.949970,-0.230364,0.000000,0.000000,0.000000,-1,0.423270,1.224243,0.010778,0.319662,1.907489,0.663927
"2019-04-05 12:11:10.090 +0000",1554466270.090222,-0.709979,1.261200,-1.757124,-0.198592,-0.952457,-0.231057,0.000000,0.000000,0.000000,-1,-0.314913,0.240553,-0.678319,0.651946,2.381778,1.039773
"2019-04-05 12:11:10.110 +0000",1554466270.110205,-0.643397,1.262310,-1.837150,-0.182145,-0.952794,-0.242912,0.000000,0.000000,0.000000,-1,-0.874090,-0.886991,-1.120566,0.646210,1.827901,0.602242
"2019-04-05 12:11:10.130 +0000",1554466270.130159,-0.615790,1.264672,-1.895043,-0.174070,-0.953509,-0.246010,0.000000,0.000000,0.000000,-1,-0.266580,-2.266018,-0.253318,0.285993,1.288088,-0.082847
"2019-04-05 12:11:10.150 +0000",1554466270.150142,-0.641689,1.254030,-1.912853,-0.186445,-0.950248,-0.249534,0.000000,0.000000,0.000000,-1,-0.878462,-1.754951,0.238939,0.112852,-0.008477,-0.129036
"2019-04-05 12:11:10.170 +0000",1554466270.170125,-0.631629,1.236209,-1.939880,-0.193895,-0.944546,-0.265024,0.000000,0.000000,0.000000,-1,-1.042721,-0.048566,0.162417,-0.078978,-0.478763,0.360865
"2019-04-05 12:11:10.190 +0000",1554466270.190109,-0.639286,1.226246,-1.940508,-0.201523,-0.941228,-0.271070,0.000000,0.000000,0.000000,-1,0.387854,-0.890105,0.368744,-0.551040,0.395131,0.139799
"2019-04-05 12:11:10.210 +0000",1554466270.210093,-0.651533,1.225271,-1.936764,-0.205385,-0.940898,-0.269312,0.000000,0.000000,0.000000,-1,-1.388331,1.268571,-0.582654,-0.106307,0.571681,1.018503
"2019-04-05 12:11:10.230 +0000",1554466270.230075,-0.488924,1.257091,-2.068267,-0.144935,-0.951197,-0.272430,0.000000,0.000000,0.000000,-1,1.402619,0.872452,-3.508798,1.849708,-1.136007,1.752792
"2019-04-05 12:11:10.250 +0000",1554466270.250059,-0.421072,1.309894,-2.163191,-0.105435,-0.966158,-0.235420,0.000000,0.000000,0.000000,-1,2.035959,-2.007483,-0.974559,0.625546,-0.359480,-1.611061
"2019-04-05 12:11:10.270 +0000",1554466270.270043,-0.546295,1.352030,-2.088733,-0.112750,-0.976166,-0.185438,0.000000,0.000000,0.000000,-1,2.552504,-2.398276,0.293330,-0.353528,-0.947998,-0.725099
"2019-04-05 12:11:10.290 +0000",1554466270.289997,-0.902053,1.404659,-1.785821,-0.129753,-0.986231,-0.102532,0.000000,0.000000,0.000000,-1,5.410581,-2.874030,0.244936,-0.211128,-0.045065,-0.094382
"2019-04-05 12:11:10.310 +0000",1554466270.309979,-1.668803,1.435586,-1.051323,-0.134152,-0.990873,0.013190,0.000000,0.000000,0.000000,-1,4.799597,-0.994584,0.526966,-0.158573,-0.224444,-0.330863
"2019-04-05 12:11:10.330 +0000",1554466270.329962,-2.186789,1.391667,-0.532622,-0.145425,-0.983999,0.102943,0.000000,0.000000,0.000000,-1,4.425548,0.315282,0.142046,-1.689948,-0.822199,-0.554817
"2019-04-05 12:11:10.350 +0000",1554466270.349946,-2.517793,1.346279,-0.189585,-0.130047,-0.974902,0.180706,0.000000,0.000000,0.000000,-1,3.191924,0.052732,-1.894178,-0.734516,-0.703748,0.243794
"2019-04-05 12:11:10.370 +0000",1554466270.369930,-2.805003,1.322319,0.119791,-0.081223,-0.969288,0.232129,0.000000,0.000000,0.000000,-1,2.368021,1.584112,-3.100950,0.366196,-0.081417,-0.577512
"2019-04-05 12:11:10.390 +0000",1554466270.389913,-3.016961,1.301470,0.373958,-0.033077,-0.963950,0.264018,0.000000,0.000000,0.000000,-1,0.534078,0.837293,-2.200191,0.631541,-0.539696,0.213658
"2019-04-05 12:11:10.410 +0000",1554466270.409897,-3.098024,1.311731,0.463492,-0.011158,-0.966630,0.255934,0.000000,0.000000,0.000000,-1,-1.235536,0.147472,-0.180890,-0.520779,-0.192733,-0.631941
"2019-04-05 12:11:10.430 +0000",1554466270.429848,-3.025701,1.341254,0.400836,-0.026310,-0.973771,0.226006,0.000000,0.000000,0.000000,-1,-1.623041,0.600281,1.289068,-0.598446,1.027634,-0.440651
"2019-04-05 12:11:10.450 +0000",1554466270.449832,-2.851084,1.368872,0.235727,-0.057447,-0.979682,0.192152,0.000000,0.000000,0.000000,-1,-1.341052,1.160883,1.569088,-0.346087,1.116157,-0.221388
"2019-04-05 12:11:10.470 +0000",1554466270.469815,-2.614477,1.379693,0.038361,-0.095549,-0.981795,0.164159,0.000000,0.000000,0.000000,-1,-1.498923,2.626349,1.395878,0.025694,0.955962,0.674479
"2019-04-05 12:11:10.490 +0000",1554466270.489799,-2.302753,1.391325,-0.224993,-0.132787,-0.983938,0.119302,0.000000,0.000000,0.000000,-1,-2.394575,2.631163,1.593209,-0.009730,0.514181,-0.127267
"2019-04-05 12:11:10.510 +0000",1554466270.509781,-1.927428,1.395182,-0.562210,-0.163719,-0.984619,0.060996,0.000000,0.000000,0.000000,-1,-2.528385,1.763478,1.174966,0.003716,0.371018,0.096231
"2019-04-05 12:11:10.530 +0000",1554466270.529766,-1.625420,1.380061,-0.838484,-0.189299,-0.981865,0.010351,0.000000,0.000000,0.000000,-1,-2.732350,2.236915,1.421705,0.335357,0.300423,0.480097
"2019-04-05 12:11:10.550 +0000",1554466270.549748,-1.278873,1.337887,-1.133942,-0.221044,-0.972999,-0.066426,0.000000,0.000000,0.000000,-1,-3.924105,2.821663,1.600036,-0.627971,-0.824730,1.478520
"2019-04-05 12:11:10.570 +0000",1554466270.569732,-0.939630,1.296775,-1.452137,-0.218470,-0.962691,-0.159680,0.000000,0.000000,0.000000,-1,-4.537401,1.317809,-1.263662,-0.509298,-2.489977,-0.355106
"2019-04-05 12:11:10.590 +0000",1554466270.589686,-0.672993,1.262157,-1.701215,-0.189344,-0.952748,-0.237530,0.000000,0.000000,0.000000,-1,-3.190548,0.593423,-1.317556,0.053266,-3.114177,-0.234409
"2019-04-05 12:11:10.610 +0000",1554466270.609669,-0.538778,1.230924,-1.833590,-0.171046,-0.942797,-0.286141,0.000000,0.000000,0.000000,-1,-1.730841,0.530357,-0.172729,-0.421727,-2.258024,-0.325370
"2019-04-05 12:11:10.630 +0000",1554466270.629652,-0.498760,1.208552,-1.851422,-0.169510,-0.935104,-0.311203,0.000000,0.000000,0.000000,-1,-0.619596,1.682540,1.105419,-0.367935,-0.674561,0.163895
"2019-04-05 12:11:10.650 +0000",1554466270.649636,-0.537237,1.186260,-1.773742,-0.191978,-0.926972,-0.322284,0.000000,0.000000,0.000000,-1,0.299171,1.551533,2.241727,-0.111382,0.704011,0.384082
"2019-04-05 12:11:10.670 +0000",1554466270.669619,-0.635541,1.174226,-1.646743,-0.229287,-0.922391,-0.310840,0.000000,0.000000,0.000000,-1,1.022448,0.651613,2.197991,-0.104789,1.485960,0.502628
"2019-04-05 12:11:10.690 +0000",1554466270.689611,-0.690809,1.167943,-1.561035,-0.249795,-0.919946,-0.302161,0.000000,0.000000,0.000000,-1,0.875191,1.185918,0.554774,0.918146,1.918817,1.005866
"2019-04-05 12:11:10.710 +0000",1554466270.709594,-0.705217,1.188227,-1.542008,-0.241976,-0.927709,-0.284261,0.000000,0.000000,0.000000,-1,0.738608,-0.294104,-1.020569,1.183703,2.378530,0.968893
"2019-04-05 12:11:10.730 +0000",1554466270.729577,-0.680211,1.208279,-1.574021,-0.223046,-0.935007,-0.275703,0.000000,0.000000,0.000000,-1,0.087549,-0.606122,-1.165275,0.625177,1.596155,0.115883
"2019-04-05 12:11:10.750 +0000",1554466270.749530,-0.640692,1.219616,-1.638724,-0.205630,-0.938967,-0.275784,0.000000,0.000000,0.000000,-1,-0.696556,-2.008282,-1.104718,0.727511,1.161486,-0.160633
"2019-04-05 12:11:10.770 +0000",1554466270.769513,-0.623150,1.214315,-1.697850,-0.203662,-0.937131,-0.283386,0.000000,0.000000,0.000000,-1,-0.766932,-1.308714,-0.344701,0.225605,0.059216,0.265839
"2019-04-05 12:11:10.789 +0000",1554466270.789498,-0.619133,1.213217,-1.719219,-0.203120,-0.936747,-0.285040,0.000000,0.000000,0.000000,-1,0.208854,-0.667442,-0.019218,-0.075063,-0.501196,0.465795
"2019-04-05 12:11:10.809 +0000",1554466270.809481,-0.666287,1.213538,-1.690553,-0.216144,-0.936859,-0.274912,0.000000,0.000000,0.000000,-1,0.018601,-1.235046,0.739388,-0.400311,0.075287,-0.178808
"2019-04-05 12:11:10.829 +0000",1554466270.829464,-0.662986,1.187191,-1.716105,-0.230351,-0.927321,-0.294981,0.000000,0.000000,0.000000,-1,-1.298046,-0.459215,-0.775022,0.475621,-0.419389,1.344069
"2019-04-05 12:11:10.849 +0000",1554466270.849448,-0.611416,1.228883,-1.782509,-0.192466,-0.942115,-0.274547,0.000000,0.000000,0.000000,-1,1.722651,-2.732668,-2.230422,1.566779,-1.453698,1.328686
"2019-04-05 12:11:10.869 +0000",1554466270.869432,-0.665740,1.280520,-1.785006,-0.176779,-0.958165,-0.225098,0.000000,0.000000,0.000000,-1,2.257588,-2.193075,-1.055604,-0.470071,-0.277339,-0.804626
"2019-04-05 12:11:10.889 +0000",1554466270.889414,-0.791052,1.323352,-1.681408,-0.174166,-0.969541,-0.172207,0.000000,0.000000,0.000000,-1,3.214423,-1.166540,0.299861,-0.697645,-0.701952,-0.386142
"2019-04-05 12:11:10.909 +0000",1554466270.909370,-1.217051,1.358611,-1.281497,-0.197557,-0.977573,-0.072954,0.000000,0.000000,0.000000,-1,6.150157,-1.603547,1.111213,-0.678373,0.619556,-0.140364
"2019-04-05 12:11:10.929 +0000",1554466270.929353,-1.815217,1.340943,-0.678942,-0.221064,-0.973700,0.055135,0.000000,0.000000,0.000000,-1,5.932189,0.559221,1.432783,-0.196264,-0.391046,-0.289708
"2019-04-05 12:11:10.949 +0000",1554466270.949337,-2.084759,1.282884,-0.430129,-0.247265,-0.958839,0.139599,0.000000,0.000000,0.000000,-1,3.132620,-2.167742,1.542164,-1.205662,-1.302605,-1.194256
"2019-04-05 12:11:10.969 +0000",1554466270.969321,-2.239443,1.229844,-0.281626,-0.262379,-0.942437,0.207294,0.000000,0.000000,0.000000,-1,3.303995,0.048065,-0.434599,-0.143276,-0.378471,0.488004
"2019-04-05 12:11:10.989 +0000",1554466270.989305,-2.390141,1.209469,-0.093123,-0.241346,-0.935428,0.258314,0.000000,0.000000,0.000000,-1,2.522199,1.954324,-2.176064,0.865033,-0.078671,0.088503
"2019-04-05 12:11:11.009 +0000",1554466271.009288,-2.507282,1.221661,0.057229,-0.202727,-0.939669,0.275543,0.000000,0.000000,0.000000,-1,-0.085911,0.428254,-2.399130,0.153411,-0.577818,-0.031616
"2019-04-05 12:11:11.029 +0000",1554466271.029273,-2.534953,1.249518,0.097636,-0.180030,-0.948832,0.259435,0.000000,0.000000,0.000000,-1,-1.236812,1.001285,0.027341,-0.594186,0.449290,-0.578603
"2019-04-05 12:11:11.049 +0000",1554466271.049256,-2.418860,1.258464,-0.000295,-0.203246,-0.951619,0.230460,0.000000,0.000000,0.000000,-1,-1.217701,1.151155,1.399989,-0.311708,0.961919,-0.321341
"2019-04-05 12:11:11.069 +0000",1554466271.069208,-2.274908,1.256160,-0.118624,-0.235875,-0.950909,0.200338,0.000000,0.000000,0.000000,-1,-1.292700,1.827869,1.185985,0.339772,1.122952,0.071390
"2019-04-05 12:11:11.089 +0000",1554466271.089192,-2.117680,1.261425,-0.251779,-0.260055,-0.952525,0.158328,0.000000,0.000000,0.000000,-1,-2.320156,1.279358,0.881189,0.665679,0.615321,0.016049
"2019-04-05 12:11:11.109 +0000",1554466271.109176,-1.922018,1.267377,-0.420917,-0.280545,-0.954320,0.102795,0.000000,0.000000,0.000000,-1,-2.638111,1.846456,0.742987,0.519818,0.413930,0.053928
"2019-04-05 12:11:11.129 +0000",1554466271.129162,-1.717990,1.268316,-0.615582,-0.294668,-0.954600,0.043689,0.000000,0.000000,0.000000,-1,-3.033282,0.500599,0.831857,0.150426,0.245448,0.012540
"2019-04-05 12:11:11.149 +0000",1554466271.149144,-1.473466,1.247057,-0.838405,-0.316608,-0.948053,-0.030913,0.000000,0.000000,0.000000,-1,-3.668120,2.483608,1.461496,-0.497403,-0.415107,1.627624
"2019-04-05 12:11:11.169 +0000",1554466271.169128,-1.237673,1.210763,-1.047660,-0.332937,-0.935885,-0.115203,0.000000,0.000000,0.000000,-1,-4.168238,0.510318,-0.091217,-0.830942,-1.869123,0.109435
"2019-04-05 12:11:11.189 +0000",1554466271.189112,-1.034879,1.192455,-1.267866,-0.317593,-0.929278,-0.188616,0.000000,0.000000,0.000000,-1,-3.533880,-0.075665,-1.199675,0.267056,-2.571103,-0.762861
"2019-04-05 12:11:11.209 +0000",1554466271.209094,-0.881546,1.177476,-1.442321,-0.295769,-0.923641,-0.243736,0.000000,0.000000,0.000000,-1,-2.624200,-0.420435,-1.313962,-0.138298,-2.785389,-0.572258
"2019-04-05 12:11:11.229 +0000",1554466271.229048,-0.778361,1.164199,-1.549509,-0.277676,-0.918472,-0.281612,0.000000,0.000000,0.000000,-1,-1.440252,0.701614,-0.560078,-0.301273,-1.295578,-0.053349
"2019-04-05 12:11:11.249 +0000",1554466271.249032,-0.743829,1.152212,-1.559398,-0.275223,-0.913665,-0.299112,0.000000,0.000000,0.000000,-1,-0.069280,1.333706,1.024442,-0.217407,0.038055,0.510186
"2019-04-05 12:11:11.269 +0000",1554466271.269016,-0.779320,1.140477,-1.491363,-0.293179,-0.908832,-0.296765,0.000000,0.000000,0.000000,-1,1.183281,1.359048,1.844761,0.030240,1.310169,0.566449
"2019-04-05 12:11:11.289 +0000",1554466271.289000,-0.842384,1.130522,-1.391939,-0.318035,-0.904635,-0.283708,0.000000,0.000000,0.000000,-1,0.620784,0.539457,1.270364,0.343853,1.501635,0.776261
"2019-04-05 12:11:11.309 +0000",1554466271.308984,-0.876924,1.126455,-1.374173,-0.330468,-0.902894,-0.274906,0.000000,0.000000,0.000000,-1,-0.069363,-1.360264,-0.420371,0.943185,2.362000,0.572345
"2019-04-05 12:11:11.329 +0000",1554466271.328966,-0.874410,1.133388,-1.410477,-0.324966,-0.905852,-0.271714,0.000000,0.000000,0.000000,-1,-0.631944,-1.749223,-0.891170,0.984344,1.589110,0.436082
"2019-04-05 12:11:11.349 +0000",1554466271.348950,-0.871876,1.133910,-1.461612,-0.323915,-0.906073,-0.272232,0.000000,0.000000,0.000000,-1,-1.028971,-2.585401,-0.336843,0.478440,1.136725,-0.155029
"2019-04-05 12:11:11.369 +0000",1554466271.368936,-0.883176,1.124335,-1.505114,-0.333659,-0.901981,-0.274048,0.000000,0.000000,0.000000,-1,-0.997546,-2.581164,-0.357690,0.037135,0.363071,0.124558
"2019-04-05 12:11:11.389 +0000",1554466271.388887,-0.877030,1.125676,-1.553858,-0.331038,-0.902559,-0.275320,0.000000,0.000000,0.000000,-1,-0.418975,-0.551335,-0.806933,0.348158,-0.421339,0.131979
"2019-04-05 12:11:11.409 +0000",1554466271.408872,-0.876061,1.135065,-1.564013,-0.324247,-0.906561,-0.270204,0.000000,0.000000,0.000000,-1,0.442174,-0.975684,-0.240501,-0.213885,0.198660,0.207201
"2019-04-05 12:11:11.429 +0000",1554466271.428854,-0.868609,1.135121,-1.597813,-0.322185,-0.906585,-0.272580,0.000000,0.000000,0.000000,-1,-2.614451,-1.019149,-0.762755,0.121669,0.751235,0.776929
"2019-04-05 12:11:11.449 +0000",1554466271.448839,-0.789596,1.166562,-1.685689,-0.279281,-0.919404,-0.276946,0.000000,0.000000,0.000000,-1,2.256306,0.359334,-3.604067,1.388808,-1.837097,1.332549
"2019-04-05 12:11:11.469 +0000",1554466271.468823,-0.824527,1.232865,-1.696133,-0.243423,-0.943443,-0.225081,0.000000,0.000000,0.000000,-1,2.230420,-2.332740,-1.177292,-0.349778,0.229347,-0.983110
"2019-04-05 12:11:11.489 +0000",1554466271.488806,-0.962412,1.268366,-1.593406,-0.244400,-0.954615,-0.170229,0.000000,0.000000,0.000000,-1,2.902363,-0.973600,0.037942,-0.687561,-1.161458,-0.687056
"2019-04-05 12:11:11.509 +0000",1554466271.508792,-1.233462,1.299570,-1.339482,-0.252813,-0.963443,-0.088672,0.000000,0.000000,0.000000,-1,5.083532,-1.882626,0.324674,-0.614969,-0.107495,-0.478741
"2019-04-05 12:11:11.529 +0000",1554466271.528774,-1.705667,1.304274,-0.877666,-0.260987,-0.964693,0.035414,0.000000,0.000000,0.000000,-1,6.141340,-0.498367,0.996610,-0.411590,-0.303847,-0.058272
"2019-04-05 12:11:11.549 +0000",1554466271.548727,-1.980406,1.255488,-0.622144,-0.284457,-0.950701,0.123502,0.000000,0.000000,0.000000,-1,3.508534,-1.320716,1.354573,-0.922742,-0.661909,-1.448422
"2019-04-05 12:11:11.569 +0000",1554466271.568710,-2.167673,1.206747,-0.439033,-0.294497,-0.934463,0.200129,0.000000,0.000000,0.000000,-1,3.691934,-0.283607,-0.461658,-0.689283,-0.501115,0.545934
"2019-04-05 12:11:11.589 +0000",1554466271.588695,-2.349620,1.196222,-0.233931,-0.260409,-0.930663,0.257007,0.000000,0.000000,0.000000,-1,2.873257,1.059641,-2.796720,1.061770,-0.156510,-0.167911
"2019-04-05 12:11:11.609 +0000",1554466271.608678,-2.499286,1.198354,-0.063111,-0.217987,-0.931441,0.291374,0.000000,0.000000,0.000000,-1,0.579569,-0.283639,-1.585190,0.351761,-0.919923,0.085106
"2019-04-05 12:11:11.629 +0000",1554466271.628663,-2.509499,1.211019,-0.064380,-0.208013,-0.935975,0.284045,0.000000,0.000000,0.000000,-1,-1.270394,-0.172021,0.269493,-0.408640,-0.471618,-0.680865
"2019-04-05 12:11:11.649 +0000",1554466271.648647,-2.428076,1.220950,-0.132997,-0.224331,-0.939425,0.259144,0.000000,0.000000,0.000000,-1,-0.911041,1.304353,1.150942,-0.431522,2.002093,-0.425373
"2019-04-05 12:11:11.669 +0000",1554466271.668630,-2.320493,1.215046,-0.216969,-0.254915,-0.937385,0.237333,0.000000,0.000000,0.000000,-1,-0.513500,2.035304,1.185032,0.052125,1.045708,-0.120024
"2019-04-05 12:11:11.689 +0000",1554466271.688573,-2.189851,1.212559,-0.305555,-0.285558,-0.936516,0.203455,0.000000,0.000000,0.000000,-1,-1.984982,2.090309,0.983913,0.364674,0.660882,0.512015
"2019-04-05 12:11:11.709 +0000",1554466271.708557,-2.014100,1.217571,-0.451362,-0.312489,-0.938262,0.148377,0.000000,0.000000,0.000000,-1,-2.374668,1.925447,1.270013,0.249256,0.402633,-0.092774
"2019-04-05 12:11:11.729 +0000",1554466271.728540,-1.821885,1.204358,-0.632041,-0.347057,-0.933609,0.089021,0.000000,0.000000,0.000000,-1,-2.814173,1.463612,2.290958,0.066845,0.306061,0.371459
"2019-04-05 12:11:11.749 +0000",1554466271.748525,-1.605684,1.159759,-0.801043,-0.399317,-0.916707,0.013937,0.000000,0.000000,0.000000,-1,-3.047986,3.564796,3.075530,-0.229345,-0.350566,1.394312
"2019-04-05 12:11:11.769 +0000",1554466271.768509,-1.419923,1.113937,-0.956611,-0.436121,-0.897442,-0.066303,0.000000,0.000000,0.000000,-1,-4.119679,1.129835,0.552995,-0.482137,-1.441822,0.112507
"2019-04-05 12:11:11.788 +0000",1554466271.788493,-1.205421,1.093014,-1.162480,-0.429459,-0.888017,-0.164290,0.000000,0.000000,0.000000,-1,-3.517343,0.577997,-0.507794,-0.567337,-2.492583,0.400191
"2019-04-05 12:11:11.808 +0000",1554466271.808475,-1.067135,1.080022,-1.283528,-0.412783,-0.881968,-0.227471,0.000000,0.000000,0.000000,-1,-2.169159,2.355113,-0.399354,-0.579496,-2.165197,-0.676063
"2019-04-05 12:11:11.828 +0000",1554466271.828459,-0.975998,1.052961,-1.340945,-0.409990,-0.868893,-0.277370,0.000000,0.000000,0.000000,-1,-1.623055,1.764147,1.304230,-0.713530,-1.511631,-0.321584
"2019-04-05 12:11:11.848 +0000",1554466271.848412,-0.945113,1.013957,-1.335442,-0.428387,-0.848930,-0.309520,0.000000,0.000000,0.000000,-1,-0.535781,1.241564,1.734220,-0.432651,-0.468529,-0.015248
"2019-04-05 12:11:11.868 +0000",1554466271.868396,-0.967541,0.987994,-1.308518,-0.453223,-0.834924,-0.312237,0.000000,0.000000,0.000000,-1,0.396365,-0.972797,1.263425,0.079031,0.401559,0.399060
"2019-04-05 12:11:11.888 +0000",1554466271.888381,-1.033994,0.985843,-1.254864,-0.474498,-0.833738,-0.282370,0.000000,0.000000,0.000000,-1,1.787933,-1.359710,0.465047,0.252513,1.575117,0.665976
"2019-04-05 12:11:11.908 +0000",1554466271.908365,-1.104736,1.003306,-1.195976,-0.480189,-0.843253,-0.241544,0.000000,0.000000,0.000000,-1,1.368252,-0.795120,-0.553584,1.128794,1.780982,0.581037
"2019-04-05 12:11:11.928 +0000",1554466271.928349,-1.123005,1.027428,-1.196056,-0.466047,-0.855972,-0.223858,0.000000,0.000000,0.000000,-1,-0.191121,-1.180514,-1.309348,1.872785,1.795028,0.413448
"2019-04-05 12:11:11.948 +0000",1554466271.948333,-1.119741,1.041787,-1.235356,-0.454204,-0.863308,-0.219997,0.000000,0.000000,0.000000,-1,-0.955603,-1.893955,-0.786883,0.941707,1.208797,0.133007
"2019-04-05 12:11:11.968 +0000",1554466271.968318,-1.114556,1.046007,-1.279486,-0.449783,-0.865430,-0.220742,0.000000,0.000000,0.000000,-1,-0.866494,-1.127539,-0.470224,0.526962,0.729352,0.064355
"2019-04-05 12:11:11.988 +0000",1554466271.988302,-1.105684,1.044122,-1.309096,-0.449264,-0.864483,-0.225455,0.000000,0.000000,0.000000,-1,-0.490818,-0.580790,-0.085853,0.104324,0.083538,0.248679
"2019-04-05 12:11:12.008 +0000",1554466272.008255,-1.112022,1.042417,-1.316276,-0.452005,-0.863625,-0.223256,0.000000,0.000000,0.000000,-1,0.117769,-0.915674,0.087857,0.018273,-0.355475,0.208317
"2019-04-05 12:11:12.028 +0000",1554466272.028240,-1.143971,1.040523,-1.307205,-0.460393,-0.862669,-0.209380,0.000000,0.000000,0.000000,-1,-0.267720,-1.076296,0.330160,-0.060862,0.314009,-0.146959
"2019-04-05 12:11:12.048 +0000",1554466272.048224,-1.099861,1.023777,-1.347549,-0.463523,-0.854079,-0.236000,0.000000,0.000000,0.000000,-1,-2.505405,2.678314,-0.204455,0.437034,-0.281389,1.221580
"2019-04-05 12:11:12.068 +0000",1554466272.068208,-1.031047,1.054657,-1.405906,-0.423366,-0.869731,-0.253634,0.000000,0.000000,0.000000,-1,0.912471,-2.665612,-3.261149,0.868388,-1.615392,0.381258
"2019-04-05 12:11:12.088 +0000",1554466272.088192,-1.102407,1.118820,-1.396720,-0.389705,-0.899586,-0.197168,0.000000,0.000000,0.000000,-1,2.533765,-1.747005,-1.792617,-0.167592,0.967426,-0.321845
"2019-04-05 12:11:12.108 +0000",1554466272.108175,-1.217079,1.153990,-1.301680,-0.379779,-0.914387,-0.140232,0.000000,0.000000,0.000000,-1,2.464002,-1.174774,0.116567,-1.141064,-1.238812,-0.461269
"2019-04-05 12:11:12.128 +0000",1554466272.128160,-1.398286,1.161493,-1.158435,-0.392064,-0.917398,-0.068314,0.000000,0.000000,0.000000,-1,3.965714,-3.972090,0.313815,-0.686870,0.262201,-0.805282
"2019-04-05 12:11:12.148 +0000",1554466272.148144,-1.710938,1.177139,-0.902024,-0.379808,-0.923512,0.053578,0.000000,0.000000,0.000000,-1,4.780415,-2.409895,-1.566322,-0.347182,0.141515,-0.154912
"2019-04-05 12:11:12.168 +0000",1554466272.168099,-1.918370,1.180361,-0.706032,-0.357833,-0.924743,0.129636,0.000000,0.000000,0.000000,-1,3.011231,-0.939870,-0.621481,-1.267259,-0.980317,-0.887571
"2019-04-05 12:11:12.188 +0000",1554466272.188082,-2.098061,1.173823,-0.527128,-0.334119,-0.922236,0.194540,0.000000,0.000000,0.000000,-1,3.115045,-0.241473,-2.085538,-0.709613,-0.252966,0.249902
"2019-04-05 12:11:12.208 +0000",1554466272.208067,-2.267395,1.180717,-0.328424,-0.291672,-0.924879,0.243981,0.000000,0.000000,0.000000,-1,2.620622,1.699405,-2.472373,0.940689,0.080351,0.086769
"2019-04-05 12:11:12.228 +0000",1554466272.228051,-2.386856,1.183128,-0.166212,-0.258987,-0.925793,0.275377,0.000000,0.000000,0.000000,-1,1.253957,0.729531,-1.707301,0.898148,-0.198154,0.179732
"2019-04-05 12:11:12.248 +0000",1554466272.248034,-2.388410,1.185839,-0.157550,-0.256842,-0.926814,0.273947,0.000000,0.000000,0.000000,-1,-0.920351,0.333451,1.219477,-0.279215,-1.066990,-0.651435
"2019-04-05 12:11:12.268 +0000",1554466272.268019,-2.304271,1.178400,-0.236319,-0.284070,-0.923995,0.256002,0.000000,0.000000,0.000000,-1,-0.825996,0.941062,1.538051,-0.118503,2.512344,-0.368719
"2019-04-05 12:11:12.288 +0000",1554466272.288003,-2.199216,1.167704,-0.329252,-0.317326,-0.919852,0.230600,0.000000,0.000000,0.000000,-1,-1.330441,1.010357,1.050988,-0.285336,0.512061,-0.022439
"2019-04-05 12:11:12.308 +0000",1554466272.307987,-2.094335,1.171513,-0.425661,-0.336686,-0.921340,0.194359,0.000000,0.000000,0.000000,-1,-2.063556,0.287024,0.989645,0.490708,0.690337,0.307213
"2019-04-05 12:11:12.328 +0000",1554466272.327940,-1.966637,1.169621,-0.551468,-0.360304,-0.920603,0.150571,0.000000,0.000000,0.000000,-1,-2.083029,1.135579,1.342028,0.504530,0.222895,-0.054059
"2019-04-05 12:11:12.348 +0000",1554466272.347923,-1.837873,1.158546,-0.663072,-0.386467,-0.916221,0.105743,0.000000,0.000000,0.000000,-1,-1.798084,1.418824,1.111055,0.332466,0.536522,0.270417
"2019-04-05 12:11:12.368 +0000",1554466272.367908,-1.687930,1.140743,-0.766635,-0.414062,-0.908943,0.048724,0.000000,0.000000,0.000000,-1,-1.989777,3.824750,1.783528,-0.014221,0.144951,1.499326
"2019-04-05 12:11:12.388 +0000",1554466272.387892,-1.525207,1.100427,-0.890821,-0.452744,-0.891401,-0.020655,0.000000,0.000000,0.000000,-1,-3.554189,1.380634,1.835862,-1.073287,-1.538347,0.289392
"2019-04-05 12:11:12.408 +0000",1554466272.407875,-1.349799,1.067876,-1.043190,-0.470264,-0.876179,-0.105653,0.000000,0.000000,0.000000,-1,-3.376288,2.625695,0.265029,-0.759595,-2.627697,-0.396163
"2019-04-05 12:11:12.428 +0000",1554466272.427860,-1.197655,1.059369,-1.154029,-0.455744,-0.872047,-0.178415,0.000000,0.000000,0.000000,-1,-2.274814,2.039482,-0.827775,-0.444006,-2.819497,-0.319571
"2019-04-05 12:11:12.448 +0000",1554466272.447844,-1.105396,1.044467,-1.237743,-0.448933,-0.864657,-0.225451,0.000000,0.000000,0.000000,-1,-1.889070,0.716260,0.595431,-0.514065,-2.485960,-0.688078
"2019-04-05 12:11:12.468 +0000",1554466272.467829,-1.065927,1.010271,-1.264648,-0.465303,-0.846976,-0.257146,0.000000,0.000000,0.000000,-1,-0.896475,0.677845,1.536294,-0.444609,0.225303,-0.007869
"2019-04-05 12:11:12.488 +0000",1554466272.487783,-1.074430,0.979847,-1.254400,-0.489912,-0.830412,-0.265333,0.000000,0.000000,0.000000,-1,0.119123,-0.210589,1.309331,0.032683,0.744963,0.313994
"2019-04-05 12:11:12.508 +0000",1554466272.507767,-1.108656,0.969194,-1.206972,-0.506595,-0.824430,-0.252344,0.000000,0.000000,0.000000,-1,1.365546,0.391688,0.617409,0.019870,1.667539,1.034341
"2019-04-05 12:11:12.528 +0000",1554466272.527751,-1.130124,0.981148,-1.166620,-0.502945,-0.831136,-0.237190,0.000000,0.000000,0.000000,-1,1.026623,0.354994,-0.676054,1.387070,2.036748,0.777626
"2019-04-05 12:11:12.548 +0000",1554466272.547735,-1.153675,1.002907,-1.164410,-0.491737,-0.843038,-0.217901,0.000000,0.000000,0.000000,-1,-0.046329,-2.168436,-1.024112,1.934715,1.925939,0.312612
"2019-04-05 12:11:12.568 +0000",1554466272.567719,-1.188996,1.015859,-1.186870,-0.488951,-0.849933,-0.196315,0.000000,0.000000,0.000000,-1,-0.470697,-2.766981,-0.578951,1.010039,1.221210,-0.006841
"2019-04-05 12:11:12.588 +0000",1554466272.587703,-1.199139,1.017143,-1.215847,-0.489900,-0.850609,-0.190949,0.000000,0.000000,0.000000,-1,-1.049324,-0.947106,-0.029991,0.242784,0.081551,0.084061
"2019-04-05 12:11:12.608 +0000",1554466272.607687,-1.185160,1.008198,-1.249830,-0.494214,-0.845872,-0.200632,0.000000,0.000000,0.000000,-1,-0.699724,-0.821486,0.039511,0.161221,-0.528838,0.008967
"2019-04-05 12:11:12.628 +0000",1554466272.627672,-1.205017,1.007550,-1.255437,-0.498612,-0.845526,-0.190976,0.000000,0.000000,0.000000,-1,0.395661,-1.555368,-0.079799,0.054139,-0.456049,0.456860
"2019-04-05 12:11:12.648 +0000",1554466272.647624,-1.240989,1.014210,-1.247701,-0.499818,-0.849064,-0.171093,0.000000,0.000000,0.000000,-1,-0.455640,-0.939002,-0.277522,0.327196,0.425052,0.010235
"2019-04-05 12:11:12.668 +0000",1554466272.667608,-1.179310,1.006488,-1.309550,-0.494368,-0.844959,-0.204072,0.000000,0.000000,0.000000,-1,-2.085352,1.471422,-0.624398,0.635893,-0.615750,1.564790
"2019-04-05 12:11:12.688 +0000",1554466272.687616,-1.169743,1.043585,-1.350590,-0.463202,-0.864214,-0.196414,0.000000,0.000000,0.000000,-1,1.304829,-4.415593,-2.748362,0.897345,-1.052672,0.159320
"2019-04-05 12:11:12.708 +0000",1554466272.707600,-1.268961,1.093822,-1.317465,-0.438339,-0.888388,-0.136476,0.000000,0.000000,0.000000,-1,1.671217,-2.778884,-0.903278,-0.495697,0.102515,-0.710265
"2019-04-05 12:11:12.728 +0000",1554466272.727583,-1.371921,1.111930,-1.252952,-0.434202,-0.896555,-0.087509,0.000000,0.000000,0.000000,-1,1.864086,-2.475990,-0.273228,-1.052004,-0.355337,-0.624298
"2019-04-05 12:11:12.748 +0000",1554466272.747568,-1.535609,1.128469,-1.137415,-0.427780,-0.903758,-0.015058,0.000000,0.000000,0.000000,-1,3.523172,-2.872417,-0.631374,-1.071549,-0.330739,-0.553438
"2019-04-05 12:11:12.768 +0000",1554466272.767552,-1.741990,1.141651,-0.947578,-0.410011,-0.909322,0.070885,0.000000,0.000000,0.000000,-1,3.779470,-0.770088,-1.364360,-0.981026,-0.336177,-0.181511
"2019-04-05 12:11:12.788 +0000",1554466272.787536,-1.901990,1.146160,-0.786319,-0.389600,-0.911189,0.133967,0.000000,0.000000,0.000000,-1,3.226665,-0.801461,-0.707339,-1.217883,-0.517248,-0.789714
"2019-04-05 12:11:12.807 +0000",1554466272.807490,-2.060278,1.146134,-0.624290,-0.363633,-0.911178,0.193716,0.000000,0.000000,0.000000,-1,2.648346,0.008198,-2.022562,0.233979,0.480666,0.210123
"2019-04-05 12:11:12.827 +0000",1554466272.827474,-2.192284,1.161772,-0.459270,-0.323347,-0.917509,0.231567,0.000000,0.000000,0.000000,-1,2.109751,1.683630,-2.583003,1.143095,-0.269121,0.323609
"2019-04-05 12:11:12.847 +0000",1554466272.847458,-2.309909,1.184286,-0.297947,-0.278598,-0.926230,0.253932,0.000000,0.000000,0.000000,-1,0.824570,0.801916,-2.351439,0.569964,-0.915689,0.074636
"2019-04-05 12:11:12.867 +0000",1554466272.867443,-2.343621,1.208320,-0.248069,-0.253866,-0.935021,0.247561,0.000000,0.000000,0.000000,-1,-1.001194,0.628915,-0.579307,-0.343760,0.309610,-0.724383
"2019-04-05 12:11:12.887 +0000",1554466272.887428,-2.274945,1.219499,-0.313444,-0.262272,-0.938927,0.222776,0.000000,0.000000,0.000000,-1,-1.271982,-0.022424,1.047808,-0.652828,1.227318,-0.453107
"2019-04-05 12:11:12.907 +0000",1554466272.907412,-2.189064,1.217686,-0.400178,-0.281802,-0.938302,0.200445,0.000000,0.000000,0.000000,-1,-1.128403,0.328094,0.933293,0.171282,1.275063,0.047480
"2019-04-05 12:11:12.927 +0000",1554466272.927395,-2.085016,1.219131,-0.510942,-0.299915,-0.938800,0.169426,0.000000,0.000000,0.000000,-1,-1.975669,0.007715,0.922129,0.509296,0.607257,-0.114738
"2019-04-05 12:11:12.947 +0000",1554466272.947381,-1.962052,1.218328,-0.627376,-0.319128,-0.938523,0.131648,0.000000,0.000000,0.000000,-1,-1.620387,1.430384,0.946158,0.102026,0.444230,0.157461
"2019-04-05 12:11:12.967 +0000",1554466272.967334,-1.842838,1.204699,-0.724819,-0.344809,-0.933732,0.096187,0.000000,0.000000,0.000000,-1,-1.164282,1.490127,1.542866,-0.114572,0.712067,0.440755
"2019-04-05 12:11:12.987 +0000",1554466272.987319,-1.704650,1.173113,-0.799198,-0.383820,-0.921961,0.051685,0.000000,0.000000,0.000000,-1,-1.196575,5.361375,2.076568,-0.261718,0.284860,1.688580
"2019-04-05 12:11:13.007 +0000",1554466273.007304,-1.520561,1.145176,-0.890765,-0.412365,-0.910783,-0.020733,0.000000,0.000000,0.000000,-1,-2.367203,4.793182,0.600557,-0.555988,-1.350310,0.504635
"2019-04-05 12:11:13.027 +0000",1554466273.027287,-1.318792,1.141372,-1.018034,-0.403197,-0.909206,-0.103814,0.000000,0.000000,0.000000,-1,-2.803617,3.230224,-0.884942,-0.926866,-2.326863,-0.476020
"2019-04-05 12:11:13.047 +0000",1554466273.047272,-1.159427,1.137705,-1.159131,-0.384667,-0.907673,-0.167815,0.000000,0.000000,0.000000,-1,-3.065936,-0.056355,-0.466925,-0.204048,-3.258846,-0.663057
"2019-04-05 12:11:13.067 +0000",1554466273.067257,-1.064539,1.110521,-1.269262,-0.388478,-0.895930,-0.215393,0.000000,0.000000,0.000000,-1,-2.029658,0.143044,0.810153,0.035283,-2.104818,-0.493927
"2019-04-05 12:11:13.087 +0000",1554466273.087240,-1.034612,1.073970,-1.289607,-0.409749,-0.879100,-0.243495,0.000000,0.000000,0.000000,-1,-0.678006,1.022047,1.648889,-0.406383,-0.103688,0.223964
"2019-04-05 12:11:13.107 +0000",1554466273.107194,-1.031669,1.044866,-1.277528,-0.430810,-0.864857,-0.257730,0.000000,0.000000,0.000000,-1,-0.055450,0.736811,0.923962,0.135613,0.693471,0.350503
"2019-04-05 12:11:13.127 +0000",1554466273.127179,-1.048050,1.041036,-1.238362,-0.437841,-0.862928,-0.252290,0.000000,0.000000,0.000000,-1,1.436741,1.402922,0.267500,0.091832,1.560087,1.021760
"2019-04-05 12:11:13.147 +0000",1554466273.147162,-1.051021,1.062999,-1.202875,-0.422034,-0.873818,-0.241515,0.000000,0.000000,0.000000,-1,0.990194,0.820542,-1.134884,0.918265,2.002190,0.831695
"2019-04-05 12:11:13.167 +0000",1554466273.167148,-1.041654,1.086768,-1.217266,-0.401708,-0.885128,-0.234905,0.000000,0.000000,0.000000,-1,-0.428896,-0.807247,-1.079453,1.189595,2.034023,0.294872
"2019-04-05 12:11:13.187 +0000",1554466273.187132,-1.022847,1.093446,-1.261392,-0.392165,-0.888215,-0.239333,0.000000,0.000000,0.000000,-1,-0.908001,-1.263960,-0.524733,0.739806,1.257280,0.181777
"2019-04-05 12:11:13.207 +0000",1554466273.207117,-1.003423,1.086978,-1.306817,-0.392279,-0.885225,-0.249987,0.000000,0.000000,0.000000,-1,-1.204206,-0.919337,-0.071170,0.479605,0.036714,0.194857
"2019-04-05 12:11:13.227 +0000",1554466273.227101,-0.999569,1.070725,-1.348318,-0.403364,-0.877548,-0.259242,0.000000,0.000000,0.000000,-1,-1.194889,-2.173579,0.349226,0.137434,-0.483459,-0.330251
"2019-04-05 12:11:13.247 +0000",1554466273.247055,-1.033815,1.061122,-1.362812,-0.419225,-0.872904,-0.249579,0.000000,0.000000,0.000000,-1,0.172689,-2.808641,-0.100108,0.059087,-0.050665,0.290457
"2019-04-05 12:11:13.267 +0000",1554466273.267041,-1.075424,1.066727,-1.366339,-0.424933,-0.875624,-0.229595,0.000000,0.000000,0.000000,-1,-0.706971,-0.900425,-0.112743,0.129737,0.586577,0.159038
"2019-04-05 12:11:13.287 +0000",1554466273.287025,-0.994904,1.063514,-1.434454,-0.407446,-0.874068,-0.264560,0.000000,0.000000,0.000000,-1,-0.353996,0.310234,-2.109742,0.868918,-0.965547,1.767017
"2019-04-05 12:11:13.307 +0000",1554466273.306978,-1.003960,1.114362,-1.480515,-0.371819,-0.897630,-0.236668,0.000000,0.000000,0.000000,-1,0.900140,-3.203428,-2.441584,0.459740,-0.284469,-0.950863
"2019-04-05 12:11:13.327 +0000",1554466273.326963,-1.082871,1.142103,-1.451705,-0.367175,-0.909510,-0.194870,0.000000,0.000000,0.000000,-1,1.416867,-1.855259,0.160053,-1.220944,-1.617071,-0.587723
"2019-04-05 12:11:13.347 +0000",1554466273.346947,-1.224869,1.146997,-1.345219,-0.386866,-0.911533,-0.139434,0.000000,0.000000,0.000000,-1,2.820438,-3.077108,0.705478,-0.620336,0.031742,-0.220520
"2019-04-05 12:11:13.367 +0000",1554466273.366931,-1.454982,1.169485,-1.160459,-0.388010,-0.920549,-0.045139,0.000000,0.000000,0.000000,-1,4.838953,-2.566290,-0.949169,0.140085,0.253282,-0.185910
"2019-04-05 12:11:13.387 +0000",1554466273.386915,-1.701925,1.184653,-0.933034,-0.373385,-0.926369,0.049244,0.000000,0.000000,0.000000,-1,3.879696,-1.042570,-0.515543,-0.952283,0.031929,-0.636356
"2019-04-05 12:11:13.407 +0000",1554466273.406899,-1.904576,1.176352,-0.734839,-0.363086,-0.923210,0.125901,0.000000,0.000000,0.000000,-1,3.915599,-0.679164,-0.540946,-1.323086,-0.348717,0.083480
"2019-04-05 12:11:13.427 +0000",1554466273.426886,-2.087281,1.160552,-0.536794,-0.346809,-0.917023,0.196954,0.000000,0.000000,0.000000,-1,3.784226,0.898901,-1.458338,-0.209816,0.399918,0.258582
"2019-04-05 12:11:13.447 +0000",1554466273.446869,-2.237350,1.162439,-0.332413,-0.312106,-0.917774,0.245521,0.000000,0.000000,0.000000,-1,3.049999,2.304241,-3.138969,1.232836,-0.509579,0.172417
"2019-04-05 12:11:13.467 +0000",1554466273.466823,-2.392194,1.181329,-0.127426,-0.258648,-0.925111,0.277975,0.000000,0.000000,0.000000,-1,0.716858,0.684616,-2.592213,0.648632,-1.026320,0.080362
"2019-04-05 12:11:13.487 +0000",1554466273.486808,-2.424817,1.205098,-0.076580,-0.234928,-0.933874,0.269605,0.000000,0.000000,0.000000,-1,-0.872350,0.980800,-0.090477,-0.536648,0.672049,-0.934827
"2019-04-05 12:11:13.507 +0000",1554466273.506792,-2.335284,1.208114,-0.161686,-0.256061,-0.934949,0.245570,0.000000,0.000000,0.000000,-1,-1.525612,0.013189,1.690927,-0.700116,0.568432,-0.251734
"2019-04-05 12:11:13.527 +0000",1554466273.526776,-2.217864,1.200994,-0.278776,-0.288370,-0.932399,0.217889,0.000000,0.000000,0.000000,-1,-1.259541,1.044561,1.313427,0.261224,1.032313,0.250831
"2019-04-05 12:11:13.547 +0000",1554466273.546760,-2.087471,1.199966,-0.402133,-0.315085,-0.932027,0.179017,0.000000,0.000000,0.000000,-1,-2.202170,0.628269,1.223350,0.433372,0.586019,-0.069627
"2019-04-05 12:11:13.567 +0000",1554466273.566746,-1.934738,1.195630,-0.537571,-0.342427,-0.930447,0.130434,0.000000,0.000000,0.000000,-1,-1.936928,1.813319,1.261384,0.317662,0.327724,0.147825
"2019-04-05 12:11:13.587 +0000",1554466273.586731,-1.791224,1.181823,-0.654811,-0.370063,-0.925299,0.082920,0.000000,0.000000,0.000000,-1,-2.045971,2.754574,1.470048,0.131064,0.476416,0.836453
"2019-04-05 12:11:13.607 +0000",1554466273.606715,-1.594683,1.155141,-0.774254,-0.403675,-0.914852,0.009644,0.000000,0.000000,0.000000,-1,-2.395089,4.450491,1.591475,-0.173779,-0.605336,1.348892
"2019-04-05 12:11:13.627 +0000",1554466273.626658,-1.403201,1.128575,-0.921107,-0.421952,-0.903803,-0.071387,0.000000,0.000000,0.000000,-1,-3.893716,1.202116,0.378361,-0.513396,-1.432531,-0.118234
"2019-04-05 12:11:13.647 +0000",1554466273.646644,-1.242262,1.113214,-1.097097,-0.418152,-0.897123,-0.142543,0.000000,0.000000,0.000000,-1,-3.488938,-0.208588,-0.547395,0.175278,-2.790636,-1.046925
"2019-04-05 12:11:13.667 +0000",1554466273.666633,-1.133171,1.099826,-1.231314,-0.410990,-0.891128,-0.192295,0.000000,0.000000,0.000000,-1,-2.744191,-0.891935,-0.122641,-0.241415,-2.955154,-0.498226
"2019-04-05 12:11:13.687 +0000",1554466273.686602,-1.077995,1.071334,-1.308803,-0.421963,-0.877840,-0.226591,0.000000,0.000000,0.000000,-1,-1.692217,-0.366425,1.125396,-0.645633,-0.887449,-0.137591
"2019-04-05 12:11:13.707 +0000",1554466273.706585,-1.075365,1.036465,-1.314654,-0.448034,-0.860609,-0.242111,0.000000,0.000000,0.000000,-1,-0.397487,-0.499061,1.495576,-0.269999,0.160124,0.502838
"2019-04-05 12:11:13.727 +0000",1554466273.726568,-1.115513,1.016077,-1.285501,-0.473053,-0.850048,-0.231601,0.000000,0.000000,0.000000,-1,0.694775,-0.931462,1.094277,0.285889,1.103481,0.365390
"2019-04-05 12:11:13.747 +0000",1554466273.746555,-1.162779,1.007223,-1.245392,-0.490356,-0.845352,-0.211969,0.000000,0.000000,0.000000,-1,0.605118,-0.279580,0.207873,0.588440,1.678024,0.466470
"2019-04-05 12:11:13.767 +0000",1554466273.766540,-1.166476,1.021724,-1.243294,-0.479816,-0.853009,-0.205311,0.000000,0.000000,0.000000,-1,0.073627,-0.112736,-1.345401,1.631412,2.141903,0.717472
"2019-04-05 12:11:13.786 +0000",1554466273.786493,-1.148000,1.044543,-1.271304,-0.458068,-0.864695,-0.206098,0.000000,0.000000,0.000000,-1,-0.459457,-0.189054,-1.041296,1.138991,1.524546,0.440077
"2019-04-05 12:11:13.806 +0000",1554466273.806476,-1.120825,1.049731,-1.305614,-0.448252,-0.867290,-0.216515,0.000000,0.000000,0.000000,-1,-0.937586,-0.159554,-0.052152,0.465144,0.937068,0.002648
"2019-04-05 12:11:13.826 +0000",1554466273.826462,-1.103242,1.035373,-1.335924,-0.455446,-0.860053,-0.229952,0.000000,0.000000,0.000000,-1,-0.857909,-0.854215,0.520419,-0.203947,0.126609,0.017580
"2019-04-05 12:11:13.846 +0000",1554466273.846446,-1.120379,1.022123,-1.341766,-0.469539,-0.853217,-0.227055,0.000000,0.000000,0.000000,-1,0.052604,-1.067864,0.465270,-0.087255,-0.172891,0.299519
"2019-04-05 12:11:13.866 +0000",1554466273.866431,-1.172674,1.024564,-1.311980,-0.478843,-0.854488,-0.201393,0.000000,0.000000,0.000000,-1,1.228777,-1.898951,-0.017765,0.038078,0.032528,-0.054314
"2019-04-05 12:11:13.886 +0000",1554466273.886415,-1.204433,1.026730,-1.294216,-0.483269,-0.855611,-0.185423,0.000000,0.000000,0.000000,-1,-0.361594,0.940069,-0.022770,0.416603,0.225957,0.588301
"2019-04-05 12:11:13.906 +0000",1554466273.906400,-1.124591,1.071467,-1.344223,-0.431954,-0.877904,-0.206640,0.000000,0.000000,0.000000,-1,0.216897,-1.023823,-5.231732,2.019402,-0.953273,1.402639
"2019-04-05 12:11:13.926 +0000",1554466273.926385,-1.162609,1.153063,-1.376771,-0.372359,-0.914011,-0.161037,0.000000,0.000000,0.000000,-1,2.119117,-3.289066,-1.930295,0.127456,-1.525168,-1.482960
"2019-04-05 12:11:13.946 +0000",1554466273.946340,-1.311408,1.180496,-1.267686,-0.367739,-0.924795,-0.097586,0.000000,0.000000,0.000000,-1,2.887407,-1.233553,0.223379,-1.637480,-1.257426,-0.588251
"2019-04-05 12:11:13.966 +0000",1554466273.966324,-1.491717,1.186986,-1.108181,-0.373286,-0.927245,-0.029581,0.000000,0.000000,0.000000,-1,3.581957,-2.098450,-0.153627,-0.893758,-0.206957,-0.888754
"2019-04-05 12:11:13.986 +0000",1554466273.986308,-1.732497,1.192191,-0.894626,-0.364804,-0.929181,0.059508,0.000000,0.000000,0.000000,-1,3.804159,-1.868583,-0.630882,-0.868778,-0.123599,-0.212676
"2019-04-05 12:11:14.006 +0000",1554466274.006293,-1.950256,1.188156,-0.688453,-0.346811,-0.927682,0.138304,0.000000,0.000000,0.000000,-1,3.578760,-1.174787,-0.942729,-0.891012,-0.286200,-0.498243
"2019-04-05 12:11:14.026 +0000",1554466274.026279,-2.149010,1.180623,-0.497529,-0.318519,-0.924843,0.207872,0.000000,0.000000,0.000000,-1,3.174957,-0.614580,-2.191187,0.123390,-0.320869,-0.332337
"2019-04-05 12:11:14.046 +0000",1554466274.046264,-2.315469,1.187184,-0.300912,-0.275206,-0.927319,0.253656,0.000000,0.000000,0.000000,-1,2.634088,1.658841,-2.596364,1.741820,-0.089115,0.558813
"2019-04-05 12:11:14.066 +0000",1554466274.066250,-2.445793,1.186902,-0.135958,-0.240076,-0.927213,0.287470,0.000000,0.000000,0.000000,-1,0.810205,0.292007,-1.111258,0.365106,-0.279116,-0.028895
"2019-04-05 12:11:14.086 +0000",1554466274.086234,-2.432359,1.190262,-0.142673,-0.241886,-0.928466,0.281854,0.000000,0.000000,0.000000,-1,-0.857983,0.577320,0.872163,-0.423901,0.559829,-0.905892
"2019-04-05 12:11:14.106 +0000",1554466274.106219,-2.333640,1.196241,-0.234199,-0.264470,-0.930670,0.252801,0.000000,0.000000,0.000000,-1,-1.855933,0.684408,0.875272,-0.617503,0.614569,-0.340142
"2019-04-05 12:11:14.126 +0000",1554466274.126202,-2.229281,1.207645,-0.335421,-0.280952,-0.934782,0.217367,0.000000,0.000000,0.000000,-1,-1.749304,0.363526,0.828335,0.227943,0.925093,0.042918
"2019-04-05 12:11:14.146 +0000",1554466274.146187,-2.100053,1.216544,-0.469863,-0.299429,-0.937906,0.175142,0.000000,0.000000,0.000000,-1,-2.438796,0.129492,1.014880,0.214209,0.773889,0.086913
"2019-04-05 12:11:14.166 +0000",1554466274.166173,-1.927176,1.213627,-0.641814,-0.327655,-0.936890,0.121978,0.000000,0.000000,0.000000,-1,-2.689142,1.084867,1.619222,0.251544,0.749848,0.234239
"2019-04-05 12:11:14.186 +0000",1554466274.186156,-1.755732,1.195614,-0.802286,-0.360194,-0.930441,0.067382,0.000000,0.000000,0.000000,-1,-2.288691,0.551826,1.743950,0.297572,0.644918,0.308594
"2019-04-05 12:11:14.206 +0000",1554466274.206141,-1.629459,1.160701,-0.915312,-0.398011,-0.917083,0.023375,0.000000,0.000000,0.000000,-1,-1.633975,2.477641,2.266514,0.036973,0.086791,1.165651
"2019-04-05 12:11:14.226 +0000",1554466274.226094,-1.474349,1.115152,-1.019647,-0.437996,-0.897978,-0.042375,0.000000,0.000000,0.000000,-1,-3.227563,2.448427,1.895069,-0.216987,-0.586687,0.506105
"2019-04-05 12:11:14.246 +0000",1554466274.246079,-1.284684,1.083725,-1.166945,-0.449013,-0.883707,-0.132093,0.000000,0.000000,0.000000,-1,-3.146580,3.501483,-0.111277,-0.879631,-2.383382,-0.576587
"2019-04-05 12:11:14.266 +0000",1554466274.266064,-1.125925,1.074934,-1.279422,-0.429480,-0.879559,-0.204753,0.000000,0.000000,0.000000,-1,-2.204758,2.179078,-0.809149,-0.927255,-3.059727,-0.545827
"2019-04-05 12:11:14.286 +0000",1554466274.286049,-1.042309,1.064246,-1.353723,-0.418973,-0.874423,-0.244633,0.000000,0.000000,0.000000,-1,-1.286253,0.422682,0.223312,-0.603320,-2.412793,-0.711544
"2019-04-05 12:11:14.306 +0000",1554466274.306033,-1.023922,1.037474,-1.370104,-0.434249,-0.861123,-0.264377,0.000000,0.000000,0.000000,-1,-0.727463,0.259890,1.372530,-0.304993,0.028146,-0.273130
"2019-04-05 12:11:14.326 +0000",1554466274.326019,-1.043621,1.008074,-1.350797,-0.461059,-0.845806,-0.268396,0.000000,0.000000,0.000000,-1,0.131676,-0.719904,1.596422,0.200912,0.457683,0.329736
"2019-04-05 12:11:14.346 +0000",1554466274.346003,-1.101252,0.987625,-1.303006,-0.491077,-0.834720,-0.249169,0.000000,0.000000,0.000000,-1,1.008316,-0.731130,1.343094,0.256672,1.320377,0.508782
"2019-04-05 12:11:14.366 +0000",1554466274.365987,-1.136008,0.990256,-1.263838,-0.497445,-0.836166,-0.231028,0.000000,0.000000,0.000000,-1,0.909003,0.148243,-0.763069,1.141824,1.878998,0.848033
"2019-04-05 12:11:14.386 +0000",1554466274.385942,-1.144217,1.018218,-1.263841,-0.477847,-0.851174,-0.217175,0.000000,0.000000,0.000000,-1,0.101398,-1.042199,-1.499810,1.757159,2.079735,0.685132
"2019-04-05 12:11:14.406 +0000",1554466274.405927,-1.146695,1.040865,-1.290371,-0.460694,-0.862842,-0.208004,0.000000,0.000000,0.000000,-1,-0.246513,-1.328449,-0.939247,1.122895,1.471652,0.109630
"2019-04-05 12:11:14.426 +0000",1554466274.425912,-1.146282,1.048010,-1.311639,-0.454978,-0.866431,-0.205649,0.000000,0.000000,0.000000,-1,-0.624993,-0.531721,-0.145892,0.471473,0.669074,0.074164
"2019-04-05 12:11:14.446 +0000",1554466274.445897,-1.137824,1.036257,-1.337524,-0.462434,-0.860503,-0.213748,0.000000,0.000000,0.000000,-1,-0.638122,-0.998186,0.568922,-0.157622,-0.123246,-0.118192
"2019-04-05 12:11:14.466 +0000",1554466274.465882,-1.167246,1.024581,-1.328304,-0.477730,-0.854497,-0.203983,0.000000,0.000000,0.000000,-1,0.512101,-1.097860,0.628421,-0.332527,-0.173122,0.571278
"2019-04-05 12:11:14.486 +0000",1554466274.485866,-1.235312,1.022610,-1.285321,-0.492087,-0.853471,-0.171573,0.000000,0.000000,0.000000,-1,1.335008,-1.695288,0.289509,0.019751,0.002428,-0.266232
"2019-04-05 12:11:14.506 +0000",1554466274.505851,-1.243662,1.024687,-1.263563,-0.491823,-0.854552,-0.166888,0.000000,0.000000,0.000000,-1,0.177732,3.210693,-0.668069,0.703096,0.029295,1.186527
"2019-04-05 12:11:14.526 +0000",1554466274.525804,-1.193380,1.080057,-1.278455,-0.438110,-0.881985,-0.173675,0.000000,0.000000,0.000000,-1,1.098630,-2.025496,-3.931923,1.516052,-0.588261,-0.144272
"2019-04-05 12:11:14.546 +0000",1554466274.545789,-1.284652,1.148115,-1.242746,-0.393528,-0.911992,-0.115783,0.000000,0.000000,0.000000,-1,2.497380,-2.634667,-1.516767,-0.384441,-0.735911,-0.875794
"2019-04-05 12:11:14.566 +0000",1554466274.565773,-1.435162,1.169952,-1.120299,-0.386613,-0.920732,-0.052762,0.000000,0.000000,0.000000,-1,2.864521,-1.667322,0.239238,-1.695571,-1.189772,-0.502460
"2019-04-05 12:11:14.586 +0000",1554466274.585758,-1.648106,1.165356,-0.939924,-0.393246,-0.918929,0.030462,0.000000,0.000000,0.000000,-1,4.258023,-2.887300,0.239752,-1.355641,-0.217348,-0.373419
"2019-04-05 12:11:14.606 +0000",1554466274.605744,-1.918062,1.157969,-0.700757,-0.377252,-0.915990,0.136540,0.000000,0.000000,0.000000,-1,4.098297,-1.406540,-1.358986,-0.744666,0.087606,-0.218968
"2019-04-05 12:11:14.626 +0000",1554466274.625729,-2.105772,1.153074,-0.530933,-0.348999,-0.914015,0.206824,0.000000,0.000000,0.000000,-1,3.081923,-1.671425,-1.395469,-0.345291,-0.819734,-1.043600
"2019-04-05 12:11:14.646 +0000",1554466274.645714,-2.282821,1.149329,-0.359083,-0.309705,-0.912490,0.267293,0.000000,0.000000,0.000000,-1,2.914145,0.159233,-2.351521,0.558881,0.238646,-0.006795
"2019-04-05 12:11:14.666 +0000",1554466274.665699,-2.420603,1.147965,-0.178815,-0.270880,-0.911931,0.308231,0.000000,0.000000,0.000000,-1,2.724753,1.625770,-2.546684,1.133764,-0.380443,0.453121
"2019-04-05 12:11:14.686 +0000",1554466274.685661,-2.542118,1.149474,-0.011460,-0.230743,-0.912549,0.337657,0.000000,0.000000,0.000000,-1,0.594937,1.132629,-1.914932,0.005173,-0.385470,-0.248988
"2019-04-05 12:11:14.706 +0000",1554466274.705645,-2.533071,1.166572,-0.012026,-0.224835,-0.919408,0.322705,0.000000,0.000000,0.000000,-1,-1.283197,0.469570,0.230952,-0.642291,0.279393,-1.109143
"2019-04-05 12:11:14.726 +0000",1554466274.725631,-2.451285,1.178591,-0.080231,-0.243392,-0.924068,0.294716,0.000000,0.000000,0.000000,-1,-1.464137,0.975254,1.063566,-0.148743,1.369946,0.037636
"2019-04-05 12:11:14.746 +0000",1554466274.745615,-2.351937,1.189457,-0.172709,-0.264278,-0.928167,0.262037,0.000000,0.000000,0.000000,-1,-1.785012,0.538246,0.664318,0.441524,0.846929,-0.039457
"2019-04-05 12:11:14.766 +0000",1554466274.765600,-2.243552,1.209578,-0.282683,-0.276408,-0.935467,0.220228,0.000000,0.000000,0.000000,-1,-2.382184,0.268867,0.591273,0.823680,0.529339,-0.129987
"2019-04-05 12:11:14.786 +0000",1554466274.785585,-2.103458,1.222270,-0.416411,-0.294200,-0.939877,0.173430,0.000000,0.000000,0.000000,-1,-2.206252,0.909604,1.172471,0.532511,0.480175,0.109208
"2019-04-05 12:11:14.806 +0000",1554466274.805569,-1.936473,1.216883,-0.582439,-0.323656,-0.938024,0.123927,0.000000,0.000000,0.000000,-1,-2.811183,0.990186,1.870543,0.091066,0.469152,0.550191
"2019-04-05 12:11:14.826 +0000",1554466274.825553,-1.717311,1.177158,-0.769218,-0.379442,-0.923520,0.055995,0.000000,0.000000,0.000000,-1,-2.782372,2.694035,3.353481,-0.676420,-0.756641,1.319722
"2019-04-05 12:11:14.846 +0000",1554466274.845509,-1.513147,1.139183,-0.951735,-0.417642,-0.908292,-0.024104,0.000000,0.000000,0.000000,-1,-4.293374,1.331302,0.449763,-0.381187,-1.777026,0.070078
"2019-04-05 12:11:14.865 +0000",1554466274.865494,-1.317977,1.133741,-1.143197,-0.409818,-0.906002,-0.105875,0.000000,0.000000,0.000000,-1,-3.394187,1.059547,-0.755110,-0.286150,-2.305088,-0.232214
"2019-04-05 12:11:14.885 +0000",1554466274.885479,-1.175958,1.129635,-1.279239,-0.394137,-0.904256,-0.164246,0.000000,0.000000,0.000000,-1,-2.434611,0.494274,-0.577867,-0.859113,-2.172740,-0.337585
"2019-04-05 12:11:14.905 +0000",1554466274.905464,-1.085992,1.108167,-1.368958,-0.394873,-0.894882,-0.207993,0.000000,0.000000,0.000000,-1,-1.941283,0.335924,0.869876,-0.791314,-1.369049,-0.481903
"2019-04-05 12:11:14.925 +0000",1554466274.925449,-1.055947,1.071723,-1.397975,-0.416568,-0.878026,-0.235671,0.000000,0.000000,0.000000,-1,-0.773643,0.057385,1.336004,-0.526212,0.050649,0.030775
"2019-04-05 12:11:14.945 +0000",1554466274.945435,-1.074067,1.052244,-1.372213,-0.435726,-0.868537,-0.236191,0.000000,0.000000,0.000000,-1,0.815517,0.153407,1.008655,0.015865,0.494422,0.567749
"2019-04-05 12:11:14.965 +0000",1554466274.965419,-1.118117,1.046983,-1.314939,-0.449806,-0.865918,-0.218769,0.000000,0.000000,0.000000,-1,1.250751,0.865960,0.509330,0.121514,1.176419,0.459797
"2019-04-05 12:11:14.985 +0000",1554466274.985403,-1.125758,1.060227,-1.280677,-0.441074,-0.872466,-0.210371,0.000000,0.000000,0.000000,-1,0.792134,0.784498,-0.919021,1.269504,1.951187,0.622312
"2019-04-05 12:11:15.005 +0000",1554466275.005358,-1.115258,1.084930,-1.296259,-0.419355,-0.884271,-0.205443,0.000000,0.000000,0.000000,-1,-0.361992,-1.135691,-1.350771,1.686231,2.368264,0.371108
"2019-04-05 12:11:15.025 +0000",1554466275.025343,-1.117092,1.100161,-1.338741,-0.407577,-0.891280,-0.198747,0.000000,0.000000,0.000000,-1,-0.602777,-2.375897,-0.820205,0.962875,1.774307,-0.085493
"2019-04-05 12:11:15.045 +0000",1554466275.045328,-1.132384,1.101268,-1.369426,-0.409675,-0.891782,-0.192073,0.000000,0.000000,0.000000,-1,-0.641151,-2.193145,0.169437,0.257743,0.505490,0.371577
"2019-04-05 12:11:15.065 +0000",1554466275.065313,-1.149365,1.089952,-1.392592,-0.422059,-0.886604,-0.189205,0.000000,0.000000,0.000000,-1,-0.831786,-1.247667,0.210800,-0.188506,-0.511925,-0.149296
"2019-04-05 12:11:15.085 +0000",1554466275.085298,-1.142985,1.082205,-1.414093,-0.427080,-0.882995,-0.194738,0.000000,0.000000,0.000000,-1,-0.438410,0.088637,0.201076,-0.295378,-0.562135,0.224691
"2019-04-05 12:11:15.105 +0000",1554466275.105282,-1.061394,1.075171,-1.465335,-0.415200,-0.879672,-0.231920,0.000000,0.000000,0.000000,-1,-1.884453,3.886320,-0.791583,0.243813,-0.501264,1.017229
"2019-04-05 12:11:15.125 +0000",1554466275.125266,-1.004411,1.117110,-1.517168,-0.369843,-0.898837,-0.235176,0.000000,0.000000,0.000000,-1,0.765198,-2.894623,-3.122910,1.286698,-1.397580,0.790825
"2019-04-05 12:11:15.145 +0000",1554466275.145252,-1.065717,1.165558,-1.514426,-0.345012,-0.919008,-0.190763,0.000000,0.000000,0.000000,-1,1.611097,-2.505062,-1.118893,-0.384816,0.552538,-0.463809
"2019-04-05 12:11:15.165 +0000",1554466275.165274,-1.177680,1.190551,-1.440385,-0.342837,-0.928574,-0.142175,0.000000,0.000000,0.000000,-1,2.624851,-1.522330,0.079088,-0.599515,-0.735565,-0.424933
"2019-04-05 12:11:15.185 +0000",1554466275.185192,-1.378760,1.204017,-1.273033,-0.352018,-0.933487,-0.068444,0.000000,0.000000,0.000000,-1,3.495436,-3.071331,0.167197,-0.987795,-0.121399,-0.429023
"2019-04-05 12:11:15.205 +0000",1554466275.205178,-1.635343,1.209397,-1.054239,-0.352847,-0.935403,0.022807,0.000000,0.000000,0.000000,-1,4.072817,-1.350489,-0.092186,-0.922864,-0.582190,-0.317790
"2019-04-05 12:11:15.225 +0000",1554466275.225162,-1.851965,1.201041,-0.837669,-0.347196,-0.932416,0.100277,0.000000,0.000000,0.000000,-1,3.500061,-0.442372,-0.568067,-1.003085,0.011228,-0.509854
"2019-04-05 12:11:15.245 +0000",1554466275.245147,-2.042526,1.194524,-0.634579,-0.327325,-0.930041,0.166983,0.000000,0.000000,0.000000,-1,3.533949,0.154959,-1.726395,-0.822700,-0.338575,0.041040
"2019-04-05 12:11:15.265 +0000",1554466275.265131,-2.247382,1.200344,-0.398859,-0.282286,-0.932164,0.226684,0.000000,0.000000,0.000000,-1,3.031838,1.745712,-3.238858,0.774016,0.498036,-0.154434
"2019-04-05 12:11:15.285 +0000",1554466275.285117,-2.436176,1.208163,-0.147201,-0.229994,-0.934966,0.270076,0.000000,0.000000,0.000000,-1,2.986525,2.362662,-3.586239,1.172896,-0.280427,0.264515
"2019-04-05 12:11:15.305 +0000",1554466275.305070,-2.579759,1.215981,0.035962,-0.185083,-0.937711,0.294012,0.000000,0.000000,0.000000,-1,-0.088347,0.702534,-1.628070,0.069055,-0.590060,-0.368399
"2019-04-05 12:11:15.325 +0000",1554466275.325055,-2.544365,1.235331,0.015178,-0.185131,-0.944257,0.272222,0.000000,0.000000,0.000000,-1,-1.409816,0.533849,0.780028,-0.742450,0.865141,-0.662679
"2019-04-05 12:11:15.345 +0000",1554466275.345041,-2.429274,1.248097,-0.095270,-0.207272,-0.948383,0.240018,0.000000,0.000000,0.000000,-1,-1.645898,0.363628,1.164051,-0.116871,0.650226,-0.162214
"2019-04-05 12:11:15.365 +0000",1554466275.365025,-2.306309,1.256416,-0.217102,-0.229288,-0.950988,0.207481,0.000000,0.000000,0.000000,-1,-1.832782,0.219773,1.025651,0.387720,0.988693,0.223565
"2019-04-05 12:11:15.385 +0000",1554466275.385010,-2.144232,1.264487,-0.381422,-0.253308,-0.953453,0.163593,0.000000,0.000000,0.000000,-1,-2.549608,0.431341,1.388122,0.303875,0.673607,-0.104801
"2019-04-05 12:11:15.405 +0000",1554466275.404995,-1.947842,1.259553,-0.570678,-0.284731,-0.951954,0.112751,0.000000,0.000000,0.000000,-1,-2.234481,0.962082,1.665451,0.229052,0.370929,0.276028
"2019-04-05 12:11:15.425 +0000",1554466275.424981,-1.760234,1.233568,-0.733182,-0.324954,-0.943675,0.062306,0.000000,0.000000,0.000000,-1,-2.215453,3.420254,2.600703,-0.036298,0.217571,1.055019
"2019-04-05 12:11:15.445 +0000",1554466275.444967,-1.533269,1.171875,-0.890051,-0.388151,-0.921480,-0.014573,0.000000,0.000000,0.000000,-1,-3.098244,3.450777,3.078706,-0.686800,-0.548078,0.973161
"2019-04-05 12:11:15.465 +0000",1554466275.464920,-1.352841,1.141097,-1.049280,-0.406741,-0.909091,-0.090082,0.000000,0.000000,0.000000,-1,-3.230058,1.045843,-0.273884,-0.256924,-1.756863,-0.605841
"2019-04-05 12:11:15.485 +0000",1554466275.484905,-1.211599,1.145293,-1.180884,-0.386435,-0.910831,-0.145101,0.000000,0.000000,0.000000,-1,-2.160372,1.229219,-1.225510,-0.561776,-3.061199,-0.233896
"2019-04-05 12:11:15.505 +0000",1554466275.504890,-1.090893,1.143132,-1.293211,-0.367896,-0.909937,-0.191486,0.000000,0.000000,0.000000,-1,-2.207259,0.244875,-0.346436,-0.576699,-2.083746,-0.723706
"2019-04-05 12:11:15.525 +0000",1554466275.524875,-1.035976,1.113022,-1.356446,-0.380238,-0.897039,-0.225257,0.000000,0.000000,0.000000,-1,-1.269406,-0.000872,1.595851,-0.695491,-0.637446,-0.359200
"2019-04-05 12:11:15.545 +0000",1554466275.544860,-1.049716,1.075601,-1.334604,-0.412136,-0.879876,-0.236565,0.000000,0.000000,0.000000,-1,0.177112,0.365159,1.868008,-0.199513,0.109246,0.639519
"2019-04-05 12:11:15.565 +0000",1554466275.564845,-1.098489,1.053716,-1.275655,-0.440224,-0.869266,-0.224898,0.000000,0.000000,0.000000,-1,1.216823,0.210969,1.481328,0.366814,1.204227,0.422835
"2019-04-05 12:11:15.585 +0000",1554466275.584829,-1.146425,1.047884,-1.205494,-0.455108,-0.866368,-0.205629,0.000000,0.000000,0.000000,-1,1.538820,0.738923,0.418864,0.675963,1.555577,0.639513
"2019-04-05 12:11:15.605 +0000",1554466275.604815,-1.175503,1.063907,-1.164346,-0.448023,-0.874259,-0.186941,0.000000,0.000000,0.000000,-1,0.688522,-0.498668,-0.883791,1.656473,2.453620,0.675939
"2019-04-05 12:11:15.625 +0000",1554466275.624770,-1.192617,1.083653,-1.169650,-0.435026,-0.883674,-0.172837,0.000000,0.000000,0.000000,-1,-0.136861,-1.549099,-0.833956,1.217940,1.831946,0.095826
"2019-04-05 12:11:15.645 +0000",1554466275.644754,-1.198505,1.090600,-1.197212,-0.430308,-0.886904,-0.168036,0.000000,0.000000,0.000000,-1,-0.722658,-0.963404,-0.267249,0.438471,0.956774,-0.152612
"2019-04-05 12:11:15.665 +0000",1554466275.664739,-1.187105,1.082072,-1.227499,-0.435362,-0.882933,-0.175756,0.000000,0.000000,0.000000,-1,-0.765489,-0.654996,0.496750,-0.092668,-0.161760,0.058263
"2019-04-05 12:11:15.685 +0000",1554466275.684738,-1.188420,1.070324,-1.233368,-0.445186,-0.877356,-0.179041,0.000000,0.000000,0.000000,-1,0.079953,-0.060733,0.450637,-0.051091,-0.442026,0.243143
"2019-04-05 12:11:15.705 +0000",1554466275.704723,-1.221447,1.066770,-1.203652,-0.453783,-0.875645,-0.165309,0.000000,0.000000,0.000000,-1,0.868454,-0.766713,0.404146,0.132295,-0.018093,0.128993
"2019-04-05 12:11:15.725 +0000",1554466275.724708,-1.222493,1.062194,-1.192518,-0.457717,-0.873426,-0.166200,0.000000,0.000000,0.000000,-1,-0.893065,2.610449,0.046193,0.492324,0.430372,0.198823
"2019-04-05 12:11:15.745 +0000",1554466275.744693,-1.120929,1.080714,-1.249412,-0.423866,-0.882294,-0.204682,0.000000,0.000000,0.000000,-1,0.378488,0.604664,-2.919345,1.275322,-0.320037,1.142639
"2019-04-05 12:11:15.765 +0000",1554466275.764647,-1.163163,1.137773,-1.238724,-0.385234,-0.907701,-0.166352,0.000000,0.000000,0.000000,-1,2.445339,-2.077293,-1.613951,0.216457,-0.744780,-0.281997
"2019-04-05 12:11:15.785 +0000",1554466275.784633,-1.294980,1.170891,-1.137390,-0.374616,-0.921098,-0.106027,0.000000,0.000000,0.000000,-1,2.436760,-1.343374,-0.283431,-1.452395,-1.619597,-0.856238
"2019-04-05 12:11:15.805 +0000",1554466275.804617,-1.447495,1.171490,-1.012319,-0.385827,-0.921331,-0.047816,0.000000,0.000000,0.000000,-1,2.378450,-2.927675,0.762270,-1.162452,-0.771128,-0.799627
"2019-04-05 12:11:15.825 +0000",1554466275.824602,-1.664843,1.167259,-0.853173,-0.390940,-0.919678,0.036875,0.000000,0.000000,0.000000,-1,3.838786,-3.372415,-0.528392,-0.425741,-0.109741,-0.205302
"2019-04-05 12:11:15.845 +0000",1554466275.844587,-1.900367,1.169395,-0.645177,-0.369681,-0.920514,0.126448,0.000000,0.000000,0.000000,-1,3.144648,-1.591418,-1.146991,-0.430840,0.079023,-0.240767
"2019-04-05 12:11:15.865 +0000",1554466275.864573,-2.072521,1.169034,-0.482540,-0.342847,-0.920373,0.188066,0.000000,0.000000,0.000000,-1,2.971821,-0.394619,-1.511497,-0.928256,-0.796195,-0.276949
"2019-04-05 12:11:15.885 +0000",1554466275.884557,-2.236939,1.174861,-0.289700,-0.303219,-0.922636,0.238329,0.000000,0.000000,0.000000,-1,2.927087,1.820427,-3.088567,0.900479,0.427580,0.270735
"2019-04-05 12:11:15.905 +0000",1554466275.904543,-2.401190,1.188417,-0.071074,-0.251708,-0.927779,0.275443,0.000000,0.000000,0.000000,-1,1.852994,1.022672,-3.128191,1.351714,-0.260392,0.448830
"2019-04-05 12:11:15.924 +0000",1554466275.924498,-2.508395,1.211117,0.050353,-0.208272,-0.936010,0.283740,0.000000,0.000000,0.000000,-1,-0.944182,-0.348884,-1.410743,0.028463,-0.131693,-0.696078
"2019-04-05 12:11:15.944 +0000",1554466275.944483,-2.465823,1.240566,-0.004602,-0.202824,-0.945968,0.252997,0.000000,0.000000,0.000000,-1,-2.130631,-0.353653,0.692890,-0.661800,0.491866,-0.948508
"2019-04-05 12:11:15.964 +0000",1554466275.964468,-2.344253,1.254080,-0.138887,-0.222841,-0.950263,0.217582,0.000000,0.000000,0.000000,-1,-1.633924,-0.148913,1.430794,-0.085112,0.658088,-0.120521
"2019-04-05 12:11:15.984 +0000",1554466275.984454,-2.218304,1.254893,-0.273621,-0.247791,-0.950516,0.187399,0.000000,0.000000,0.000000,-1,-1.738972,-0.083974,1.169026,0.348591,1.039048,0.218439
"2019-04-05 12:11:16.004 +0000",1554466276.004439,-2.069836,1.251182,-0.417073,-0.275882,-0.949357,0.150371,0.000000,0.000000,0.000000,-1,-1.878364,1.273016,1.497852,0.341434,0.861970,0.125264
"2019-04-05 12:11:16.024 +0000",1554466276.024424,-1.886745,1.237171,-0.567978,-0.311262,-0.944861,0.101751,0.000000,0.000000,0.000000,-1,-1.964714,2.399703,1.696580,0.278638,0.582984,0.214792
"2019-04-05 12:11:16.044 +0000",1554466276.044409,-1.719968,1.212323,-0.699673,-0.346949,-0.936434,0.052142,0.000000,0.000000,0.000000,-1,-1.964796,2.553203,1.749326,0.193171,0.551531,0.677152
"2019-04-05 12:11:16.064 +0000",1554466276.064395,-1.524912,1.179606,-0.829574,-0.380887,-0.924456,-0.017489,0.000000,0.000000,0.000000,-1,-2.424907,3.890094,2.054314,-0.251422,-0.058302,1.249362
"2019-04-05 12:11:16.084 +0000",1554466276.084348,-1.351273,1.142481,-0.966676,-0.405371,-0.909667,-0.090446,0.000000,0.000000,0.000000,-1,-3.384127,0.915002,0.119145,-0.903848,-2.423921,-0.423485
"2019-04-05 12:11:16.104 +0000",1554466276.104318,-1.202242,1.144636,-1.124288,-0.385619,-0.910560,-0.148927,0.000000,0.000000,0.000000,-1,-2.640507,0.486281,-1.852893,-0.140000,-2.417825,-0.572829
"2019-04-05 12:11:16.124 +0000",1554466276.124305,-1.069203,1.158958,-1.264083,-0.350986,-0.916386,-0.192471,0.000000,0.000000,0.000000,-1,-1.981780,-0.257782,-1.447957,-0.716351,-2.228984,-0.508289
"2019-04-05 12:11:16.144 +0000",1554466276.144295,-0.980377,1.157180,-1.364027,-0.333880,-0.915673,-0.223754,0.000000,0.000000,0.000000,-1,-1.291367,0.392651,-0.115021,-0.182721,-0.487769,-0.456437
"2019-04-05 12:11:16.164 +0000",1554466276.164283,-0.954874,1.140617,-1.378405,-0.340400,-0.908891,-0.240925,0.000000,0.000000,0.000000,-1,-0.412528,0.095409,1.038452,-0.504144,-0.265578,0.258656
"2019-04-05 12:11:16.184 +0000",1554466276.184273,-1.001505,1.119141,-1.341151,-0.367619,-0.899726,-0.235265,0.000000,0.000000,0.000000,-1,0.483802,-1.207178,1.595186,-0.233379,0.674247,0.358388
"2019-04-05 12:11:16.204 +0000",1554466276.204261,-1.079626,1.102790,-1.276440,-0.397778,-0.892469,-0.212769,0.000000,0.000000,0.000000,-1,1.051849,-0.729247,0.930760,0.091672,1.306242,0.565323
"2019-04-05 12:11:16.226 +0000",1554466276.226199,-1.128492,1.115570,-1.228590,-0.397356,-0.898162,-0.188187,0.000000,0.000000,0.000000,-1,0.774320,-0.157686,-0.944754,1.254762,2.048613,0.786408
"2019-04-05 12:11:16.246 +0000",1554466276.246184,-1.123745,1.141100,-1.239615,-0.375654,-0.909092,-0.180098,0.000000,0.000000,0.000000,-1,-0.022332,-0.414337,-1.351956,1.123289,1.434041,0.301954
"2019-04-05 12:11:16.266 +0000",1554466276.266168,-1.098310,1.157893,-1.276685,-0.357307,-0.915960,-0.182619,0.000000,0.000000,0.000000,-1,-0.644629,-0.453110,-0.642654,0.432288,0.852407,-0.074339
"2019-04-05 12:11:16.286 +0000",1554466276.286152,-1.083650,1.153203,-1.315692,-0.358384,-0.914068,-0.189846,0.000000,0.000000,0.000000,-1,-0.859232,-1.637691,0.334760,0.017029,0.272787,-0.136524
"2019-04-05 12:11:16.306 +0000",1554466276.306138,-1.104530,1.138448,-1.329898,-0.374277,-0.907984,-0.188365,0.000000,0.000000,0.000000,-1,-0.195623,-1.562282,0.487775,0.124842,-0.130499,-0.034444
"2019-04-05 12:11:16.326 +0000",1554466276.326125,-1.147349,1.132310,-1.311055,-0.387071,-0.905395,-0.174458,0.000000,0.000000,0.000000,-1,0.079631,-0.770551,0.455637,0.336778,0.341537,0.330144
"2019-04-05 12:11:16.346 +0000",1554466276.346078,-1.091694,1.123233,-1.363133,-0.384044,-0.901504,-0.199500,0.000000,0.000000,0.000000,-1,-2.266792,0.922482,-0.865176,0.872539,0.045379,1.086722
"2019-04-05 12:11:16.366 +0000",1554466276.366063,-1.050739,1.159502,-1.429767,-0.346939,-0.916604,-0.198671,0.000000,0.000000,0.000000,-1,0.759341,-3.633157,-2.967161,0.921097,-2.129859,0.025880
"2019-04-05 12:11:16.386 +0000",1554466276.386049,-1.131115,1.210824,-1.418927,-0.318745,-0.935906,-0.149935,0.000000,0.000000,0.000000,-1,2.075765,-1.813708,-1.314873,-0.395931,0.560159,-0.721708
"2019-04-05 12:11:16.406 +0000",1554466276.406034,-1.266927,1.238186,-1.285200,-0.311552,-0.945193,-0.097697,0.000000,0.000000,0.000000,-1,3.152747,0.004667,0.071027,-1.190629,-0.900373,-0.165654
"2019-04-05 12:11:16.426 +0000",1554466276.426019,-1.465282,1.253810,-1.086543,-0.309971,-0.950179,-0.032828,0.000000,0.000000,0.000000,-1,3.796342,-0.907105,-0.318735,-0.959454,-0.840577,-0.760125
"2019-04-05 12:11:16.446 +0000",1554466276.446004,-1.749813,1.253636,-0.806223,-0.306886,-0.950125,0.055532,0.000000,0.000000,0.000000,-1,4.473090,-0.558796,-0.035450,-0.825576,-0.648249,-0.375402
"2019-04-05 12:11:16.466 +0000",1554466276.465990,-1.995717,1.235441,-0.553510,-0.299838,-0.944293,0.135673,0.000000,0.000000,0.000000,-1,3.712932,-0.900779,-0.547065,-0.274549,-0.363568,-0.668952
"2019-04-05 12:11:16.486 +0000",1554466276.485944,-2.213216,1.215410,-0.347880,-0.278588,-0.937512,0.208471,0.000000,0.000000,0.000000,-1,2.977206,-1.360194,-1.431992,-0.067374,-0.402942,-0.075567
"2019-04-05 12:11:16.506 +0000",1554466276.505929,-2.394201,1.213208,-0.166368,-0.237915,-0.936744,0.256724,0.000000,0.000000,0.000000,-1,1.995793,0.544402,-2.418168,0.920899,0.533485,-0.204661
"2019-04-05 12:11:16.526 +0000",1554466276.525927,-2.530568,1.211072,-0.002834,-0.201954,-0.935994,0.288322,0.000000,0.000000,0.000000,-1,1.559284,0.768729,-1.802482,0.510014,-0.193156,0.518822
"2019-04-05 12:11:16.546 +0000",1554466276.545900,-2.589038,1.214547,0.060886,-0.183052,-0.937211,0.296861,0.000000,0.000000,0.000000,-1,-0.623195,-0.251469,-0.172051,-0.153068,-0.172637,-0.464906
"2019-04-05 12:11:16.566 +0000",1554466276.565884,-2.521173,1.230992,-0.008874,-0.193774,-0.942820,0.271187,0.000000,0.000000,0.000000,-1,-1.759521,0.298494,0.856929,-0.407681,0.992914,-0.626579
"2019-04-05 12:11:16.586 +0000",1554466276.585870,-2.413184,1.251264,-0.122098,-0.209106,-0.949382,0.234410,0.000000,0.000000,0.000000,-1,-1.979050,-0.077653,0.790270,-0.063278,0.831050,-0.377339
"2019-04-05 12:11:16.606 +0000",1554466276.605855,-2.300767,1.266199,-0.243373,-0.223490,-0.953968,0.199994,0.000000,0.000000,0.000000,-1,-2.014183,-0.171405,0.832277,0.320902,0.814670,0.316821
"2019-04-05 12:11:16.626 +0000",1554466276.625841,-2.143318,1.278710,-0.405472,-0.242033,-0.957645,0.155998,0.000000,0.000000,0.000000,-1,-2.387485,0.599515,1.161198,0.196409,0.798389,0.079201
"2019-04-05 12:11:16.646 +0000",1554466276.645795,-1.956494,1.276841,-0.584960,-0.268455,-0.957105,0.109002,0.000000,0.000000,0.000000,-1,-1.975368,0.858339,1.252393,-0.083825,0.655027,0.456092
"2019-04-05 12:11:16.666 +0000",1554466276.665782,-1.772650,1.262154,-0.726606,-0.297598,-0.952747,0.060900,0.000000,0.000000,0.000000,-1,-1.956293,4.210443,1.631847,-0.177378,0.020038,1.552411
"2019-04-05 12:11:16.686 +0000",1554466276.685769,-1.530084,1.235246,-0.895470,-0.329015,-0.944229,-0.013402,0.000000,0.000000,0.000000,-1,-2.849712,2.905989,0.865553,-0.345957,-0.921387,0.251653
"2019-04-05 12:11:16.706 +0000",1554466276.705754,-1.312901,1.229848,-1.091733,-0.323324,-0.942438,-0.085283,0.000000,0.000000,0.000000,-1,-3.403974,1.040183,-1.075310,-0.099040,-1.050146,-0.571395
"2019-04-05 12:11:16.726 +0000",1554466276.725738,-1.093759,1.232665,-1.301668,-0.294691,-0.943376,-0.152311,0.000000,0.000000,0.000000,-1,-2.814144,1.637670,-1.333505,0.253553,-2.725096,-0.490465
"2019-04-05 12:11:16.746 +0000",1554466276.745754,-0.926276,1.214332,-1.454085,-0.278957,-0.937136,-0.209663,0.000000,0.000000,0.000000,-1,-2.617107,0.049177,0.124402,-0.367085,-1.895383,-0.539773
"2019-04-05 12:11:16.766 +0000",1554466276.765709,-0.877312,1.172573,-1.524128,-0.298213,-0.921751,-0.247878,0.000000,0.000000,0.000000,-1,-1.839858,-1.211381,1.509624,-0.748357,-1.392976,-0.555360
"2019-04-05 12:11:16.786 +0000",1554466276.785693,-0.906157,1.133444,-1.516070,-0.333387,-0.905876,-0.261231,0.000000,0.000000,0.000000,-1,-0.479537,-0.927515,1.486873,-0.600420,-0.452492,0.052201
"2019-04-05 12:11:16.806 +0000",1554466276.805680,-0.946962,1.115147,-1.480317,-0.357161,-0.897975,-0.257053,0.000000,0.000000,0.000000,-1,0.457076,-0.296258,0.903039,0.145338,0.589183,0.359898
