timestamp,timeIntervalSince1970,attitude.roll,attitude.pitch,attitude.yaw,gravity.x,gravity.y,gravity.z,magneticField.x,magneticField.y,magneticField.z,magneticField.accuracy,rotationRate.x,rotationRate.y,rotationRate.z,userAcceleration.x,userAcceleration.y,userAcceleration.z
"2019-10-15 10:57:16.265 +0000",1571137036.265322,0.100778,0.204274,-0.024200,0.098516,-0.202857,-0.974240,0.000000,0.000000,0.000000,-1,-0.346014,0.475276,-0.860485,-0.126164,0.054266,-0.198199
"2019-10-15 10:57:16.285 +0000",1571137036.285195,0.121986,0.202049,-0.045083,0.119208,-0.200677,-0.972378,0.000000,0.000000,0.000000,-1,0.198237,0.783120,-1.170494,-0.249686,0.135309,-0.138325
"2019-10-15 10:57:16.305 +0000",1571137036.305071,0.125357,0.200274,-0.068972,0.122529,-0.198937,-0.972322,0.000000,0.000000,0.000000,-1,-0.172145,-1.026412,-1.123781,-0.159715,0.235559,-0.015456
"2019-10-15 10:57:16.325 +0000",1571137036.324946,0.093511,0.189930,-0.087058,0.091696,-0.188791,-0.977727,0.000000,0.000000,0.000000,-1,-0.587358,-2.345064,-0.736970,-0.045050,0.108835,0.246602
"2019-10-15 10:57:16.345 +0000",1571137036.344820,0.042774,0.177388,-0.096865,0.042090,-0.176459,-0.983408,0.000000,0.000000,0.000000,-1,-0.525266,-2.798779,-0.331340,0.111093,-0.064233,0.142801
"2019-10-15 10:57:16.365 +0000",1571137036.364695,0.002120,0.167272,-0.101330,0.002091,-0.166493,-0.986040,0.000000,0.000000,0.000000,-1,-0.453914,-1.169807,-0.105947,0.155365,-0.016505,-0.009519
"2019-10-15 10:57:16.385 +0000",1571137036.384570,-0.013039,0.159433,-0.101400,-0.012874,-0.158758,-0.987234,0.000000,0.000000,0.000000,-1,-0.349664,-0.279296,0.077075,-0.201802,0.194418,-0.139857
"2019-10-15 10:57:16.404 +0000",1571137036.404444,-0.015565,0.152492,-0.098947,-0.015384,-0.151902,-0.988276,0.000000,0.000000,0.000000,-1,-0.362663,-0.245310,0.222010,-0.095563,0.120179,-0.094549
"2019-10-15 10:57:16.424 +0000",1571137036.424318,-0.023693,0.144202,-0.092718,-0.023445,-0.143702,-0.989343,0.000000,0.000000,0.000000,-1,-0.466328,-0.546761,0.423896,-0.010185,0.043406,-0.133978
"2019-10-15 10:57:16.444 +0000",1571137036.444194,-0.039217,0.132795,-0.082645,-0.038862,-0.132405,-0.990434,0.000000,0.000000,0.000000,-1,-0.680932,-0.796225,0.571045,-0.092455,0.002568,-0.089858
"2019-10-15 10:57:16.464 +0000",1571137036.464068,-0.057951,0.114923,-0.073475,-0.057537,-0.114670,-0.991736,0.000000,0.000000,0.000000,-1,-1.078246,-1.030856,0.399072,-0.093006,0.030212,0.035300
"2019-10-15 10:57:16.484 +0000",1571137036.483943,-0.079931,0.091775,-0.068380,-0.079509,-0.091646,-0.992612,0.000000,0.000000,0.000000,-1,-1.144329,-1.073106,0.331587,-0.120396,0.035280,-0.035632
"2019-10-15 10:57:16.504 +0000",1571137036.503818,-0.100581,0.069309,-0.062181,-0.100170,-0.069254,-0.992557,0.000000,0.000000,0.000000,-1,-1.056417,-0.996593,0.502054,-0.117908,0.047754,0.055607
"2019-10-15 10:57:16.524 +0000",1571137036.523692,-0.124275,0.049242,-0.051080,-0.123805,-0.049222,-0.991085,0.000000,0.000000,0.000000,-1,-0.767137,-1.319516,0.848430,-0.093755,0.085828,0.009136
"2019-10-15 10:57:16.544 +0000",1571137036.543566,-0.150170,0.036694,-0.032372,-0.149505,-0.036686,-0.988080,0.000000,0.000000,0.000000,-1,-0.218802,-1.331328,1.166849,-0.098282,0.089481,-0.042163
"2019-10-15 10:57:16.563 +0000",1571137036.563442,-0.180240,0.032958,-0.007236,-0.179168,-0.032952,-0.983266,0.000000,0.000000,0.000000,-1,0.224416,-1.629168,1.328733,-0.139084,0.090325,0.052602
"2019-10-15 10:57:16.583 +0000",1571137036.583316,-0.225715,0.043505,0.019627,-0.223592,-0.043492,-0.973712,0.000000,0.000000,0.000000,-1,0.479568,-2.054666,1.254784,-0.116496,0.156346,0.028552
"2019-10-15 10:57:16.603 +0000",1571137036.603192,-0.270009,0.049207,0.048097,-0.266417,-0.049187,-0.962602,0.000000,0.000000,0.000000,-1,0.787333,-2.184284,1.435633,-0.106889,0.229439,0.037217
"2019-10-15 10:57:16.623 +0000",1571137036.623066,-0.322608,0.061380,0.084451,-0.316444,-0.061342,-0.946626,0.000000,0.000000,0.000000,-1,0.962312,-2.209475,1.785714,-0.040505,0.273393,0.060578
"2019-10-15 10:57:16.643 +0000",1571137036.642940,-0.370593,0.066166,0.126275,-0.361376,-0.066118,-0.930073,0.000000,0.000000,0.000000,-1,0.900667,-2.455416,1.985312,0.016939,0.222581,0.070271
"2019-10-15 10:57:16.663 +0000",1571137036.662815,-0.435680,0.068087,0.174078,-0.421049,-0.068034,-0.904483,0.000000,0.000000,0.000000,-1,1.013286,-3.284824,2.490028,0.031691,0.208766,0.030246
"2019-10-15 10:57:16.683 +0000",1571137036.682690,-0.509836,0.064584,0.234809,-0.487017,-0.064539,-0.871005,0.000000,0.000000,0.000000,-1,1.483746,-3.602330,2.978996,0.083712,0.285776,0.131777
"2019-10-15 10:57:16.703 +0000",1571137036.702564,-0.586665,0.064971,0.300778,-0.552419,-0.064925,-0.831034,0.000000,0.000000,0.000000,-1,1.923441,-3.656203,2.480026,0.151311,0.371688,0.005824
"2019-10-15 10:57:16.722 +0000",1571137036.722440,-0.655072,0.068834,0.351223,-0.607774,-0.068779,-0.791126,0.000000,0.000000,0.000000,-1,1.174467,-2.901803,1.666531,0.124696,0.391762,-0.128979
"2019-10-15 10:57:16.742 +0000",1571137036.742314,-0.708631,0.055020,0.395316,-0.649810,-0.054992,-0.758104,0.000000,0.000000,0.000000,-1,0.635258,-2.124526,2.647815,0.223358,0.171188,-0.021986
"2019-10-15 10:57:16.762 +0000",1571137036.762190,-0.751310,0.025079,0.445956,-0.682382,-0.025076,-0.730565,0.000000,0.000000,0.000000,-1,0.565978,-1.991248,2.991282,0.114221,0.127783,-0.290232
"2019-10-15 10:57:16.782 +0000",1571137036.782064,-0.785546,-0.005579,0.493249,-0.707200,0.005579,-0.706991,0.000000,0.000000,0.000000,-1,0.485136,-1.419894,2.535160,-0.146850,0.047521,-0.240793
"2019-10-15 10:57:16.802 +0000",1571137036.801938,-0.812831,-0.033422,0.530391,-0.725830,0.033416,-0.687062,0.000000,0.000000,0.000000,-1,0.241832,-1.414585,2.136154,-0.123611,-0.044707,-0.314617
"2019-10-15 10:57:16.822 +0000",1571137036.821814,-0.839313,-0.060435,0.562353,-0.742826,0.060398,-0.666755,0.000000,0.000000,0.000000,-1,0.379957,-1.338282,2.054037,-0.024783,-0.068866,-0.284112
"2019-10-15 10:57:16.842 +0000",1571137036.841688,-0.858344,-0.081366,0.597563,-0.754258,0.081276,-0.651529,0.000000,0.000000,0.000000,-1,0.887189,-0.781445,1.816895,-0.108459,-0.092430,-0.297934
"2019-10-15 10:57:16.862 +0000",1571137036.861562,-0.869159,-0.092472,0.634662,-0.760523,0.092341,-0.642712,0.000000,0.000000,0.000000,-1,1.194104,-0.434183,1.469885,-0.117361,-0.067042,-0.234974
"2019-10-15 10:57:16.881 +0000",1571137036.881438,-0.875827,-0.097696,0.671068,-0.764411,0.097541,-0.637308,0.000000,0.000000,0.000000,-1,1.244975,-0.639081,1.268583,-0.036828,-0.134742,-0.150778
"2019-10-15 10:57:16.901 +0000",1571137036.901312,-0.891583,-0.099012,0.705955,-0.774256,0.098851,-0.625105,0.000000,0.000000,0.000000,-1,1.398842,-1.357667,1.054755,0.005579,-0.132740,-0.134462
"2019-10-15 10:57:16.921 +0000",1571137036.921187,-0.923634,-0.095178,0.741716,-0.794187,0.095034,-0.600196,0.000000,0.000000,0.000000,-1,1.665450,-2.164371,0.885769,0.017118,-0.044543,-0.121606
"2019-10-15 10:57:16.941 +0000",1571137036.941062,-0.965124,-0.088922,0.781730,-0.818871,0.088805,-0.567066,0.000000,0.000000,0.000000,-1,1.947937,-2.261256,0.981874,0.092843,-0.114043,-0.031018
"2019-10-15 10:57:16.961 +0000",1571137036.960936,-1.003217,-0.083487,0.827357,-0.840268,0.083390,-0.535720,0.000000,0.000000,0.000000,-1,2.152211,-1.970160,1.075879,0.095990,-0.106446,0.032378
"2019-10-15 10:57:16.981 +0000",1571137036.980811,-1.035864,-0.079859,0.876056,-0.857561,0.079774,-0.508158,0.000000,0.000000,0.000000,-1,2.162725,-1.705775,1.188567,0.062670,-0.033387,0.034601
"2019-10-15 10:57:17.001 +0000",1571137037.000685,-1.062074,-0.081483,0.924722,-0.870470,0.081393,-0.485446,0.000000,0.000000,0.000000,-1,1.966051,-1.295390,1.377554,0.064836,0.003538,0.097018
"2019-10-15 10:57:17.021 +0000",1571137037.020559,-1.077802,-0.089184,0.969630,-0.877419,0.089066,-0.471385,0.000000,0.000000,0.000000,-1,1.596048,-0.614688,1.436672,0.040581,-0.015579,0.226558
"2019-10-15 10:57:17.040 +0000",1571137037.040434,-1.078532,-0.101163,1.007842,-0.876759,0.100990,-0.470206,0.000000,0.000000,0.000000,-1,1.225670,0.131836,1.419182,-0.012691,-0.010262,0.313880
"2019-10-15 10:57:17.060 +0000",1571137037.060309,-1.071074,-0.114575,1.040315,-0.871961,0.114325,-0.476040,0.000000,0.000000,0.000000,-1,1.020794,0.113312,1.291050,-0.035739,0.063257,0.120327
"2019-10-15 10:57:17.080 +0000",1571137037.080184,-1.070274,-0.125606,1.068801,-0.870420,0.125276,-0.476104,0.000000,0.000000,0.000000,-1,0.947659,-0.365079,1.055104,-0.040591,0.154006,-0.087052
"2019-10-15 10:57:17.100 +0000",1571137037.100059,-1.076304,-0.134658,1.094533,-0.872241,0.134251,-0.470289,0.000000,0.000000,0.000000,-1,0.867672,-0.494751,1.024124,0.034809,0.106838,-0.028826
"2019-10-15 10:57:17.120 +0000",1571137037.119934,-1.081398,-0.145515,1.119476,-0.873288,0.145002,-0.465127,0.000000,0.000000,0.000000,-1,0.824297,-0.450007,1.111441,0.056698,0.120852,0.024621
"2019-10-15 10:57:17.140 +0000",1571137037.139808,-1.093550,-0.157252,1.145190,-0.877303,0.156605,-0.453668,0.000000,0.000000,0.000000,-1,0.914565,-1.247218,1.058873,0.055892,0.096584,-0.158362
"2019-10-15 10:57:17.160 +0000",1571137037.159683,-1.119235,-0.162951,1.170436,-0.887848,0.162231,-0.430590,0.000000,0.000000,0.000000,-1,1.037289,-1.539956,0.534909,0.040970,0.100159,-0.175871
"2019-10-15 10:57:17.180 +0000",1571137037.179558,-1.138899,-0.160640,1.190466,-0.896481,0.159950,-0.413205,0.000000,0.000000,0.000000,-1,0.800866,-0.684591,0.206684,0.061810,0.074425,0.012280
"2019-10-15 10:57:17.199 +0000",1571137037.199432,-1.145253,-0.161243,1.203888,-0.899000,0.160545,-0.407461,0.000000,0.000000,0.000000,-1,0.393876,-0.385302,0.426551,0.108885,0.004220,-0.042063
"2019-10-15 10:57:17.219 +0000",1571137037.219306,-1.155226,-0.166863,1.212739,-0.902179,0.166090,-0.398105,0.000000,0.000000,0.000000,-1,0.236951,-0.743935,0.371757,0.057056,0.071932,-0.234464
"2019-10-15 10:57:17.239 +0000",1571137037.239182,-1.172678,-0.166896,1.217825,-0.908984,0.166122,-0.382298,0.000000,0.000000,0.000000,-1,0.155398,-1.074271,-0.229077,-0.075132,0.135452,-0.245433
"2019-10-15 10:57:17.259 +0000",1571137037.259056,-1.192285,-0.162454,1.215643,-0.916981,0.161741,-0.364672,0.000000,0.000000,0.000000,-1,-0.224222,-0.786478,-0.194314,-0.029506,0.016238,-0.025205
"2019-10-15 10:57:17.279 +0000",1571137037.278931,-1.205853,-0.161763,1.207575,-0.921949,0.161058,-0.352237,0.000000,0.000000,0.000000,-1,-0.399868,-0.529676,-0.187396,-0.002871,0.068480,0.078494
"2019-10-15 10:57:17.299 +0000",1571137037.298806,-1.218723,-0.159826,1.201705,-0.926697,0.159146,-0.340450,0.000000,0.000000,0.000000,-1,-0.031435,-0.664920,-0.181425,-0.023087,0.131564,-0.103520
"2019-10-15 10:57:17.319 +0000",1571137037.318681,-1.230331,-0.156367,1.203332,-0.931099,0.155731,-0.329851,0.000000,0.000000,0.000000,-1,0.249746,-0.476233,-0.079991,0.052315,0.099716,-0.029340
"2019-10-15 10:57:17.339 +0000",1571137037.338555,-1.237463,-0.153841,1.208179,-0.933797,0.153235,-0.323330,0.000000,0.000000,0.000000,-1,0.263771,-0.374423,-0.021804,-0.001994,0.051675,-0.001194
"2019-10-15 10:57:17.358 +0000",1571137037.358430,-1.245873,-0.151504,1.213137,-0.936820,0.150925,-0.315580,0.000000,0.000000,0.000000,-1,0.302305,-0.574379,-0.035992,-0.048822,0.038665,-0.108828
"2019-10-15 10:57:17.378 +0000",1571137037.378305,-1.257995,-0.147684,1.220256,-0.941118,0.147148,-0.304375,0.000000,0.000000,0.000000,-1,0.521097,-0.699694,-0.140883,-0.060026,0.064843,-0.195670
"2019-10-15 10:57:17.398 +0000",1571137037.398179,-1.265659,-0.137670,1.232905,-0.944781,0.137235,-0.297581,0.000000,0.000000,0.000000,-1,1.047515,-0.104531,-0.413841,-0.136655,0.033267,-0.127330
"2019-10-15 10:57:17.418 +0000",1571137037.418054,-1.256260,-0.123714,1.257744,-0.943672,0.123399,-0.307011,0.000000,0.000000,0.000000,-1,1.627452,0.592257,-0.072100,-0.022957,-0.039689,-0.196498
"2019-10-15 10:57:17.438 +0000",1571137037.437928,-1.244122,-0.117708,1.288270,-0.940561,0.117437,-0.318674,0.000000,0.000000,0.000000,-1,1.221717,-0.052293,0.405820,0.244211,0.049021,-0.207372
"2019-10-15 10:57:17.458 +0000",1571137037.457804,-1.253600,-0.118833,1.302873,-0.943413,0.118553,-0.309704,0.000000,0.000000,0.000000,-1,0.189004,-0.852679,0.116197,0.240487,0.170174,-0.111225
"2019-10-15 10:57:17.478 +0000",1571137037.477678,-1.268273,-0.121107,1.303175,-0.947596,0.120811,-0.295748,0.000000,0.000000,0.000000,-1,-0.111596,-0.581562,0.199353,0.196970,0.082665,-0.064268
"2019-10-15 10:57:17.498 +0000",1571137037.497553,-1.276707,-0.127082,1.303791,-0.949349,0.126740,-0.287531,0.000000,0.000000,0.000000,-1,-0.001017,-0.325142,0.381981,0.234764,0.055190,0.070200
"2019-10-15 10:57:17.517 +0000",1571137037.517429,-1.284108,-0.138098,1.306831,-0.950054,0.137659,-0.280086,0.000000,0.000000,0.000000,-1,-0.063821,-0.533031,0.847282,0.283901,0.045202,0.061900
"2019-10-15 10:57:17.537 +0000",1571137037.537302,-1.297405,-0.158178,1.314236,-0.950840,0.157520,-0.266628,0.000000,0.000000,0.000000,-1,0.544184,-0.855661,0.977341,0.312916,0.088666,-0.147084
"2019-10-15 10:57:17.557 +0000",1571137037.557178,-1.316895,-0.177632,1.339872,-0.952709,0.176700,-0.247230,0.000000,0.000000,0.000000,-1,1.080534,-1.554625,1.822620,-0.048862,0.042798,-0.536645
"2019-10-15 10:57:17.577 +0000",1571137037.577052,-1.349841,-0.212054,1.363410,-0.953834,0.210468,-0.214253,0.000000,0.000000,0.000000,-1,0.341859,-2.224620,1.873416,0.018180,-0.027286,-0.088512
"2019-10-15 10:57:17.597 +0000",1571137037.596927,-1.392639,-0.245388,1.374586,-0.954689,0.242933,-0.171907,0.000000,0.000000,0.000000,-1,0.166919,-2.107530,1.861327,-0.357338,-0.091153,-0.078642
"2019-10-15 10:57:17.617 +0000",1571137037.616801,-1.424647,-0.288536,1.383800,-0.948441,0.284549,-0.139609,0.000000,0.000000,0.000000,-1,-0.002704,-1.431939,2.466946,0.028046,-0.103900,0.058402
"2019-10-15 10:57:17.637 +0000",1571137037.636677,-1.454250,-0.335349,1.393343,-0.937890,0.329099,-0.109805,0.000000,0.000000,0.000000,-1,0.402749,-1.962965,2.296345,-0.047493,-0.025784,-0.163159
"2019-10-15 10:57:17.657 +0000",1571137037.656550,-1.489724,-0.378599,1.407786,-0.926131,0.369619,-0.075249,0.000000,0.000000,0.000000,-1,0.283895,-1.743941,2.241314,-0.094743,0.014811,-0.306465
"2019-10-15 10:57:17.676 +0000",1571137037.676426,-1.514914,-0.423074,1.410224,-0.910408,0.410566,-0.050928,0.000000,0.000000,0.000000,-1,-0.248725,-0.900523,2.135749,0.096000,0.053118,0.060755
"2019-10-15 10:57:17.696 +0000",1571137037.696301,-1.529849,-0.461678,1.407546,-0.894556,0.445451,-0.036650,0.000000,0.000000,0.000000,-1,-0.118629,-0.578453,1.722864,0.108377,0.033782,0.033263
"2019-10-15 10:57:17.716 +0000",1571137037.716175,-1.540903,-0.494231,1.406974,-0.879940,0.474355,-0.026312,0.000000,0.000000,0.000000,-1,-0.103472,-0.479010,1.662321,0.269040,0.045726,-0.033655
"2019-10-15 10:57:17.736 +0000",1571137037.736048,-1.548622,-0.529520,1.404563,-0.862837,0.505119,-0.019136,0.000000,0.000000,0.000000,-1,-0.211134,-0.154858,1.876651,0.092253,-0.028023,-0.038511
"2019-10-15 10:57:17.756 +0000",1571137037.755925,-1.556388,-0.567555,1.395293,-0.843130,0.537572,-0.012149,0.000000,0.000000,0.000000,-1,-0.705390,-0.292709,1.928385,-0.020548,0.063639,-0.188275
"2019-10-15 10:57:17.776 +0000",1571137037.775784,-1.581136,-0.603975,1.372589,-0.823041,0.567919,0.008510,0.000000,0.000000,0.000000,-1,-1.174575,-0.817292,1.815674,0.007611,0.236754,-0.420894
"2019-10-15 10:57:17.796 +0000",1571137037.795659,-1.611278,-0.637537,1.342998,-0.802906,0.595218,0.032521,0.000000,0.000000,0.000000,-1,-1.101568,-0.470073,1.638878,0.073978,-0.023425,-0.060566
"2019-10-15 10:57:17.816 +0000",1571137037.815533,-1.634952,-0.671864,1.315655,-0.781053,0.622446,0.050178,0.000000,0.000000,0.000000,-1,-1.004261,-0.102800,1.766969,0.070497,-0.224542,-0.090797
"2019-10-15 10:57:17.835 +0000",1571137037.835408,-1.658057,-0.704665,1.281271,-0.758930,0.647779,0.066394,0.000000,0.000000,0.000000,-1,-1.336960,-0.117134,1.762913,-0.015469,-0.083478,-0.085253
"2019-10-15 10:57:17.855 +0000",1571137037.855283,-1.685015,-0.737202,1.243690,-0.735529,0.672219,0.084378,0.000000,0.000000,0.000000,-1,-1.047114,-0.002888,1.764909,-0.028891,0.028312,-0.100125
"2019-10-15 10:57:17.875 +0000",1571137037.875157,-1.698600,-0.771096,1.218593,-0.711298,0.696921,0.091405,0.000000,0.000000,0.000000,-1,-0.368179,0.301823,1.873255,0.017924,-0.095435,0.174114
"2019-10-15 10:57:17.895 +0000",1571137037.895032,-1.694455,-0.809915,1.215553,-0.684295,0.724228,0.085053,0.000000,0.000000,0.000000,-1,0.535006,0.606844,1.701524,-0.008393,-0.102021,0.093246
"2019-10-15 10:57:17.915 +0000",1571137037.914907,-1.667964,-0.842291,1.230477,-0.662614,0.746171,0.064588,0.000000,0.000000,0.000000,-1,0.634164,0.775939,1.366925,0.102922,-0.137208,0.076983
"2019-10-15 10:57:17.935 +0000",1571137037.934781,-1.675370,-0.861192,1.219406,-0.647974,0.758620,0.068009,0.000000,0.000000,0.000000,-1,-0.779036,-0.225164,0.824277,0.201502,0.341753,-0.567505
"2019-10-15 10:57:17.955 +0000",1571137037.954656,-1.698526,-0.876089,1.187027,-0.634945,0.768241,0.081545,0.000000,0.000000,0.000000,-1,-1.172077,0.370843,0.869623,0.013257,-0.074363,-0.183138
"2019-10-15 10:57:17.975 +0000",1571137037.974531,-1.721364,-0.889305,1.146776,-0.622825,0.776634,0.094492,0.000000,0.000000,0.000000,-1,-1.139091,0.379997,0.783625,0.049720,0.026375,-0.116785
"2019-10-15 10:57:17.994 +0000",1571137037.994405,-1.747399,-0.900584,1.107671,-0.611492,0.783690,0.109128,0.000000,0.000000,0.000000,-1,-1.168183,0.154288,0.758199,0.055736,-0.011244,-0.047772
"2019-10-15 10:57:18.014 +0000",1571137038.014280,-1.780534,-0.911403,1.061251,-0.599212,0.790364,0.127553,0.000000,0.000000,0.000000,-1,-1.405684,0.277040,0.880015,0.004364,-0.080296,-0.015432
"2019-10-15 10:57:18.034 +0000",1571137038.034155,-1.810483,-0.922526,1.013579,-0.586547,0.797130,0.143343,0.000000,0.000000,0.000000,-1,-1.120225,0.490042,0.859209,-0.017182,-0.074931,-0.040270
"2019-10-15 10:57:18.054 +0000",1571137038.054029,-1.828751,-0.933688,0.977896,-0.575191,0.803820,0.151754,0.000000,0.000000,0.000000,-1,-0.744685,0.501204,0.794279,0.046138,0.134352,0.015589
"2019-10-15 10:57:18.074 +0000",1571137038.073904,-1.837916,-0.943365,0.948665,-0.566247,0.809538,0.154959,0.000000,0.000000,0.000000,-1,-0.687175,1.097093,0.539280,0.252694,-0.063033,0.001779
"2019-10-15 10:57:18.094 +0000",1571137038.093780,-1.843622,-0.950417,0.916833,-0.559842,0.813658,0.156645,0.000000,0.000000,0.000000,-1,-0.793494,0.692875,0.793001,0.311414,-0.175749,-0.150694
"2019-10-15 10:57:18.114 +0000",1571137038.113653,-1.860310,-0.966340,0.886780,-0.544663,0.822811,0.162246,0.000000,0.000000,0.000000,-1,-0.562108,0.202177,1.181288,-0.072372,-0.024059,-0.197173
"2019-10-15 10:57:18.134 +0000",1571137038.133528,-1.885518,-0.987475,0.851794,-0.523745,0.834638,0.170501,0.000000,0.000000,0.000000,-1,-0.647846,0.232114,1.328852,-0.123685,-0.019300,-0.009414
"2019-10-15 10:57:18.153 +0000",1571137038.153404,-1.905196,-1.007275,0.823375,-0.504578,0.845379,0.175315,0.000000,0.000000,0.000000,-1,-0.161740,0.175687,1.117124,-0.145904,0.310260,-0.101889
"2019-10-15 10:57:18.173 +0000",1571137038.173278,-1.914063,-1.026472,0.810424,-0.487630,0.855477,0.174287,0.000000,0.000000,0.000000,-1,0.041068,0.079637,0.890939,0.069783,0.328559,-0.121141
"2019-10-15 10:57:18.193 +0000",1571137038.193152,-1.927142,-1.037354,0.796959,-0.476555,0.861062,0.177391,0.000000,0.000000,0.000000,-1,-0.414989,-0.538476,0.410071,0.005989,0.229118,-0.017174
"2019-10-15 10:57:18.213 +0000",1571137038.213027,-1.953414,-1.043984,0.778232,-0.466425,0.864414,0.187713,0.000000,0.000000,0.000000,-1,-0.512218,-0.139408,0.809130,0.060617,-0.131184,-0.030471
"2019-10-15 10:57:18.233 +0000",1571137038.232902,-1.968697,-1.051020,0.763580,-0.457884,0.867930,0.192458,0.000000,0.000000,0.000000,-1,-0.018003,-0.318870,0.268318,-0.248583,0.201589,-0.141631
"2019-10-15 10:57:18.253 +0000",1571137038.252777,-1.977439,-1.052937,0.761406,-0.454654,0.868881,0.195795,0.000000,0.000000,0.000000,-1,0.003588,-0.343540,-0.075441,0.065754,0.182068,-0.043909
"2019-10-15 10:57:18.273 +0000",1571137038.272652,-1.979924,-1.048163,0.764746,-0.457966,0.866508,0.198572,0.000000,0.000000,0.000000,-1,-0.048038,-0.200749,-0.466121,-0.015972,0.108635,-0.041635
"2019-10-15 10:57:18.293 +0000",1571137038.292526,-1.977971,-1.034735,0.770570,-0.468996,0.859727,0.202267,0.000000,0.000000,0.000000,-1,-0.226440,-0.120719,-0.847453,-0.029997,0.163909,0.001407
"2019-10-15 10:57:18.312 +0000",1571137038.312400,-1.976334,-1.015917,0.774767,-0.484109,0.849964,0.207845,0.000000,0.000000,0.000000,-1,-0.317992,-0.046575,-0.929401,-0.046210,0.303448,-0.034963
"2019-10-15 10:57:18.332 +0000",1571137038.332276,-1.974151,-0.997301,0.775170,-0.499030,0.840010,0.212962,0.000000,0.000000,0.000000,-1,-0.402038,0.253516,-0.815974,-0.109232,0.249971,-0.030162
"2019-10-15 10:57:18.352 +0000",1571137038.352151,-1.970718,-0.978535,0.773485,-0.514189,0.829680,0.217348,0.000000,0.000000,0.000000,-1,-0.458945,0.241996,-0.883210,-0.140322,0.232881,-0.092867
"2019-10-15 10:57:18.372 +0000",1571137038.372025,-1.966195,-0.959040,0.765057,-0.529994,0.818641,0.221209,0.000000,0.000000,0.000000,-1,-0.801492,1.475975,-0.684715,-0.034764,-0.030265,-0.026430
"2019-10-15 10:57:18.392 +0000",1571137038.391900,-1.947293,-0.955026,0.758884,-0.537133,0.816329,0.212359,0.000000,0.000000,0.000000,-1,0.600307,-0.279989,0.346851,0.825676,0.266847,-0.561525
"2019-10-15 10:57:18.412 +0000",1571137038.411776,-1.950335,-0.966230,0.769883,-0.527955,0.822749,0.210589,0.000000,0.000000,0.000000,-1,0.437514,-0.725202,0.297507,-0.344436,-0.183085,0.045240
"2019-10-15 10:57:18.432 +0000",1571137038.431650,-1.955347,-0.969912,0.779482,-0.524082,0.824836,0.212095,0.000000,0.000000,0.000000,-1,0.184486,-0.480378,-0.121300,0.172947,-0.127341,-0.152189
"2019-10-15 10:57:18.452 +0000",1571137038.451524,-1.956296,-0.964624,0.783083,-0.527915,0.821835,0.214230,0.000000,0.000000,0.000000,-1,-0.167527,0.133467,-0.505765,0.092871,-0.185268,-0.110608
"2019-10-15 10:57:18.471 +0000",1571137038.471399,-1.945328,-0.948607,0.787817,-0.542415,0.812604,0.213215,0.000000,0.000000,0.000000,-1,-0.113243,0.397688,-0.993470,0.177882,-0.252744,-0.160100
"2019-10-15 10:57:18.491 +0000",1571137038.491274,-1.934118,-0.932983,0.800003,-0.556571,0.803400,0.211608,0.000000,0.000000,0.000000,-1,0.229970,-0.324441,-0.673904,0.174628,-0.228616,-0.230987
"2019-10-15 10:57:18.511 +0000",1571137038.511149,-1.931857,-0.927590,0.815764,-0.561093,0.800177,0.211877,0.000000,0.000000,0.000000,-1,0.463219,-0.674943,-0.177674,0.046170,-0.044912,-0.227227
"2019-10-15 10:57:18.531 +0000",1571137038.531023,-1.933804,-0.930858,0.833329,-0.558232,0.802133,0.212039,0.000000,0.000000,0.000000,-1,0.630727,-0.920871,0.083976,0.005482,-0.094109,-0.228397
"2019-10-15 10:57:18.551 +0000",1571137038.550898,-1.936947,-0.936292,0.853198,-0.553484,0.805366,0.212229,0.000000,0.000000,0.000000,-1,0.655378,-0.978496,-0.065198,0.029192,-0.208228,-0.188273
"2019-10-15 10:57:18.571 +0000",1571137038.570773,-1.938696,-0.937673,0.875269,-0.552075,0.806183,0.212796,0.000000,0.000000,0.000000,-1,0.617151,-0.978701,-0.247704,0.050198,0.113907,-0.133298
"2019-10-15 10:57:18.591 +0000",1571137038.590647,-1.940746,-0.936857,0.896909,-0.552250,0.805700,0.214165,0.000000,0.000000,0.000000,-1,0.555318,-0.974169,-0.293221,0.014241,0.118174,-0.057626
"2019-10-15 10:57:18.611 +0000",1571137038.610522,-1.945014,-0.937153,0.917628,-0.551109,0.805876,0.216433,0.000000,0.000000,0.000000,-1,0.613323,-1.128357,-0.095858,0.046989,-0.029036,-0.084963
"2019-10-15 10:57:18.630 +0000",1571137038.630397,-1.952914,-0.941857,0.937777,-0.545858,0.808652,0.219364,0.000000,0.000000,0.000000,-1,0.666064,-1.287197,0.076185,0.091146,0.060778,-0.116672
"2019-10-15 10:57:18.650 +0000",1571137038.650273,-1.963397,-0.947786,0.953856,-0.539090,0.812126,0.223236,0.000000,0.000000,0.000000,-1,0.444963,-1.153114,0.103565,0.042126,0.242287,0.050842
"2019-10-15 10:57:18.670 +0000",1571137038.670146,-1.977321,-0.952276,0.966399,-0.532574,0.814737,0.229276,0.000000,0.000000,0.000000,-1,0.433141,-1.272156,-0.009197,0.004422,0.188375,-0.022855
"2019-10-15 10:57:18.690 +0000",1571137038.690021,-1.990336,-0.953421,0.980962,-0.528693,0.815401,0.235808,0.000000,0.000000,0.000000,-1,0.367564,-1.196891,-0.227489,-0.067941,0.290236,-0.018370
"2019-10-15 10:57:18.710 +0000",1571137038.709897,-2.001234,-0.950359,0.994875,-0.528359,0.813624,0.242596,0.000000,0.000000,0.000000,-1,0.243256,-1.062583,-0.381489,-0.051780,0.378682,0.036365
"2019-10-15 10:57:18.730 +0000",1571137038.729770,-2.013095,-0.944994,1.007554,-0.529382,0.810493,0.250711,0.000000,0.000000,0.000000,-1,0.222000,-1.188888,-0.387993,0.009713,0.307549,0.005652
"2019-10-15 10:57:18.750 +0000",1571137038.749646,-2.027533,-0.941125,1.019881,-0.528517,0.808221,0.259708,0.000000,0.000000,0.000000,-1,0.282084,-1.207115,-0.280679,0.059049,0.191214,-0.041050
"2019-10-15 10:57:18.770 +0000",1571137038.769520,-2.039714,-0.939977,1.033908,-0.526141,0.807545,0.266546,0.000000,0.000000,0.000000,-1,0.436177,-1.214421,-0.194152,0.098041,0.028103,-0.056188
"2019-10-15 10:57:18.789 +0000",1571137038.789395,-2.050049,-0.942677,1.053348,-0.521423,0.809134,0.270963,0.000000,0.000000,0.000000,-1,0.736542,-1.434436,-0.107846,0.067580,0.036020,-0.136853
"2019-10-15 10:57:18.809 +0000",1571137038.809269,-2.059529,-0.950239,1.080322,-0.513413,0.813555,0.273013,0.000000,0.000000,0.000000,-1,0.975904,-1.729079,0.042978,-0.097762,0.160353,-0.169818
"2019-10-15 10:57:18.829 +0000",1571137038.829144,-2.071906,-0.960884,1.108218,-0.502370,0.819698,0.275170,0.000000,0.000000,0.000000,-1,0.928270,-1.762600,0.100860,-0.131297,0.139133,-0.147241
"2019-10-15 10:57:18.849 +0000",1571137038.849020,-2.085471,-0.970250,1.133868,-0.491887,0.825027,0.278168,0.000000,0.000000,0.000000,-1,0.866393,-1.710941,-0.014733,0.032216,-0.010528,-0.095307
"2019-10-15 10:57:18.869 +0000",1571137038.868895,-2.092047,-0.977926,1.166166,-0.484541,0.829340,0.278235,0.000000,0.000000,0.000000,-1,1.093780,-1.541029,-0.251040,0.359327,-0.289362,-0.192816
"2019-10-15 10:57:18.889 +0000",1571137038.888769,-2.083237,-0.978221,1.212639,-0.486760,0.829505,0.273836,0.000000,0.000000,0.000000,-1,1.241795,-1.435065,-0.862289,0.439321,-0.467795,-0.236757
"2019-10-15 10:57:18.909 +0000",1571137038.908644,-2.073018,-0.975310,1.255857,-0.491647,0.827876,0.270008,0.000000,0.000000,0.000000,-1,0.867027,-1.148260,-0.627723,0.553903,-0.607005,-0.195759
"2019-10-15 10:57:18.929 +0000",1571137038.928518,-2.064860,-0.971430,1.292817,-0.496658,0.825693,0.267510,0.000000,0.000000,0.000000,-1,0.777459,-1.052691,-0.727034,0.238937,-0.146662,-0.163063
"2019-10-15 10:57:18.948 +0000",1571137038.948392,-2.053997,-0.964607,1.328449,-0.504512,0.821825,0.264710,0.000000,0.000000,0.000000,-1,0.686437,-0.834657,-0.818096,0.099910,0.084181,-0.162064
"2019-10-15 10:57:18.968 +0000",1571137038.968267,-2.043718,-0.955027,1.361014,-0.514192,0.816329,0.263085,0.000000,0.000000,0.000000,-1,0.515693,-0.839777,-0.917463,0.130876,0.094956,-0.177910
"2019-10-15 10:57:18.988 +0000",1571137038.988143,-2.038122,-0.941203,1.388606,-0.525681,0.808267,0.265262,0.000000,0.000000,0.000000,-1,0.325849,-0.821323,-1.040844,0.139923,0.130499,-0.199466
"2019-10-15 10:57:19.008 +0000",1571137039.008018,-2.031047,-0.926212,1.414951,-0.538341,0.799350,0.266888,0.000000,0.000000,0.000000,-1,0.408640,-0.640634,-1.000279,0.126461,0.010892,-0.253888
"2019-10-15 10:57:19.028 +0000",1571137039.027892,-2.023261,-0.912676,1.441463,-0.550084,0.791143,0.267395,0.000000,0.000000,0.000000,-1,0.442028,-0.752602,-0.909458,0.024098,-0.055761,-0.234222
"2019-10-15 10:57:19.048 +0000",1571137039.047767,-2.022954,-0.901964,1.464104,-0.557757,0.784546,0.270913,0.000000,0.000000,0.000000,-1,0.292457,-0.992372,-0.674693,0.102221,-0.045105,-0.092736
"2019-10-15 10:57:19.068 +0000",1571137039.067642,-2.034083,-0.890975,1.476399,-0.562387,0.777685,0.280940,0.000000,0.000000,0.000000,-1,-0.096040,-1.068821,-0.718766,0.220361,0.063563,0.037190
"2019-10-15 10:57:19.088 +0000",1571137039.087517,-2.051384,-0.872903,1.480650,-0.569813,0.766198,0.297076,0.000000,0.000000,0.000000,-1,-0.484298,-0.977099,-1.037574,0.106892,0.154762,0.017636
"2019-10-15 10:57:19.107 +0000",1571137039.107391,-2.068765,-0.847055,1.481119,-0.581773,0.749334,0.316291,0.000000,0.000000,0.000000,-1,-0.650055,-0.797200,-1.220438,-0.028991,0.178675,-0.060081
"2019-10-15 10:57:19.127 +0000",1571137039.127266,-2.081669,-0.821351,1.482884,-0.594252,0.732067,0.333081,0.000000,0.000000,0.000000,-1,-0.468828,-0.696388,-1.046473,-0.093706,0.044804,-0.181485
"2019-10-15 10:57:19.147 +0000",1571137039.147141,-2.093233,-0.803515,1.487340,-0.601581,0.719801,0.346391,0.000000,0.000000,0.000000,-1,-0.166311,-0.828153,-0.668717,-0.059979,-0.086561,-0.214128
"2019-10-15 10:57:19.167 +0000",1571137039.167015,-2.108707,-0.792520,1.492168,-0.602909,0.712125,0.359692,0.000000,0.000000,0.000000,-1,-0.154758,-1.050168,-0.510083,0.032902,-0.074155,-0.123944
"2019-10-15 10:57:19.187 +0000",1571137039.186890,-2.127898,-0.780521,1.494191,-0.603106,0.703650,0.375686,0.000000,0.000000,0.000000,-1,-0.368288,-1.007977,-0.633807,-0.001569,0.056269,-0.027237
"2019-10-15 10:57:19.207 +0000",1571137039.206766,-2.146848,-0.763622,1.494550,-0.605765,0.691543,0.393469,0.000000,0.000000,0.000000,-1,-0.474773,-0.903831,-0.799904,-0.134546,0.174638,-0.091589
"2019-10-15 10:57:19.227 +0000",1571137039.226640,-2.159631,-0.746172,1.498696,-0.610629,0.678833,0.407820,0.000000,0.000000,0.000000,-1,-0.256207,-0.725039,-0.806076,-0.129758,0.062820,-0.181654
"2019-10-15 10:57:19.247 +0000",1571137039.246514,-2.170724,-0.730730,1.505052,-0.614647,0.667414,0.420438,0.000000,0.000000,0.000000,-1,-0.252158,-0.820329,-0.771463,0.040016,-0.091211,-0.119000
"2019-10-15 10:57:19.266 +0000",1571137039.266389,-2.183933,-0.714035,1.509854,-0.618068,0.654889,0.434871,0.000000,0.000000,0.000000,-1,-0.429958,-0.816850,-0.823582,0.105983,-0.084301,-0.077190
"2019-10-15 10:57:19.286 +0000",1571137039.286265,-2.199265,-0.693856,1.511765,-0.621893,0.639506,0.451974,0.000000,0.000000,0.000000,-1,-0.606619,-0.848383,-0.908031,-0.002497,0.022954,-0.094583
"2019-10-15 10:57:19.306 +0000",1571137039.306139,-2.215258,-0.671552,1.513282,-0.625834,0.622202,0.470316,0.000000,0.000000,0.000000,-1,-0.594025,-0.833158,-0.950925,-0.127767,0.067007,-0.183832
"2019-10-15 10:57:19.326 +0000",1571137039.326013,-2.230427,-0.650419,1.516719,-0.628880,0.605520,0.487705,0.000000,0.000000,0.000000,-1,-0.488530,-0.922840,-0.904841,-0.079754,-0.017644,-0.197437
"2019-10-15 10:57:19.346 +0000",1571137039.345889,-2.247151,-0.630424,1.521207,-0.629953,0.589487,0.505632,0.000000,0.000000,0.000000,-1,-0.499875,-1.024718,-0.904153,-0.004492,-0.030924,-0.131181
"2019-10-15 10:57:19.366 +0000",1571137039.365764,-2.265836,-0.609231,1.524959,-0.629851,0.572237,0.525198,0.000000,0.000000,0.000000,-1,-0.617434,-1.065850,-0.943655,-0.005495,0.035383,-0.104894
"2019-10-15 10:57:19.386 +0000",1571137039.385639,-2.285696,-0.586151,1.527948,-0.629105,0.553159,0.546116,0.000000,0.000000,0.000000,-1,-0.684086,-1.100008,-0.990167,-0.057510,0.104877,-0.146443
"2019-10-15 10:57:19.406 +0000",1571137039.405512,-2.305612,-0.562825,1.531838,-0.627509,0.533578,0.567034,0.000000,0.000000,0.000000,-1,-0.612182,-1.144359,-0.977994,-0.088281,0.064399,-0.229312
"2019-10-15 10:57:19.425 +0000",1571137039.425388,-2.326226,-0.540566,1.537046,-0.624180,0.514621,0.587847,0.000000,0.000000,0.000000,-1,-0.599542,-1.188927,-0.975642,-0.013348,0.057141,-0.237230
"2019-10-15 10:57:19.445 +0000",1571137039.445263,-2.347203,-0.517491,1.541837,-0.620021,0.494701,0.608970,0.000000,0.000000,0.000000,-1,-0.734203,-1.157602,-0.980266,0.022868,0.115528,-0.181206
"2019-10-15 10:57:19.465 +0000",1571137039.465137,-2.368549,-0.492558,1.544466,-0.615306,0.472882,0.630700,0.000000,0.000000,0.000000,-1,-0.850280,-1.127931,-0.943608,-0.023595,0.159107,-0.171898
"2019-10-15 10:57:19.485 +0000",1571137039.485011,-2.390361,-0.467626,1.546206,-0.609263,0.450768,0.652386,0.000000,0.000000,0.000000,-1,-0.850449,-1.154087,-0.903143,0.009760,0.094077,-0.264279
"2019-10-15 10:57:19.505 +0000",1571137039.504886,-2.412024,-0.443484,1.548302,-0.602068,0.429089,0.673347,0.000000,0.000000,0.000000,-1,-0.826001,-1.102185,-0.875800,0.051363,0.062213,-0.280754
"2019-10-15 10:57:19.525 +0000",1571137039.524762,-2.432111,-0.419562,1.550413,-0.594940,0.407360,0.692896,0.000000,0.000000,0.000000,-1,-0.869167,-1.007607,-0.857022,0.077438,0.099125,-0.265100
"2019-10-15 10:57:19.545 +0000",1571137039.544636,-2.450577,-0.394912,1.552346,-0.588266,0.384727,0.711287,0.000000,0.000000,0.000000,-1,-0.908023,-0.936045,-0.884972,0.104929,0.110436,-0.267272
"2019-10-15 10:57:19.565 +0000",1571137039.564511,-2.467800,-0.369358,1.554973,-0.581875,0.361017,0.728758,0.000000,0.000000,0.000000,-1,-0.943165,-0.900275,-0.931441,0.113003,0.031698,-0.302382
"2019-10-15 10:57:19.584 +0000",1571137039.584386,-2.484061,-0.341959,1.558536,-0.575778,0.335334,0.745675,0.000000,0.000000,0.000000,-1,-1.025103,-0.863651,-1.051580,0.075870,0.006845,-0.299584
"2019-10-15 10:57:19.604 +0000",1571137039.604261,-2.499097,-0.311205,1.563612,-0.570413,0.306206,0.762146,0.000000,0.000000,0.000000,-1,-1.156983,-0.768159,-1.205169,0.081445,0.022850,-0.325089
"2019-10-15 10:57:19.624 +0000",1571137039.624136,-2.510510,-0.276171,1.570108,-0.567662,0.272673,0.776794,0.000000,0.000000,0.000000,-1,-1.337616,-0.551546,-1.368279,0.186390,0.025438,-0.337692
"2019-10-15 10:57:19.644 +0000",1571137039.644010,-2.518412,-0.236654,1.576215,-0.567354,0.234451,0.789393,0.000000,0.000000,0.000000,-1,-1.503096,-0.501901,-1.435744,0.186311,-0.007843,-0.236278
"2019-10-15 10:57:19.664 +0000",1571137039.663885,-2.529052,-0.196187,1.582599,-0.563919,0.194931,0.802495,0.000000,0.000000,0.000000,-1,-1.411353,-0.724572,-1.435513,-0.254242,0.007950,-0.076008
"2019-10-15 10:57:19.684 +0000",1571137039.683760,-2.545765,-0.159281,1.590553,-0.554090,0.158608,0.817207,0.000000,0.000000,0.000000,-1,-1.215460,-1.067515,-1.314488,-0.383806,-0.046364,0.100471
"2019-10-15 10:57:19.704 +0000",1571137039.703635,-2.566352,-0.126180,1.599996,-0.539712,0.125846,0.832391,0.000000,0.000000,0.000000,-1,-1.054182,-1.134117,-1.298469,-0.540672,-0.014060,0.388404
"2019-10-15 10:57:19.724 +0000",1571137039.723510,-2.587150,-0.095716,1.609892,-0.524060,0.095570,0.846302,0.000000,0.000000,0.000000,-1,-1.026958,-1.009388,-1.203235,-0.435626,0.063945,0.630504
"2019-10-15 10:57:19.743 +0000",1571137039.743385,-2.603918,-0.066396,1.619674,-0.511011,0.066347,0.857010,0.000000,0.000000,0.000000,-1,-0.939115,-0.777986,-1.142541,-0.457449,-0.019182,0.664841
"2019-10-15 10:57:19.763 +0000",1571137039.763259,-2.616938,-0.041767,1.629002,-0.500477,0.041755,0.864743,0.000000,0.000000,0.000000,-1,-0.747059,-0.559396,-0.917015,-0.437984,-0.146720,0.546436
"2019-10-15 10:57:19.783 +0000",1571137039.783134,-2.624616,-0.020629,1.636121,-0.494149,0.020628,0.869133,0.000000,0.000000,0.000000,-1,-0.748148,-0.262632,-0.770711,-0.450141,-0.126920,0.571297
"2019-10-15 10:57:19.803 +0000",1571137039.803009,-2.627871,-0.001309,1.641441,-0.491421,0.001309,0.870921,0.000000,0.000000,0.000000,-1,-0.649629,-0.096025,-0.652483,-0.328983,-0.304440,0.470601
"2019-10-15 10:57:19.823 +0000",1571137039.822884,-2.629717,0.013481,1.646102,-0.489769,-0.013481,0.871748,0.000000,0.000000,0.000000,-1,-0.401953,-0.102329,-0.475699,-0.359657,-0.471474,0.293245
"2019-10-15 10:57:19.843 +0000",1571137039.842758,-2.632355,0.021625,1.650185,-0.487397,-0.021624,0.872912,0.000000,0.000000,0.000000,-1,-0.136402,-0.160530,-0.289624,-0.331893,-0.449385,0.116636
"2019-10-15 10:57:19.863 +0000",1571137039.862633,-2.635651,0.024922,1.653551,-0.484481,-0.024919,0.874447,0.000000,0.000000,0.000000,-1,-0.016865,-0.155622,-0.187320,-0.185319,-0.296950,-0.006695
"2019-10-15 10:57:19.883 +0000",1571137039.882508,-2.639250,0.026411,1.656321,-0.481312,-0.026408,0.876152,0.000000,0.000000,0.000000,-1,0.002748,-0.238336,-0.119992,-0.078609,-0.225515,-0.041938
"2019-10-15 10:57:19.902 +0000",1571137039.902383,-2.645121,0.026879,1.657717,-0.476154,-0.026876,0.878951,0.000000,0.000000,0.000000,-1,0.045611,-0.342318,-0.029577,-0.099591,-0.140299,-0.116241
"2019-10-15 10:57:19.922 +0000",1571137039.922258,-2.653338,0.025693,1.658626,-0.468930,-0.025690,0.882861,0.000000,0.000000,0.000000,-1,0.097743,-0.450457,-0.014733,-0.027056,-0.107351,-0.198932
"2019-10-15 10:57:19.942 +0000",1571137039.942132,-2.662923,0.024138,1.660432,-0.460464,-0.024136,0.887350,0.000000,0.000000,0.000000,-1,0.120354,-0.517809,-0.067983,0.035507,-0.079105,-0.209829
"2019-10-15 10:57:19.962 +0000",1571137039.962008,-2.673559,0.022811,1.662923,-0.451015,-0.022809,0.892225,0.000000,0.000000,0.000000,-1,0.090460,-0.511525,-0.088712,0.084911,-0.000782,-0.224852
"2019-10-15 10:57:19.982 +0000",1571137039.981882,-2.682338,0.022110,1.664792,-0.443172,-0.022108,0.896164,0.000000,0.000000,0.000000,-1,0.060704,-0.390914,-0.026730,0.124736,0.046721,-0.199692
"2019-10-15 10:57:20.002 +0000",1571137040.001756,-2.689702,0.020590,1.664381,-0.436574,-0.020588,0.899433,0.000000,0.000000,0.000000,-1,0.078830,-0.344469,0.131668,0.232473,0.013783,-0.204563
"2019-10-15 10:57:20.022 +0000",1571137040.021632,-2.695920,0.016763,1.662207,-0.431004,-0.016762,0.902194,0.000000,0.000000,0.000000,-1,0.165626,-0.295927,0.210866,0.208653,-0.057304,-0.185107
"2019-10-15 10:57:20.042 +0000",1571137040.041507,-2.701344,0.012087,1.660172,-0.426133,-0.012087,0.904580,0.000000,0.000000,0.000000,-1,0.180385,-0.226659,0.162165,0.049455,-0.028746,-0.094125
"2019-10-15 10:57:20.061 +0000",1571137040.061381,-2.705227,0.007570,1.658946,-0.422636,-0.007570,0.906268,0.000000,0.000000,0.000000,-1,0.160737,-0.170950,0.153380,-0.035174,0.007738,-0.011966
"2019-10-15 10:57:20.081 +0000",1571137040.081256,-2.708125,0.003915,1.656567,-0.420017,-0.003915,0.907508,0.000000,0.000000,0.000000,-1,0.094379,-0.115245,0.239873,-0.055783,-0.034018,0.057564
"2019-10-15 10:57:20.101 +0000",1571137040.101131,-2.709516,-0.001444,1.652384,-0.418757,0.001444,0.908097,0.000000,0.000000,0.000000,-1,0.232842,-0.020354,0.352805,0.012873,-0.083811,-0.015214
"2019-10-15 10:57:20.121 +0000",1571137040.121005,-2.708725,-0.009627,1.647931,-0.419456,0.009627,0.907725,0.000000,0.000000,0.000000,-1,0.308787,0.102353,0.386616,-0.035592,-0.103010,-0.038050
"2019-10-15 10:57:20.141 +0000",1571137040.140879,-2.706850,-0.017868,1.643389,-0.421109,0.017867,0.906834,0.000000,0.000000,0.000000,-1,0.236118,0.078706,0.369166,-0.086596,-0.016860,0.024990
"2019-10-15 10:57:20.161 +0000",1571137040.160755,-2.694633,-0.008459,1.639464,-0.432211,0.008459,0.901733,0.000000,0.000000,0.000000,-1,0.357890,0.202926,0.352083,-0.084116,0.034998,-0.004028
"2019-10-15 10:57:20.181 +0000",1571137040.180629,-2.698562,0.023514,1.636301,-0.428561,-0.023511,0.903207,0.000000,0.000000,0.000000,-1,0.473819,0.351508,0.434584,-0.036343,0.055280,-0.062463
"2019-10-15 10:57:20.201 +0000",1571137040.200505,-2.683392,0.042131,1.631747,-0.441942,-0.042118,0.896054,0.000000,0.000000,0.000000,-1,0.351840,0.354079,0.429136,-0.013822,0.147679,0.011905
"2019-10-15 10:57:20.220 +0000",1571137040.220379,-2.672893,0.036294,1.627330,-0.451429,-0.036286,0.891569,0.000000,0.000000,0.000000,-1,0.135107,0.220009,0.286827,-0.177095,0.369980,0.067995
"2019-10-15 10:57:20.240 +0000",1571137040.240253,-2.668663,0.032519,1.623205,-0.455255,-0.032513,0.889767,0.000000,0.000000,0.000000,-1,0.006994,0.197957,0.270293,-0.258658,0.361859,0.018222
"2019-10-15 10:57:20.260 +0000",1571137040.260129,-2.664921,0.030326,1.617796,-0.458613,-0.030321,0.888119,0.000000,0.000000,0.000000,-1,-0.043925,0.164571,0.312888,-0.151097,0.272127,-0.058254
"2019-10-15 10:57:20.280 +0000",1571137040.280003,-2.661413,0.028160,1.611988,-0.461755,-0.028156,0.886560,0.000000,0.000000,0.000000,-1,-0.011789,0.181515,0.289420,-0.109244,0.123935,-0.143885
"2019-10-15 10:57:20.300 +0000",1571137040.299878,-2.657432,0.025039,1.607950,-0.465320,-0.025036,0.884788,0.000000,0.000000,0.000000,-1,0.099180,0.187340,0.209240,-0.141186,0.075253,-0.201362
"2019-10-15 10:57:20.320 +0000",1571137040.319753,-2.654894,0.021119,1.605934,-0.467607,-0.021118,0.883684,0.000000,0.000000,0.000000,-1,0.151351,0.062776,0.162423,-0.215575,0.156616,-0.147204
"2019-10-15 10:57:20.340 +0000",1571137040.339628,-2.654539,0.016803,1.605104,-0.467958,-0.016802,0.883591,0.000000,0.000000,0.000000,-1,0.185318,0.006949,0.109117,-0.211989,0.198458,-0.104599
"2019-10-15 10:57:20.360 +0000",1571137040.359502,-2.633450,-0.005440,1.605607,-0.486548,0.005440,0.873637,0.000000,0.000000,0.000000,-1,0.196547,0.060323,0.034803,-0.162744,0.191017,-0.073008
"2019-10-15 10:57:20.379 +0000",1571137040.379377,-2.606403,-0.014837,1.607825,-0.509948,0.014836,0.860078,0.000000,0.000000,0.000000,-1,0.175368,0.092543,-0.038770,-0.061311,0.176600,-0.037873
"2019-10-15 10:57:20.399 +0000",1571137040.399252,-2.566843,-0.033783,1.611331,-0.543315,0.033777,0.838849,0.000000,0.000000,0.000000,-1,0.070178,0.079719,-0.107081,0.020869,0.151007,0.033877
"2019-10-15 10:57:20.419 +0000",1571137040.419127,-2.541180,-0.058329,1.614449,-0.564022,0.058296,0.823699,0.000000,0.000000,0.000000,-1,-0.036575,0.005037,-0.122036,0.024792,0.119103,0.085465
"2019-10-15 10:57:20.439 +0000",1571137040.439002,-2.528907,-0.077154,1.616845,-0.573356,0.077077,0.815673,0.000000,0.000000,0.000000,-1,-0.028294,0.059758,-0.123071,0.033470,0.057993,0.001954
"2019-10-15 10:57:20.459 +0000",1571137040.458876,-2.527948,-0.091353,1.618397,-0.573450,0.091226,0.814146,0.000000,0.000000,0.000000,-1,-0.036110,0.118385,-0.117010,0.077188,-0.011514,-0.030683
"2019-10-15 10:57:20.479 +0000",1571137040.478751,-2.536791,-0.103295,1.618556,-0.565568,0.103111,0.818230,0.000000,0.000000,0.000000,-1,-0.051791,0.035587,-0.088821,0.088395,-0.060005,-0.044411
"2019-10-15 10:57:20.499 +0000",1571137040.498625,-2.548231,-0.110689,1.617514,-0.555729,0.110463,0.823992,0.000000,0.000000,0.000000,-1,-0.093633,-0.063335,-0.079736,0.045323,-0.066182,-0.033007
"2019-10-15 10:57:20.519 +0000",1571137040.518500,-2.553535,-0.111733,1.616838,-0.551287,0.111500,0.826832,0.000000,0.000000,0.000000,-1,-0.168345,-0.180152,-0.052058,-0.018446,-0.042332,-0.033588
"2019-10-15 10:57:20.538 +0000",1571137040.538375,-2.559272,-0.107485,1.615331,-0.546790,0.107278,0.830369,0.000000,0.000000,0.000000,-1,-0.204808,-0.272803,-0.030903,0.008186,0.011664,-0.050736
"2019-10-15 10:57:20.558 +0000",1571137040.558251,-2.566739,-0.100930,1.613228,-0.540945,0.100759,0.835001,0.000000,0.000000,0.000000,-1,-0.209395,-0.262124,-0.025912,0.030585,0.025019,-0.038614
"2019-10-15 10:57:20.578 +0000",1571137040.578124,-2.570883,-0.095282,1.611732,-0.537779,0.095138,0.837700,0.000000,0.000000,0.000000,-1,-0.186437,-0.176707,-0.054558,0.064909,0.012497,-0.105706
"2019-10-15 10:57:20.598 +0000",1571137040.598000,-2.573922,-0.090699,1.611386,-0.535459,0.090574,0.839690,0.000000,0.000000,0.000000,-1,-0.222593,-0.129145,-0.160252,0.061384,0.084963,-0.078170
"2019-10-15 10:57:20.618 +0000",1571137040.617874,-2.576364,-0.084409,1.611823,-0.533702,0.084309,0.841460,0.000000,0.000000,0.000000,-1,-0.306990,-0.141747,-0.202580,0.041987,0.075115,-0.031706
"2019-10-15 10:57:20.638 +0000",1571137040.637748,-2.580033,-0.077368,1.610885,-0.530914,0.077291,0.843894,0.000000,0.000000,0.000000,-1,-0.391071,-0.220379,-0.123619,0.053039,0.042491,0.022531
"2019-10-15 10:57:20.658 +0000",1571137040.657624,-2.583881,-0.071505,1.608149,-0.527893,0.071444,0.846300,0.000000,0.000000,0.000000,-1,-0.391911,-0.152470,-0.047540,0.057678,0.008680,0.000959
"2019-10-15 10:57:20.677 +0000",1571137040.677498,-2.585380,-0.068183,1.604741,-0.526747,0.068130,0.847288,0.000000,0.000000,0.000000,-1,-0.357459,0.053727,-0.030367,0.027586,-0.039275,0.008563
"2019-10-15 10:57:20.697 +0000",1571137040.697373,-2.583528,-0.066530,1.601774,-0.528374,0.066481,0.846405,0.000000,0.000000,0.000000,-1,-0.259999,0.195828,-0.005307,0.000328,-0.075087,0.043915
"2019-10-15 10:57:20.717 +0000",1571137040.717247,-2.581835,-0.065785,1.599102,-0.529832,0.065737,0.845551,0.000000,0.000000,0.000000,-1,-0.190177,0.238194,0.038288,0.022752,-0.128695,0.077270
"2019-10-15 10:57:20.737 +0000",1571137040.737122,-2.580605,-0.065495,1.595637,-0.530882,0.065448,0.844915,0.000000,0.000000,0.000000,-1,-0.114572,0.236185,0.135273,0.120863,-0.125552,0.087458
"2019-10-15 10:57:20.757 +0000",1571137040.756998,-2.576836,-0.064762,1.592040,-0.534088,0.064717,0.842948,0.000000,0.000000,0.000000,-1,-0.080510,0.366195,0.150302,0.025238,-0.123311,0.089181
"2019-10-15 10:57:20.777 +0000",1571137040.776871,-2.571293,-0.061989,1.588801,-0.538847,0.061950,0.840123,0.000000,0.000000,0.000000,-1,-0.074166,0.393823,0.123790,-0.026308,-0.064894,0.067791
"2019-10-15 10:57:20.797 +0000",1571137040.796746,-2.566542,-0.058088,1.586240,-0.542960,0.058055,0.837749,0.000000,0.000000,0.000000,-1,-0.045117,0.352256,0.101781,-0.071344,-0.049251,0.050556
"2019-10-15 10:57:20.817 +0000",1571137040.816622,-2.564602,-0.055118,1.583918,-0.544676,0.055090,0.836835,0.000000,0.000000,0.000000,-1,-0.021767,0.340224,0.097179,-0.059496,-0.041769,0.032214
"2019-10-15 10:57:20.836 +0000",1571137040.836496,-2.560694,-0.053077,1.581964,-0.548003,0.053053,0.834792,0.000000,0.000000,0.000000,-1,-0.022297,0.333230,0.093995,-0.038942,-0.016050,0.011338
"2019-10-15 10:57:20.856 +0000",1571137040.856370,-2.555627,-0.052052,1.580149,-0.552255,0.052029,0.832050,0.000000,0.000000,0.000000,-1,-0.038252,0.316407,0.083322,-0.027609,-0.000973,-0.042194
"2019-10-15 10:57:20.876 +0000",1571137040.876246,-2.549770,-0.050751,1.578393,-0.557157,0.050729,0.828856,0.000000,0.000000,0.000000,-1,-0.055126,0.256423,0.062357,-0.041171,0.006171,-0.093352
"2019-10-15 10:57:20.896 +0000",1571137040.896121,-2.544659,-0.048856,1.577186,-0.561438,0.048837,0.826076,0.000000,0.000000,0.000000,-1,-0.037054,0.206354,0.025434,-0.051568,0.010031,-0.121334
"2019-10-15 10:57:20.916 +0000",1571137040.915995,-2.541193,-0.047904,1.576629,-0.564324,0.047885,0.824163,0.000000,0.000000,0.000000,-1,-0.016541,0.126293,0.011822,-0.042793,0.013272,-0.122549
"2019-10-15 10:57:20.936 +0000",1571137040.935870,-2.538386,-0.047832,1.576584,-0.566637,0.047814,0.822579,0.000000,0.000000,0.000000,-1,-0.000549,0.065331,-0.007859,-0.046506,0.003547,-0.105614
"2019-10-15 10:57:20.956 +0000",1571137040.955745,-2.534946,-0.047973,1.577025,-0.569460,0.047955,0.820619,0.000000,0.000000,0.000000,-1,-0.006326,0.021950,-0.030621,-0.067610,0.005344,-0.086336
"2019-10-15 10:57:20.976 +0000",1571137040.975619,-2.532200,-0.047741,1.577610,-0.571718,0.047723,0.819061,0.000000,0.000000,0.000000,-1,-0.012621,-0.048788,-0.037044,-0.071013,0.009268,-0.062729
"2019-10-15 10:57:20.995 +0000",1571137040.995495,-2.530977,-0.047424,1.578164,-0.572727,0.047406,0.818374,0.000000,0.000000,0.000000,-1,-0.020205,-0.094913,-0.039127,-0.061718,-0.004392,-0.045226
"2019-10-15 10:57:21.015 +0000",1571137041.015369,-2.530643,-0.046735,1.578728,-0.573019,0.046718,0.818209,0.000000,0.000000,0.000000,-1,-0.028250,-0.112699,-0.048166,-0.049341,0.000538,-0.029025
"2019-10-15 10:57:21.035 +0000",1571137041.035244,-2.529933,-0.045882,1.579382,-0.573623,0.045866,0.817834,0.000000,0.000000,0.000000,-1,-0.023745,-0.098521,-0.045661,-0.029160,-0.002272,-0.013711
"2019-10-15 10:57:21.055 +0000",1571137041.055119,-2.528711,-0.045418,1.579846,-0.574634,0.045402,0.817150,0.000000,0.000000,0.000000,-1,-0.018647,-0.081062,-0.023997,-0.003583,-0.018623,0.004871
"2019-10-15 10:57:21.075 +0000",1571137041.074994,-2.527022,-0.044911,1.580047,-0.576026,0.044896,0.816197,0.000000,0.000000,0.000000,-1,-0.008355,-0.064341,-0.011299,-0.004906,-0.026524,0.018153
"2019-10-15 10:57:21.095 +0000",1571137041.094868,-2.525616,-0.044672,1.580324,-0.577180,0.044657,0.815395,0.000000,0.000000,0.000000,-1,0.008209,-0.030374,-0.016290,-0.010360,-0.022974,0.017368
"2019-10-15 10:57:21.115 +0000",1571137041.114742,-2.524477,-0.044726,1.580899,-0.578107,0.044711,0.814735,0.000000,0.000000,0.000000,-1,0.022515,0.003431,-0.017545,0.000775,-0.022769,0.016274
"2019-10-15 10:57:21.135 +0000",1571137041.134618,-2.524559,-0.044340,1.581273,-0.578050,0.044326,0.814797,0.000000,0.000000,0.000000,-1,0.005796,-0.030646,-0.001787,0.023530,-0.025832,0.028526
"2019-10-15 10:57:21.154 +0000",1571137041.154492,-2.525697,-0.043416,1.581063,-0.577145,0.043402,0.815487,0.000000,0.000000,0.000000,-1,-0.020503,-0.051895,0.011454,0.035016,-0.017035,0.019077
"2019-10-15 10:57:21.174 +0000",1571137041.174366,-2.527285,-0.041870,1.580212,-0.575888,0.041858,0.816456,0.000000,0.000000,0.000000,-1,-0.096358,-0.108947,0.013949,0.034872,0.010297,0.021999
"2019-10-15 10:57:21.194 +0000",1571137041.194241,-2.530176,-0.039216,1.578636,-0.573587,0.039205,0.818206,0.000000,0.000000,0.000000,-1,-0.152253,-0.146405,-0.004688,0.056924,0.037607,0.014405
"2019-10-15 10:57:21.214 +0000",1571137041.214117,-2.533160,-0.035773,1.576862,-0.571216,0.035766,0.820020,0.000000,0.000000,0.000000,-1,-0.191580,-0.087963,-0.011443,0.069126,0.040132,-0.042692
"2019-10-15 10:57:21.234 +0000",1571137041.233991,-2.535398,-0.032910,1.574948,-0.569436,0.032904,0.821377,0.000000,0.000000,0.000000,-1,-0.122183,-0.041553,0.024576,0.069085,0.039819,-0.094204
"2019-10-15 10:57:21.254 +0000",1571137041.253865,-2.536841,-0.032051,1.572910,-0.568266,0.032046,0.822221,0.000000,0.000000,0.000000,-1,-0.111125,-0.051597,0.067679,0.021009,0.055998,-0.106797
"2019-10-15 10:57:21.274 +0000",1571137041.273741,-2.539425,-0.030006,1.570120,-0.566175,0.030002,0.823739,0.000000,0.000000,0.000000,-1,-0.283918,-0.119199,-0.011088,-0.088442,0.141995,0.017463
"2019-10-15 10:57:21.294 +0000",1571137041.293615,-2.542072,-0.025272,1.567482,-0.564066,0.025269,0.825343,0.000000,0.000000,0.000000,-1,-0.343722,-0.060945,-0.088163,-0.146230,0.105011,0.044454
"2019-10-15 10:57:21.313 +0000",1571137041.313489,-2.543927,-0.019981,1.565627,-0.562602,0.019980,0.826487,0.000000,0.000000,0.000000,-1,-0.315224,-0.090671,-0.125182,-0.091069,-0.010443,-0.005091
"2019-10-15 10:57:21.333 +0000",1571137041.333364,-2.545522,-0.015339,1.563248,-0.561329,0.015339,0.827451,0.000000,0.000000,0.000000,-1,-0.355490,-0.161400,-0.029978,0.030384,-0.036243,0.018039
"2019-10-15 10:57:21.353 +0000",1571137041.353240,-2.546802,-0.011555,1.559150,-0.560298,0.011555,0.828210,0.000000,0.000000,0.000000,-1,-0.431189,-0.079804,-0.000474,0.038997,0.015270,0.053061
"2019-10-15 10:57:21.373 +0000",1571137041.373114,-2.546078,-0.007083,1.553849,-0.560921,0.007083,0.827839,0.000000,0.000000,0.000000,-1,-0.432392,-0.019775,0.025652,0.055611,0.058759,0.058773
"2019-10-15 10:57:21.393 +0000",1571137041.392989,-2.543082,-0.002319,1.549585,-0.563411,0.002319,0.826174,0.000000,0.000000,0.000000,-1,-0.242882,0.174260,0.028624,0.034480,0.039902,-0.025835
"2019-10-15 10:57:21.413 +0000",1571137041.412863,-2.536595,0.000597,1.547838,-0.568760,-0.000597,0.822504,0.000000,0.000000,0.000000,-1,-0.060538,0.483031,-0.019184,0.033039,-0.054045,-0.048990
"2019-10-15 10:57:21.433 +0000",1571137041.432739,-2.527251,-0.001048,1.548536,-0.576421,0.001048,0.817153,0.000000,0.000000,0.000000,-1,0.209639,0.552701,0.058815,0.071004,-0.167217,-0.084792
"2019-10-15 10:57:21.453 +0000",1571137041.452613,-2.519232,-0.007903,1.550016,-0.582936,0.007903,0.812479,0.000000,0.000000,0.000000,-1,0.348868,0.284192,0.189988,0.115163,-0.293837,-0.088816
"2019-10-15 10:57:21.472 +0000",1571137041.472488,-2.516992,-0.014153,1.550403,-0.584715,0.014152,0.811116,0.000000,0.000000,0.000000,-1,0.243344,0.070426,0.126001,0.181562,-0.051124,-0.105671
"2019-10-15 10:57:21.492 +0000",1571137041.492362,-2.510987,-0.020193,1.551567,-0.589514,0.020192,0.807506,0.000000,0.000000,0.000000,-1,0.283159,0.450026,0.187870,-0.036524,0.072398,0.120427
"2019-10-15 10:57:21.512 +0000",1571137041.512237,-2.505030,-0.025600,1.550592,-0.594240,0.025598,0.803880,0.000000,0.000000,0.000000,-1,0.056452,0.105488,0.099218,-0.215330,0.042212,0.150695
"2019-10-15 10:57:21.532 +0000",1571137041.532112,-2.503474,-0.024010,1.553229,-0.595513,0.024007,0.802986,0.000000,0.000000,0.000000,-1,0.042180,0.162578,-0.334326,-0.176444,-0.158071,-0.073662
"2019-10-15 10:57:21.552 +0000",1571137041.551987,-2.499363,-0.022237,1.557763,-0.598835,0.022235,0.800564,0.000000,0.000000,0.000000,-1,0.031415,0.142468,-0.049228,0.234561,-0.195300,-0.058697
"2019-10-15 10:57:21.572 +0000",1571137041.571861,-2.497135,-0.022080,1.555722,-0.600619,0.022078,0.799231,0.000000,0.000000,0.000000,-1,-0.136928,0.116609,0.139899,0.000506,0.263765,0.115061
"2019-10-15 10:57:21.592 +0000",1571137041.591736,-2.494441,-0.021510,1.552156,-0.602777,0.021508,0.797620,0.000000,0.000000,0.000000,-1,-0.132721,0.157479,0.108767,-0.082374,0.064704,0.014285
"2019-10-15 10:57:21.612 +0000",1571137041.611611,-2.491919,-0.020422,1.548906,-0.604800,0.020420,0.796115,0.000000,0.000000,0.000000,-1,-0.141879,0.090643,0.070935,0.101032,-0.026173,0.032635
"2019-10-15 10:57:21.631 +0000",1571137041.631485,-2.490280,-0.018697,1.547696,-0.606125,0.018696,0.795150,0.000000,0.000000,0.000000,-1,-0.041367,0.102634,-0.083125,0.109131,-0.111668,-0.017378
"2019-10-15 10:57:21.651 +0000",1571137041.651360,-2.487539,-0.017931,1.550177,-0.608310,0.017930,0.793497,0.000000,0.000000,0.000000,-1,0.111773,0.162189,-0.150112,-0.010128,-0.062089,-0.115549
"2019-10-15 10:57:21.671 +0000",1571137041.671236,-2.484288,-0.018328,1.554381,-0.610883,0.018327,0.791509,0.000000,0.000000,0.000000,-1,0.165639,0.139079,-0.150704,-0.061893,0.009825,-0.062627
"2019-10-15 10:57:21.691 +0000",1571137041.691110,-2.481282,-0.019244,1.558582,-0.613249,0.019243,0.789655,0.000000,0.000000,0.000000,-1,0.156981,0.166485,-0.127908,-0.090303,0.024428,-0.042005
"2019-10-15 10:57:21.711 +0000",1571137041.710984,-2.479008,-0.019636,1.562301,-0.615038,0.019635,0.788253,0.000000,0.000000,0.000000,-1,0.089729,0.040789,-0.145132,-0.029615,0.015185,-0.041778
"2019-10-15 10:57:21.731 +0000",1571137041.730859,-2.478205,-0.017570,1.564800,-0.615695,0.017569,0.787789,0.000000,0.000000,0.000000,-1,-0.041032,-0.028370,-0.137521,-0.006864,-0.043921,0.023216
"2019-10-15 10:57:21.751 +0000",1571137041.750735,-2.477323,-0.014410,1.565822,-0.616420,0.014410,0.787285,0.000000,0.000000,0.000000,-1,-0.126243,-0.054991,-0.128833,-0.011463,-0.056158,0.041572
"2019-10-15 10:57:21.771 +0000",1571137041.770609,-2.477001,-0.011451,1.566182,-0.616697,0.011451,0.787117,0.000000,0.000000,0.000000,-1,-0.102832,-0.111376,-0.093719,-0.017580,-0.098670,0.010398
"2019-10-15 10:57:21.790 +0000",1571137041.790484,-2.477944,-0.010285,1.566380,-0.615963,0.010285,0.787708,0.000000,0.000000,0.000000,-1,-0.023218,-0.115284,-0.036493,-0.024632,-0.122300,-0.028354
"2019-10-15 10:57:21.810 +0000",1571137041.810358,-2.479818,-0.009564,1.566920,-0.614490,0.009563,0.788867,0.000000,0.000000,0.000000,-1,0.025376,-0.085220,-0.028972,-0.015011,-0.063793,-0.024768
"2019-10-15 10:57:21.830 +0000",1571137041.830232,-2.481572,-0.008467,1.567615,-0.613111,0.008467,0.789951,0.000000,0.000000,0.000000,-1,0.006716,-0.076469,-0.031018,0.029996,0.007768,0.006512
"2019-10-15 10:57:21.850 +0000",1571137041.850107,-2.482812,-0.006060,1.567934,-0.612142,0.006060,0.790725,0.000000,0.000000,0.000000,-1,-0.044249,-0.057129,-0.032513,0.064824,0.044996,0.020036
"2019-10-15 10:57:21.870 +0000",1571137041.869982,-2.482769,-0.001819,1.567466,-0.612186,0.001819,0.790712,0.000000,0.000000,0.000000,-1,-0.114038,-0.040492,-0.032301,0.054844,0.041928,0.021453
"2019-10-15 10:57:21.890 +0000",1571137041.889857,-2.482744,0.002102,1.566373,-0.612205,-0.002102,0.790696,0.000000,0.000000,0.000000,-1,-0.128751,-0.045751,-0.026406,0.032005,0.021007,0.007049
"2019-10-15 10:57:21.910 +0000",1571137041.909731,-2.483693,0.004206,1.565369,-0.611451,-0.004206,0.791271,0.000000,0.000000,0.000000,-1,-0.102172,-0.025841,-0.032410,0.002900,0.000437,-0.008709
"2019-10-15 10:57:21.930 +0000",1571137041.929607,-2.485142,0.004883,1.564900,-0.610302,-0.004883,0.792154,0.000000,0.000000,0.000000,-1,-0.066136,-0.004039,-0.039221,-0.008930,0.001770,-0.013895
"2019-10-15 10:57:21.949 +0000",1571137041.949480,-2.486196,0.005216,1.564811,-0.609466,-0.005216,0.792795,0.000000,0.000000,0.000000,-1,-0.052960,0.006692,-0.039341,0.007537,0.021299,-0.019770
"2019-10-15 10:57:21.969 +0000",1571137041.969355,-2.486770,0.005824,1.564766,-0.609009,-0.005824,0.793142,0.000000,0.000000,0.000000,-1,-0.052505,-0.004990,-0.028074,0.030258,0.025294,-0.019644
"2019-10-15 10:57:21.989 +0000",1571137041.989231,-2.486972,0.007230,1.564301,-0.608843,-0.007230,0.793258,0.000000,0.000000,0.000000,-1,-0.096439,-0.007606,-0.030398,0.028429,0.020109,-0.004913
"2019-10-15 10:57:22.009 +0000",1571137042.009105,-2.486867,0.009132,1.563574,-0.608916,-0.009132,0.793182,0.000000,0.000000,0.000000,-1,-0.098089,-0.008964,-0.034179,0.009292,0.002586,-0.006912
"2019-10-15 10:57:22.029 +0000",1571137042.028980,-2.486923,0.011007,1.562948,-0.608861,-0.011006,0.793201,0.000000,0.000000,0.000000,-1,-0.115303,-0.011095,-0.053066,-0.003765,-0.016993,-0.005084
"2019-10-15 10:57:22.049 +0000",1571137042.048855,-2.487344,0.012856,1.562589,-0.608513,-0.012856,0.793440,0.000000,0.000000,0.000000,-1,-0.089423,-0.020110,-0.060801,-0.019615,-0.024558,-0.002790
"2019-10-15 10:57:22.069 +0000",1571137042.068730,-2.488384,0.014323,1.562601,-0.607675,-0.014322,0.794056,0.000000,0.000000,0.000000,-1,-0.072527,-0.050431,-0.062048,-0.022315,-0.025122,0.002605
"2019-10-15 10:57:22.089 +0000",1571137042.088604,-2.489678,0.016254,1.562653,-0.606629,-0.016254,0.794819,0.000000,0.000000,0.000000,-1,-0.093647,-0.058340,-0.078384,-0.022033,-0.033948,0.020504
"2019-10-15 10:57:22.108 +0000",1571137042.108479,-2.490436,0.018847,1.562993,-0.605999,-0.018846,0.795242,0.000000,0.000000,0.000000,-1,-0.082760,-0.028618,-0.097814,-0.006687,-0.034987,0.012406
"2019-10-15 10:57:22.128 +0000",1571137042.128353,-2.490162,0.021246,1.563672,-0.606188,-0.021244,0.795038,0.000000,0.000000,0.000000,-1,-0.042456,0.025189,-0.078737,0.022325,-0.033123,-0.003854
"2019-10-15 10:57:22.148 +0000",1571137042.148228,-2.488910,0.022605,1.564398,-0.607164,-0.022603,0.794255,0.000000,0.000000,0.000000,-1,-0.001642,0.067488,-0.047642,0.029863,-0.038569,-0.008564
"2019-10-15 10:57:22.168 +0000",1571137042.168103,-2.487415,0.023155,1.565168,-0.608344,-0.023153,0.793336,0.000000,0.000000,0.000000,-1,0.030555,0.063155,-0.020532,0.016898,-0.055048,-0.007905
"2019-10-15 10:57:22.188 +0000",1571137042.187978,-2.486501,0.023121,1.565619,-0.609069,-0.023119,0.792780,0.000000,0.000000,0.000000,-1,0.038447,0.039804,0.015689,0.020126,-0.069532,-0.006541
"2019-10-15 10:57:22.208 +0000",1571137042.207851,-2.485674,0.022579,1.565736,-0.609732,-0.022578,0.792286,0.000000,0.000000,0.000000,-1,0.045400,0.074778,0.034433,0.013525,-0.034414,-0.010929
"2019-10-15 10:57:22.228 +0000",1571137042.227727,-2.484522,0.022238,1.565809,-0.610649,-0.022236,0.791589,0.000000,0.000000,0.000000,-1,0.016689,0.056808,0.005379,0.006798,0.006153,-0.017694
"2019-10-15 10:57:22.248 +0000",1571137042.247602,-2.484357,0.023768,1.565772,-0.610758,-0.023766,0.791461,0.000000,0.000000,0.000000,-1,-0.088177,-0.007086,-0.047405,0.008371,0.056496,-0.034930
"2019-10-15 10:57:22.267 +0000",1571137042.267476,-2.484629,0.026736,1.565043,-0.610497,-0.026733,0.791567,0.000000,0.000000,0.000000,-1,-0.108237,-0.017331,-0.023089,-0.027046,0.060989,-0.016558
"2019-10-15 10:57:22.287 +0000",1571137042.287351,-2.485542,0.029421,1.564548,-0.609728,-0.029417,0.792064,0.000000,0.000000,0.000000,-1,-0.091316,-0.060899,-0.082935,-0.077650,0.051100,-0.012142
"2019-10-15 10:57:22.307 +0000",1571137042.307226,-2.486621,0.031840,1.565532,-0.608828,-0.031834,0.792663,0.000000,0.000000,0.000000,-1,-0.048673,-0.040909,-0.135821,-0.032819,-0.049327,-0.024581
"2019-10-15 10:57:22.327 +0000",1571137042.327100,-2.487102,0.033184,1.567009,-0.608420,-0.033178,0.792921,0.000000,0.000000,0.000000,-1,-0.032507,-0.032685,-0.102609,0.038000,-0.084009,-0.011809
"2019-10-15 10:57:22.347 +0000",1571137042.346975,-2.487456,0.033586,1.567858,-0.608132,-0.033580,0.793126,0.000000,0.000000,0.000000,-1,-0.031548,-0.038288,-0.057733,0.050087,-0.032155,0.011790
"2019-10-15 10:57:22.367 +0000",1571137042.366850,-2.487129,0.033680,1.568133,-0.608389,-0.033674,0.792925,0.000000,0.000000,0.000000,-1,-0.022495,-0.004515,-0.026690,0.037756,-0.009951,0.031065
"2019-10-15 10:57:22.387 +0000",1571137042.386724,-2.486037,0.034324,1.568109,-0.609241,-0.034317,0.792242,0.000000,0.000000,0.000000,-1,-0.007874,0.033816,0.002558,0.027576,-0.021454,0.042978
"2019-10-15 10:57:22.407 +0000",1571137042.406600,-2.485092,0.035438,1.567826,-0.609966,-0.035431,0.791636,0.000000,0.000000,0.000000,-1,-0.003754,0.065516,0.024442,0.018291,-0.023361,0.045568
"2019-10-15 10:57:22.426 +0000",1571137042.426474,-2.484239,0.035727,1.567256,-0.610635,-0.035719,0.791107,0.000000,0.000000,0.000000,-1,-0.006096,0.075011,0.041441,0.009820,-0.025682,0.039246
"2019-10-15 10:57:22.446 +0000",1571137042.446349,-2.483345,0.035285,1.566526,-0.611351,-0.035278,0.790573,0.000000,0.000000,0.000000,-1,0.004801,0.083534,0.057005,0.006599,-0.029724,0.016831
"2019-10-15 10:57:22.466 +0000",1571137042.466223,-2.482222,0.034706,1.565578,-0.612251,-0.034699,0.789902,0.000000,0.000000,0.000000,-1,-0.001348,0.089354,0.071028,0.015922,-0.021255,-0.010513
"2019-10-15 10:57:22.486 +0000",1571137042.486098,-2.481160,0.034151,1.564339,-0.613101,-0.034144,0.789266,0.000000,0.000000,0.000000,-1,-0.011018,0.074123,0.078395,0.015353,0.000178,-0.036428
"2019-10-15 10:57:22.506 +0000",1571137042.505973,-2.480394,0.033749,1.562990,-0.613714,-0.033743,0.788807,0.000000,0.000000,0.000000,-1,-0.014624,0.047640,0.073831,0.007864,0.008703,-0.048466
"2019-10-15 10:57:22.526 +0000",1571137042.525848,-2.479972,0.033598,1.561781,-0.614050,-0.033592,0.788552,0.000000,0.000000,0.000000,-1,-0.018447,0.020533,0.059332,0.004248,0.005852,-0.047204
"2019-10-15 10:57:22.546 +0000",1571137042.545723,-2.479850,0.033580,1.560761,-0.614146,-0.033574,0.788478,0.000000,0.000000,0.000000,-1,-0.017411,-0.001114,0.042736,-0.009572,0.008793,-0.036327
"2019-10-15 10:57:22.566 +0000",1571137042.565597,-2.479998,0.033557,1.559967,-0.614030,-0.033550,0.788570,0.000000,0.000000,0.000000,-1,-0.023216,-0.021357,0.025513,-0.015898,0.017056,-0.026027
"2019-10-15 10:57:22.585 +0000",1571137042.585471,-2.480352,0.033717,1.559275,-0.613747,-0.033710,0.788783,0.000000,0.000000,0.000000,-1,-0.036341,-0.036750,0.016722,-0.013542,0.019321,-0.020350
"2019-10-15 10:57:22.605 +0000",1571137042.605347,-2.480971,0.034184,1.558509,-0.613249,-0.034177,0.789150,0.000000,0.000000,0.000000,-1,-0.046873,-0.053649,0.013639,-0.011461,0.005598,-0.019253
"2019-10-15 10:57:22.625 +0000",1571137042.625221,-2.481873,0.034695,1.557714,-0.612526,-0.034688,0.789689,0.000000,0.000000,0.000000,-1,-0.047441,-0.055537,0.014189,-0.005684,-0.008296,-0.016526
"2019-10-15 10:57:22.645 +0000",1571137042.645095,-2.482841,0.035048,1.556940,-0.611754,-0.035041,0.790272,0.000000,0.000000,0.000000,-1,-0.028564,-0.073916,0.019544,-0.001649,-0.019021,-0.008442
"2019-10-15 10:57:22.665 +0000",1571137042.664971,-2.484151,0.034750,1.556428,-0.610725,-0.034743,0.791080,0.000000,0.000000,0.000000,-1,-0.002362,-0.082340,0.027186,-0.022103,-0.030671,-0.013355
"2019-10-15 10:57:22.685 +0000",1571137042.684846,-2.485515,0.034260,1.556118,-0.609655,-0.034254,0.791926,0.000000,0.000000,0.000000,-1,0.016996,-0.090957,0.027664,-0.020182,-0.035189,0.000569
"2019-10-15 10:57:22.705 +0000",1571137042.704719,-2.487915,0.032885,1.555966,-0.607781,-0.032879,0.793424,0.000000,0.000000,0.000000,-1,0.084929,-0.189214,0.076176,-0.018989,-0.054263,-0.032590
"2019-10-15 10:57:22.725 +0000",1571137042.724595,-2.490743,0.030640,1.555839,-0.605578,-0.030635,0.795196,0.000000,0.000000,0.000000,-1,0.094209,-0.079168,0.069254,-0.027235,-0.055348,0.004014
"2019-10-15 10:57:22.744 +0000",1571137042.744471,-2.491475,0.029287,1.556186,-0.605020,-0.029283,0.795671,0.000000,0.000000,0.000000,-1,0.064300,-0.045448,0.011347,-0.047415,0.021180,0.043394
"2019-10-15 10:57:22.764 +0000",1571137042.764344,-2.492173,0.029088,1.556701,-0.604469,-0.029084,0.796098,0.000000,0.000000,0.000000,-1,0.025400,-0.048481,-0.005173,-0.026604,0.008454,0.038863
"2019-10-15 10:57:22.784 +0000",1571137042.784219,-2.493185,0.029120,1.556891,-0.603662,-0.029116,0.796709,0.000000,0.000000,0.000000,-1,0.028143,-0.081188,0.015911,0.063836,-0.030683,0.012511
"2019-10-15 10:57:22.804 +0000",1571137042.804094,-2.494256,0.029193,1.556992,-0.602807,-0.029189,0.797353,0.000000,0.000000,0.000000,-1,0.032323,-0.049019,0.004823,0.086282,-0.010774,0.008525
"2019-10-15 10:57:22.824 +0000",1571137042.823968,-2.494280,0.028797,1.557695,-0.602795,-0.028793,0.797377,0.000000,0.000000,0.000000,-1,0.029551,0.027003,-0.041719,0.063641,0.034546,-0.004652
"2019-10-15 10:57:22.844 +0000",1571137042.843843,-2.493272,0.028919,1.558668,-0.603596,-0.028915,0.796766,0.000000,0.000000,0.000000,-1,0.000298,0.065092,-0.048669,0.059025,0.041595,-0.002363
"2019-10-15 10:57:22.864 +0000",1571137042.863718,-2.492446,0.029771,1.559196,-0.604239,-0.029767,0.796247,0.000000,0.000000,0.000000,-1,-0.015616,0.065695,-0.027017,0.056723,0.014005,-0.003873
"2019-10-15 10:57:22.884 +0000",1571137042.883592,-2.491983,0.030355,1.559332,-0.604597,-0.030351,0.795953,0.000000,0.000000,0.000000,-1,-0.008634,0.062623,-0.005449,0.040083,-0.013106,-0.010461
"2019-10-15 10:57:22.903 +0000",1571137042.903467,-2.491294,0.030402,1.559236,-0.605144,-0.030397,0.795536,0.000000,0.000000,0.000000,-1,-0.016887,0.053742,-0.001454,0.018062,-0.001387,-0.004611
"2019-10-15 10:57:22.923 +0000",1571137042.923342,-2.490688,0.030427,1.559044,-0.605626,-0.030423,0.795168,0.000000,0.000000,0.000000,-1,-0.024248,0.044712,-0.002023,-0.001659,0.009503,-0.013002
"2019-10-15 10:57:22.943 +0000",1571137042.943216,-2.490013,0.030911,1.558688,-0.606153,-0.030907,0.794747,0.000000,0.000000,0.000000,-1,-0.045058,0.057006,-0.007335,-0.008059,0.003807,-0.006402
"2019-10-15 10:57:22.963 +0000",1571137042.963091,-2.489192,0.031750,1.558127,-0.606790,-0.031745,0.794228,0.000000,0.000000,0.000000,-1,-0.049895,0.045221,0.006064,0.000955,-0.001626,-0.012231
"2019-10-15 10:57:22.983 +0000",1571137042.982966,-2.488633,0.032485,1.557333,-0.607219,-0.032479,0.793870,0.000000,0.000000,0.000000,-1,-0.057496,0.024363,0.015257,0.009837,-0.005119,-0.013856
"2019-10-15 10:57:23.003 +0000",1571137043.002840,-2.488114,0.033183,1.556286,-0.607617,-0.033177,0.793537,0.000000,0.000000,0.000000,-1,-0.067798,0.021735,0.021651,0.007825,-0.001568,-0.009495
"2019-10-15 10:57:23.023 +0000",1571137043.022716,-2.487652,0.033927,1.555148,-0.607969,-0.033920,0.793236,0.000000,0.000000,0.000000,-1,-0.063603,0.015220,0.021092,0.004377,-0.008347,-0.011559
"2019-10-15 10:57:23.043 +0000",1571137043.042590,-2.487351,0.034477,1.554122,-0.608196,-0.034470,0.793038,0.000000,0.000000,0.000000,-1,-0.040596,0.002691,0.023650,-0.006138,-0.011902,-0.012597
"2019-10-15 10:57:23.062 +0000",1571137043.062465,-2.487415,0.034664,1.553377,-0.608142,-0.034657,0.793072,0.000000,0.000000,0.000000,-1,-0.011384,-0.019396,0.026081,-0.010205,-0.016445,-0.010235
"2019-10-15 10:57:23.082 +0000",1571137043.082339,-2.488045,0.034220,1.552981,-0.607651,-0.034213,0.793467,0.000000,0.000000,0.000000,-1,0.021625,-0.040804,0.030793,-0.002487,-0.015302,-0.016810
"2019-10-15 10:57:23.102 +0000",1571137043.102215,-2.489114,0.033364,1.552929,-0.606820,-0.033358,0.794140,0.000000,0.000000,0.000000,-1,0.050649,-0.073299,0.030233,0.003487,-0.013288,-0.018215
"2019-10-15 10:57:23.122 +0000",1571137043.122089,-2.490947,0.032165,1.553037,-0.605387,-0.032160,0.795281,0.000000,0.000000,0.000000,-1,0.054791,-0.108539,0.040470,0.014322,-0.005590,-0.019418
"2019-10-15 10:57:23.142 +0000",1571137043.141963,-2.492450,0.031400,1.552932,-0.604206,-0.031395,0.796209,0.000000,0.000000,0.000000,-1,0.008084,-0.045038,0.017876,-0.006481,-0.006584,0.002771
"2019-10-15 10:57:23.162 +0000",1571137043.161839,-2.492479,0.031726,1.552908,-0.604176,-0.031721,0.796219,0.000000,0.000000,0.000000,-1,-0.016956,0.016997,-0.021411,-0.026057,-0.004107,0.010787
"2019-10-15 10:57:23.182 +0000",1571137043.181712,-2.491873,0.032598,1.553184,-0.604642,-0.032592,0.795831,0.000000,0.000000,0.000000,-1,-0.019830,0.027687,-0.040182,-0.010943,-0.007569,0.006507
"2019-10-15 10:57:23.202 +0000",1571137043.201588,-2.491502,0.033436,1.553586,-0.604921,-0.033430,0.795584,0.000000,0.000000,0.000000,-1,-0.016174,0.000100,-0.036153,-0.006575,-0.019961,0.005899
"2019-10-15 10:57:23.221 +0000",1571137043.221463,-2.491824,0.033932,1.553941,-0.604654,-0.033926,0.795766,0.000000,0.000000,0.000000,-1,0.001064,-0.028900,-0.020793,0.000085,-0.021876,0.002269
"2019-10-15 10:57:23.241 +0000",1571137043.241337,-2.492354,0.034049,1.554321,-0.604230,-0.034042,0.796082,0.000000,0.000000,0.000000,-1,0.013328,-0.029500,-0.015945,-0.003375,-0.015351,-0.002122
"2019-10-15 10:57:23.261 +0000",1571137043.261212,-2.492786,0.034026,1.554783,-0.603886,-0.034020,0.796344,0.000000,0.000000,0.000000,-1,0.017107,-0.017051,-0.016558,0.000325,-0.009086,-0.007129
"2019-10-15 10:57:23.281 +0000",1571137043.281086,-2.493136,0.034048,1.555201,-0.603607,-0.034042,0.796555,0.000000,0.000000,0.000000,-1,0.018722,-0.021102,-0.008702,0.008179,-0.010850,-0.007096
"2019-10-15 10:57:23.301 +0000",1571137043.300960,-2.493589,0.034008,1.555491,-0.603247,-0.034001,0.796829,0.000000,0.000000,0.000000,-1,0.022195,-0.023814,-0.002009,0.007178,-0.007335,-0.009400
"2019-10-15 10:57:23.321 +0000",1571137043.320835,-2.494015,0.033822,1.555805,-0.602911,-0.033816,0.797092,0.000000,0.000000,0.000000,-1,0.020805,-0.019379,-0.003442,0.005056,-0.001066,-0.013736
"2019-10-15 10:57:23.341 +0000",1571137043.340710,-2.494415,0.033656,1.556037,-0.602596,-0.033650,0.797337,0.000000,0.000000,0.000000,-1,0.012852,-0.022674,0.000789,0.010692,0.002857,-0.009938
"2019-10-15 10:57:23.361 +0000",1571137043.360584,-2.494880,0.033691,1.556079,-0.602224,-0.033685,0.797616,0.000000,0.000000,0.000000,-1,-0.001300,-0.021791,0.000355,0.014776,0.005563,-0.006555
"2019-10-15 10:57:23.380 +0000",1571137043.380460,-2.495173,0.033890,1.555962,-0.601987,-0.033884,0.797787,0.000000,0.000000,0.000000,-1,-0.011374,-0.008307,0.004106,0.017010,0.000833,-0.003964
"2019-10-15 10:57:23.400 +0000",1571137043.400334,-2.495133,0.034014,1.555759,-0.602016,-0.034007,0.797760,0.000000,0.000000,0.000000,-1,-0.008162,0.002423,0.006611,0.018413,-0.002019,0.001908
"2019-10-15 10:57:23.420 +0000",1571137043.420208,-2.495018,0.034033,1.555502,-0.602107,-0.034026,0.797690,0.000000,0.000000,0.000000,-1,-0.008076,0.007687,0.009676,0.021846,-0.003282,0.007257
"2019-10-15 10:57:23.440 +0000",1571137043.440083,-2.494892,0.033890,1.555256,-0.602211,-0.033883,0.797618,0.000000,0.000000,0.000000,-1,0.002777,0.006459,0.016980,0.018440,-0.003470,0.004140
"2019-10-15 10:57:23.460 +0000",1571137043.459958,-2.494877,0.033528,1.555090,-0.602230,-0.033522,0.797618,0.000000,0.000000,0.000000,-1,0.012256,0.002074,0.019739,0.016140,-0.007875,-0.002971
"2019-10-15 10:57:23.480 +0000",1571137043.479833,-2.494987,0.033033,1.554940,-0.602152,-0.033027,0.797698,0.000000,0.000000,0.000000,-1,0.018865,-0.001915,0.021902,0.014002,-0.009819,-0.008071
"2019-10-15 10:57:23.500 +0000",1571137043.499708,-2.495222,0.032538,1.554845,-0.601974,-0.032532,0.797853,0.000000,0.000000,0.000000,-1,0.016305,-0.005388,0.014498,0.010040,-0.001785,-0.014497
"2019-10-15 10:57:23.520 +0000",1571137043.519582,-2.495349,0.032287,1.554824,-0.601878,-0.032281,0.797935,0.000000,0.000000,0.000000,-1,0.006389,0.004630,0.005014,0.010387,-0.001349,-0.011238
"2019-10-15 10:57:23.539 +0000",1571137043.539457,-2.495266,0.032312,1.554803,-0.601943,-0.032306,0.797885,0.000000,0.000000,0.000000,-1,-0.001686,0.011754,-0.000148,0.007171,-0.000576,-0.006793
"2019-10-15 10:57:23.559 +0000",1571137043.559333,-2.495139,0.032487,1.554734,-0.602041,-0.032481,0.797804,0.000000,0.000000,0.000000,-1,-0.009325,0.010852,-0.000682,0.000128,-0.001332,-0.003691
"2019-10-15 10:57:23.579 +0000",1571137043.579206,-2.494934,0.032715,1.554570,-0.602200,-0.032709,0.797675,0.000000,0.000000,0.000000,-1,-0.014642,0.008366,0.000975,-0.002399,-0.000723,0.000665
"2019-10-15 10:57:23.599 +0000",1571137043.599080,-2.494945,0.032960,1.554428,-0.602187,-0.032954,0.797675,0.000000,0.000000,0.000000,-1,-0.008613,-0.007822,-0.002591,-0.004381,0.003520,-0.001960
"2019-10-15 10:57:23.619 +0000",1571137043.618955,-2.495214,0.033072,1.554415,-0.601970,-0.033066,0.797834,0.000000,0.000000,0.000000,-1,0.001136,-0.013280,-0.002745,-0.000279,-0.004669,-0.008039
"2019-10-15 10:57:23.639 +0000",1571137043.638829,-2.495465,0.032955,1.554555,-0.601773,-0.032949,0.797987,0.000000,0.000000,0.000000,-1,0.013492,-0.013387,0.000179,0.003124,-0.011805,-0.009932
"2019-10-15 10:57:23.659 +0000",1571137043.658704,-2.495859,0.032620,1.554738,-0.601464,-0.032614,0.798234,0.000000,0.000000,0.000000,-1,0.022848,-0.027140,0.004829,0.008874,-0.010492,-0.010529
"2019-10-15 10:57:23.679 +0000",1571137043.678581,-2.496439,0.032180,1.554958,-0.601010,-0.032174,0.798594,0.000000,0.000000,0.000000,-1,0.021840,-0.031065,-0.000320,0.008129,-0.004996,-0.011011
"2019-10-15 10:57:23.698 +0000",1571137043.698455,-2.496902,0.031941,1.555178,-0.600645,-0.031936,0.798878,0.000000,0.000000,0.000000,-1,0.010548,-0.020582,-0.001048,0.002852,-0.002213,-0.007664
"2019-10-15 10:57:23.718 +0000",1571137043.718329,-2.497163,0.032002,1.555315,-0.600435,-0.031997,0.799033,0.000000,0.000000,0.000000,-1,-0.002338,-0.009634,-0.005305,0.002062,-0.002565,-0.004829
"2019-10-15 10:57:23.738 +0000",1571137043.738204,-2.497258,0.032250,1.555384,-0.600355,-0.032244,0.799084,0.000000,0.000000,0.000000,-1,-0.008166,-0.000561,-0.010683,0.005506,-0.001294,-0.006542
"2019-10-15 10:57:23.758 +0000",1571137043.758079,-2.497202,0.032630,1.555436,-0.600392,-0.032624,0.799040,0.000000,0.000000,0.000000,-1,-0.014699,0.002188,-0.012100,0.007801,-0.003646,-0.003829
"2019-10-15 10:57:23.778 +0000",1571137043.777954,-2.497121,0.032953,1.555475,-0.600450,-0.032947,0.798984,0.000000,0.000000,0.000000,-1,-0.010318,0.002237,-0.009701,0.006532,-0.004376,-0.001819
"2019-10-15 10:57:23.798 +0000",1571137043.797828,-2.496987,0.033217,1.555538,-0.600552,-0.033211,0.798896,0.000000,0.000000,0.000000,-1,-0.005751,0.008249,-0.013232,0.006237,-0.002891,-0.001686
"2019-10-15 10:57:23.818 +0000",1571137043.817702,-2.496787,0.033454,1.555651,-0.600706,-0.033447,0.798770,0.000000,0.000000,0.000000,-1,-0.005064,0.009679,-0.008802,0.005431,-0.003601,0.000180
"2019-10-15 10:57:23.838 +0000",1571137043.837577,-2.496648,0.033554,1.555739,-0.600816,-0.033548,0.798683,0.000000,0.000000,0.000000,-1,0.000137,0.004385,-0.002348,0.004167,-0.006598,-0.003929
"2019-10-15 10:57:23.857 +0000",1571137043.857453,-2.496585,0.033591,1.555796,-0.600866,-0.033585,0.798644,0.000000,0.000000,0.000000,-1,0.000069,0.004213,-0.001926,0.006734,-0.000305,-0.007354
"2019-10-15 10:57:23.877 +0000",1571137043.877327,-2.496503,0.033677,1.555784,-0.600929,-0.033670,0.798593,0.000000,0.000000,0.000000,-1,-0.004617,0.005076,0.000132,0.009468,-0.002325,-0.008935
"2019-10-15 10:57:23.897 +0000",1571137043.897201,-2.496482,0.033722,1.555778,-0.600945,-0.033715,0.798579,0.000000,0.000000,0.000000,-1,0.002456,0.001126,0.001507,0.009103,-0.006842,-0.012064
"2019-10-15 10:57:23.917 +0000",1571137043.917076,-2.496466,0.033658,1.555770,-0.600959,-0.033652,0.798571,0.000000,0.000000,0.000000,-1,0.005203,0.001641,0.005754,0.009559,-0.010126,-0.008486
"2019-10-15 10:57:23.937 +0000",1571137043.936950,-2.496469,0.033478,1.555735,-0.600961,-0.033472,0.798578,0.000000,0.000000,0.000000,-1,0.007167,-0.001930,0.007934,0.004128,-0.005927,-0.003595
"2019-10-15 10:57:23.957 +0000",1571137043.956826,-2.496459,0.033344,1.555610,-0.600971,-0.033338,0.798576,0.000000,0.000000,0.000000,-1,-0.000678,0.004075,0.010145,0.001880,-0.004656,-0.001701
"2019-10-15 10:57:23.977 +0000",1571137043.976700,-2.496355,0.033261,1.555435,-0.601056,-0.033254,0.798515,0.000000,0.000000,0.000000,-1,0.003380,0.006224,0.008882,0.001004,-0.007624,-0.004386
"2019-10-15 10:57:23.997 +0000",1571137043.996574,-2.496158,0.033207,1.555301,-0.601214,-0.033201,0.798398,0.000000,0.000000,0.000000,-1,-0.001658,0.013344,0.006860,0.005206,-0.001757,-0.003812
"2019-10-15 10:57:24.016 +0000",1571137044.016449,-2.495910,0.033215,1.555148,-0.601412,-0.033209,0.798249,0.000000,0.000000,0.000000,-1,-0.005640,0.010464,0.007819,0.015108,0.002569,-0.006836
"2019-10-15 10:57:24.036 +0000",1571137044.036325,-2.495795,0.033222,1.555028,-0.601504,-0.033216,0.798179,0.000000,0.000000,0.000000,-1,0.001493,-0.001578,0.002097,0.015536,0.000807,-0.009589
"2019-10-15 10:57:24.056 +0000",1571137044.056199,-2.495895,0.033092,1.555065,-0.601426,-0.033086,0.798243,0.000000,0.000000,0.000000,-1,0.016815,-0.009535,0.005400,0.016572,-0.003230,-0.010371
"2019-10-15 10:57:24.076 +0000",1571137044.076074,-2.496206,0.032739,1.555147,-0.601185,-0.032734,0.798440,0.000000,0.000000,0.000000,-1,0.018505,-0.019369,0.009526,0.008640,-0.003537,-0.008019
"2019-10-15 10:57:24.096 +0000",1571137044.095949,-2.496601,0.032374,1.555190,-0.600876,-0.032369,0.798686,0.000000,0.000000,0.000000,-1,0.012205,-0.016910,0.006782,-0.000839,0.000646,-0.005153
"2019-10-15 10:57:24.116 +0000",1571137044.115823,-2.496784,0.032169,1.555197,-0.600734,-0.032163,0.798801,0.000000,0.000000,0.000000,-1,0.005187,-0.001109,0.006303,0.001338,-0.002474,-0.003803
"2019-10-15 10:57:24.136 +0000",1571137044.135698,-2.496790,0.032072,1.555162,-0.600731,-0.032066,0.798808,0.000000,0.000000,0.000000,-1,0.003908,0.002256,0.005325,0.003533,-0.005333,-0.005564
"2019-10-15 10:57:24.156 +0000",1571137044.155574,-2.496773,0.032027,1.555133,-0.600746,-0.032022,0.798798,0.000000,0.000000,0.000000,-1,-0.000467,0.000102,0.002315,0.005714,-0.006171,-0.004807
"2019-10-15 10:57:24.175 +0000",1571137044.175448,-2.496741,0.032091,1.555035,-0.600770,-0.032085,0.798778,0.000000,0.000000,0.000000,-1,-0.010560,0.002065,0.000899,0.002275,-0.002689,-0.001872
"2019-10-15 10:57:24.195 +0000",1571137044.195323,-2.496539,0.032386,1.554906,-0.600926,-0.032380,0.798648,0.000000,0.000000,0.000000,-1,-0.022015,0.019786,-0.008469,0.003239,-0.000655,0.002072
"2019-10-15 10:57:24.215 +0000",1571137044.215199,-2.495885,0.033005,1.554724,-0.601436,-0.032999,0.798239,0.000000,0.000000,0.000000,-1,-0.036221,0.040025,-0.010869,0.003734,-0.004172,0.007913
"2019-10-15 10:57:24.235 +0000",1571137044.235073,-2.495043,0.033810,1.554353,-0.602092,-0.033803,0.797711,0.000000,0.000000,0.000000,-1,-0.049805,0.043034,-0.005898,0.000835,-0.005381,0.006183
"2019-10-15 10:57:24.255 +0000",1571137044.254948,-2.494194,0.034697,1.553863,-0.602751,-0.034690,0.797175,0.000000,0.000000,0.000000,-1,-0.048971,0.043330,-0.010895,-0.004259,0.002372,-0.003764
"2019-10-15 10:57:24.275 +0000",1571137044.274822,-2.493453,0.035471,1.553582,-0.603325,-0.035463,0.796707,0.000000,0.000000,0.000000,-1,-0.032074,0.034333,-0.016638,0.006416,0.004305,-0.013336
"2019-10-15 10:57:24.295 +0000",1571137044.294697,-2.493106,0.035896,1.553605,-0.603592,-0.035888,0.796485,0.000000,0.000000,0.000000,-1,0.001876,0.007854,-0.010744,0.016358,-0.005143,-0.018989
"2019-10-15 10:57:24.315 +0000",1571137044.314572,-2.492988,0.035749,1.553822,-0.603689,-0.035742,0.796418,0.000000,0.000000,0.000000,-1,0.021934,0.010608,0.001963,0.021261,-0.014277,-0.015260
"2019-10-15 10:57:24.334 +0000",1571137044.334446,-2.492929,0.035284,1.554085,-0.603746,-0.035276,0.796396,0.000000,0.000000,0.000000,-1,0.026268,-0.001357,0.001415,0.020478,-0.004732,-0.015466
"2019-10-15 10:57:24.354 +0000",1571137044.354321,-2.493023,0.034905,1.554383,-0.603679,-0.034898,0.796463,0.000000,0.000000,0.000000,-1,0.018590,-0.007663,-0.005178,0.008541,0.006394,-0.010788
"2019-10-15 10:57:24.374 +0000",1571137044.374196,-2.493165,0.034872,1.554595,-0.603567,-0.034865,0.796550,0.000000,0.000000,0.000000,-1,-0.001471,0.004109,-0.011268,0.009374,0.010055,-0.014339
"2019-10-15 10:57:24.394 +0000",1571137044.394070,-2.492984,0.035258,1.554689,-0.603702,-0.035251,0.796430,0.000000,0.000000,0.000000,-1,-0.014506,0.014690,-0.013009,0.001087,-0.002881,-0.006559
"2019-10-15 10:57:24.414 +0000",1571137044.413945,-2.492796,0.035720,1.554673,-0.603843,-0.035712,0.796303,0.000000,0.000000,0.000000,-1,-0.016790,0.002287,-0.011124,-0.014566,-0.005730,-0.008858
"2019-10-15 10:57:24.434 +0000",1571137044.433820,-2.493192,0.036065,1.554772,-0.603519,-0.036058,0.796533,0.000000,0.000000,0.000000,-1,-0.003866,-0.045440,-0.021696,-0.026501,0.011186,-0.020516
"2019-10-15 10:57:24.454 +0000",1571137044.453694,-2.494447,0.036612,1.555315,-0.602508,-0.036604,0.797273,0.000000,0.000000,0.000000,-1,-0.012741,-0.079207,-0.061562,-0.031724,0.024535,-0.021776
"2019-10-15 10:57:24.474 +0000",1571137044.473569,-2.496059,0.037795,1.556261,-0.601195,-0.037786,0.798208,0.000000,0.000000,0.000000,-1,-0.030398,-0.073849,-0.085082,-0.013337,0.024709,-0.017553
"2019-10-15 10:57:24.493 +0000",1571137044.493444,-2.497020,0.039438,1.557153,-0.600389,-0.039428,0.798735,0.000000,0.000000,0.000000,-1,-0.041039,-0.021495,-0.084282,0.019319,-0.013779,-0.001921
"2019-10-15 10:57:24.513 +0000",1571137044.513317,-2.496551,0.040950,1.557932,-0.600728,-0.040939,0.798405,0.000000,0.000000,0.000000,-1,-0.039186,0.048805,-0.072035,0.013218,-0.031525,0.007686
"2019-10-15 10:57:24.533 +0000",1571137044.533192,-2.495392,0.041905,1.558250,-0.601629,-0.041893,0.797676,0.000000,0.000000,0.000000,-1,-0.028055,0.018678,-0.015719,0.033163,-0.043633,0.021583
"2019-10-15 10:57:24.553 +0000",1571137044.553067,-2.495564,0.042092,1.558198,-0.601487,-0.042079,0.797774,0.000000,0.000000,0.000000,-1,-0.009048,-0.032998,-0.013254,0.031891,0.016811,-0.000731
"2019-10-15 10:57:24.573 +0000",1571137044.572942,-2.496013,0.042622,1.558424,-0.601115,-0.042610,0.798026,0.000000,0.000000,0.000000,-1,-0.015800,-0.002860,-0.031920,-0.007527,0.007423,0.001031
"2019-10-15 10:57:24.593 +0000",1571137044.592816,-2.495941,0.043113,1.558772,-0.601160,-0.043100,0.797965,0.000000,0.000000,0.000000,-1,0.006438,0.010861,-0.015686,-0.000830,-0.037360,0.001198
"2019-10-15 10:57:24.613 +0000",1571137044.612692,-2.495950,0.043035,1.559037,-0.601154,-0.043021,0.797974,0.000000,0.000000,0.000000,-1,0.034309,0.012667,0.011053,0.010944,-0.046349,0.010086
"2019-10-15 10:57:24.633 +0000",1571137044.632566,-2.495871,0.042125,1.559228,-0.601241,-0.042113,0.797957,0.000000,0.000000,0.000000,-1,0.046063,0.019312,0.025171,0.007583,-0.020235,0.011857
"2019-10-15 10:57:24.652 +0000",1571137044.652442,-2.495337,0.041092,1.559327,-0.601693,-0.041081,0.797670,0.000000,0.000000,0.000000,-1,0.036486,0.033236,0.024712,0.015771,-0.002056,0.012403
"2019-10-15 10:57:24.672 +0000",1571137044.672316,-2.494553,0.040400,1.559292,-0.602335,-0.040389,0.797221,0.000000,0.000000,0.000000,-1,0.032495,0.039847,0.031623,0.022593,0.001190,0.004385
"2019-10-15 10:57:24.692 +0000",1571137044.692191,-2.493874,0.039675,1.559093,-0.602894,-0.039665,0.796835,0.000000,0.000000,0.000000,-1,0.032683,0.034757,0.041324,0.021198,0.002128,-0.008917
"2019-10-15 10:57:24.712 +0000",1571137044.712066,-2.493281,0.038845,1.558837,-0.603386,-0.038836,0.796503,0.000000,0.000000,0.000000,-1,0.028157,0.033470,0.038257,0.014901,0.010943,-0.021021
"2019-10-15 10:57:24.732 +0000",1571137044.731939,-2.492762,0.038218,1.558566,-0.603814,-0.038209,0.796209,0.000000,0.000000,0.000000,-1,0.006964,0.030156,0.024194,0.006539,0.021088,-0.027014
"2019-10-15 10:57:24.752 +0000",1571137044.751814,-2.492496,0.038104,1.558285,-0.604028,-0.038095,0.796051,0.000000,0.000000,0.000000,-1,-0.012251,0.010327,0.005020,0.003092,0.024866,-0.030838
"2019-10-15 10:57:24.772 +0000",1571137044.771689,-2.492538,0.038438,1.558073,-0.603987,-0.038428,0.796067,0.000000,0.000000,0.000000,-1,-0.025529,-0.004845,-0.007507,0.001250,0.021247,-0.026917
"2019-10-15 10:57:24.792 +0000",1571137044.791564,-2.492726,0.038990,1.557981,-0.603825,-0.038980,0.796163,0.000000,0.000000,0.000000,-1,-0.025810,-0.014630,-0.017409,-0.000652,0.011545,-0.019003
"2019-10-15 10:57:24.811 +0000",1571137044.811438,-2.492952,0.039593,1.557999,-0.603630,-0.039583,0.796282,0.000000,0.000000,0.000000,-1,-0.025431,-0.011494,-0.023303,0.002220,0.004014,-0.008104
"2019-10-15 10:57:24.831 +0000",1571137044.831314,-2.493025,0.040175,1.558076,-0.603558,-0.040164,0.796307,0.000000,0.000000,0.000000,-1,-0.026561,-0.005517,-0.021985,0.006161,-0.004102,0.005238
"2019-10-15 10:57:24.851 +0000",1571137044.851187,-2.493046,0.040603,1.558094,-0.603531,-0.040592,0.796306,0.000000,0.000000,0.000000,-1,-0.017666,-0.006452,-0.013307,0.004944,-0.010677,0.006734
"2019-10-15 10:57:24.871 +0000",1571137044.871062,-2.493020,0.040949,1.558116,-0.603544,-0.040938,0.796279,0.000000,0.000000,0.000000,-1,-0.013833,0.002447,-0.012914,0.006742,-0.007982,0.003587
"2019-10-15 10:57:24.891 +0000",1571137044.890937,-2.492861,0.041271,1.558152,-0.603662,-0.041260,0.796172,0.000000,0.000000,0.000000,-1,-0.009723,0.013484,-0.010735,0.013238,-0.009796,-0.000914
"2019-10-15 10:57:24.911 +0000",1571137044.910812,-2.492619,0.041494,1.558198,-0.603849,-0.041482,0.796019,0.000000,0.000000,0.000000,-1,-0.003664,0.011896,-0.005870,0.016126,-0.015403,-0.002791
"2019-10-15 10:57:24.931 +0000",1571137044.930686,-2.492467,0.041575,1.558197,-0.603968,-0.041563,0.795924,0.000000,0.000000,0.000000,-1,-0.002638,0.006452,0.000869,0.005503,-0.011446,-0.003932
"2019-10-15 10:57:24.951 +0000",1571137044.950562,-2.492327,0.041685,1.558134,-0.604076,-0.041673,0.795836,0.000000,0.000000,0.000000,-1,-0.006541,0.009762,-0.003393,-0.003330,-0.004607,-0.004271
"2019-10-15 10:57:24.970 +0000",1571137044.970436,-2.492539,0.041797,1.558148,-0.603905,-0.041785,0.795960,0.000000,0.000000,0.000000,-1,0.049243,-0.129887,0.033660,-0.003410,0.002646,-0.007752
"2019-10-15 10:57:24.990 +0000",1571137044.990311,-2.510701,0.029769,1.558955,-0.589604,-0.029765,0.807144,0.000000,0.000000,0.000000,-1,1.238718,-2.006304,0.709743,0.470356,0.011347,-0.435394
"2019-10-15 10:57:25.010 +0000",1571137045.010184,-2.564579,-0.010737,1.563221,-0.545492,0.010736,0.838047,0.000000,0.000000,0.000000,-1,1.069739,-1.514480,0.819562,0.589315,0.306494,-0.813298
"2019-10-15 10:57:25.030 +0000",1571137045.030060,-2.564075,-0.011366,1.555955,-0.545910,0.011365,0.837767,0.000000,0.000000,0.000000,-1,-0.988336,0.937350,-0.177239,-0.751728,-0.353574,1.074740
"2019-10-15 10:57:25.050 +0000",1571137045.049936,-2.542339,0.008342,1.553135,-0.564006,-0.008342,0.825728,0.000000,0.000000,0.000000,-1,-0.680232,1.117214,-0.505800,-0.298604,0.015895,-0.000975
"2019-10-15 10:57:25.070 +0000",1571137045.069809,-2.524141,0.020661,1.554806,-0.578835,-0.020659,0.815183,0.000000,0.000000,0.000000,-1,-0.248454,0.548386,-0.245515,-0.089194,0.099288,-0.027799
"2019-10-15 10:57:25.090 +0000",1571137045.089684,-2.521481,0.023222,1.554295,-0.580970,-0.023220,0.813594,0.000000,0.000000,0.000000,-1,-0.056614,-0.094919,0.047322,0.247611,-0.002263,-0.063762
"2019-10-15 10:57:25.110 +0000",1571137045.109560,-2.521395,0.023957,1.552172,-0.581030,-0.023955,0.813530,0.000000,0.000000,0.000000,-1,-0.129612,0.093850,0.061236,-0.000086,-0.128831,0.054604
"2019-10-15 10:57:25.129 +0000",1571137045.129433,-2.519308,0.025639,1.550288,-0.582702,-0.025636,0.812281,0.000000,0.000000,0.000000,-1,-0.093856,0.111313,0.001297,0.008926,0.018418,-0.051600
"2019-10-15 10:57:25.149 +0000",1571137045.149308,-2.516350,0.026598,1.549978,-0.585087,-0.026595,0.810534,0.000000,0.000000,0.000000,-1,-0.015950,0.174192,-0.020624,0.040714,-0.004472,-0.093463
"2019-10-15 10:57:25.169 +0000",1571137045.169182,-2.513868,0.026707,1.549870,-0.587096,-0.026704,0.809077,0.000000,0.000000,0.000000,-1,-0.002227,0.064425,0.020834,0.075835,-0.020125,-0.019740
"2019-10-15 10:57:25.189 +0000",1571137045.189056,-2.513007,0.026267,1.549764,-0.587798,-0.026264,0.808581,0.000000,0.000000,0.000000,-1,0.033490,0.048893,0.000591,0.023101,0.010212,0.007596
"2019-10-15 10:57:25.209 +0000",1571137045.208932,-2.511886,0.025793,1.550507,-0.588712,-0.025790,0.807931,0.000000,0.000000,0.000000,-1,0.041705,0.051723,-0.022839,-0.024935,0.029330,-0.003595
"2019-10-15 10:57:25.229 +0000",1571137045.228806,-2.511411,0.025445,1.551121,-0.589101,-0.025442,0.807659,0.000000,0.000000,0.000000,-1,0.024829,-0.009974,-0.011311,-0.021525,0.033453,-0.017879
"2019-10-15 10:57:25.249 +0000",1571137045.248680,-2.512131,0.025211,1.551513,-0.588522,-0.025209,0.808088,0.000000,0.000000,0.000000,-1,0.024235,-0.040201,-0.008362,-0.011346,0.004106,-0.056959
"2019-10-15 10:57:25.269 +0000",1571137045.268556,-2.513041,0.025094,1.551852,-0.587789,-0.025091,0.808626,0.000000,0.000000,0.000000,-1,0.002349,-0.039765,-0.015616,-0.010219,-0.004404,-0.047822
"2019-10-15 10:57:25.288 +0000",1571137045.288430,-2.513895,0.025371,1.552049,-0.587094,-0.025368,0.809122,0.000000,0.000000,0.000000,-1,-0.017485,-0.054582,-0.017607,-0.005054,0.010414,-0.026392
"2019-10-15 10:57:25.308 +0000",1571137045.308304,-2.515013,0.025669,1.552038,-0.586185,-0.025666,0.809771,0.000000,0.000000,0.000000,-1,-0.012050,-0.065089,-0.005759,0.005924,0.006608,-0.011065
"2019-10-15 10:57:25.328 +0000",1571137045.328179,-2.515890,0.025775,1.551932,-0.585472,-0.025772,0.810283,0.000000,0.000000,0.000000,-1,-0.008560,-0.036311,0.000167,0.015877,-0.012146,0.010365
"2019-10-15 10:57:25.348 +0000",1571137045.348053,-2.516065,0.025929,1.551827,-0.585329,-0.025926,0.810382,0.000000,0.000000,0.000000,-1,-0.010524,-0.006712,0.002148,0.015337,-0.015914,0.029981
"2019-10-15 10:57:25.368 +0000",1571137045.367928,-2.515872,0.025984,1.551662,-0.585483,-0.025981,0.810268,0.000000,0.000000,0.000000,-1,-0.006535,0.007250,0.009756,0.019321,-0.018850,0.030843
"2019-10-15 10:57:25.388 +0000",1571137045.387803,-2.515494,0.025833,1.551471,-0.585793,-0.025830,0.810049,0.000000,0.000000,0.000000,-1,0.004351,0.027049,0.011505,0.017525,-0.018192,0.021280
"2019-10-15 10:57:25.408 +0000",1571137045.407677,-2.514889,0.025593,1.551408,-0.586286,-0.025590,0.809700,0.000000,0.000000,0.000000,-1,0.015193,0.038763,0.013653,0.006253,-0.017272,0.009087
"2019-10-15 10:57:25.428 +0000",1571137045.427553,-2.514187,0.025224,1.551442,-0.586860,-0.025221,0.809296,0.000000,0.000000,0.000000,-1,0.019295,0.042858,0.013475,0.008979,-0.009599,-0.005234
"2019-10-15 10:57:25.447 +0000",1571137045.447427,-2.513464,0.024919,1.551362,-0.587449,-0.024916,0.808878,0.000000,0.000000,0.000000,-1,0.005599,0.045030,0.014887,0.013154,0.002669,-0.013498
"2019-10-15 10:57:25.467 +0000",1571137045.467302,-2.512723,0.024945,1.551095,-0.588048,-0.024942,0.808442,0.000000,0.000000,0.000000,-1,-0.014037,0.043274,0.011208,0.009160,0.013071,-0.015595
"2019-10-15 10:57:25.487 +0000",1571137045.487177,-2.512029,0.025272,1.550738,-0.588604,-0.025270,0.808026,0.000000,0.000000,0.000000,-1,-0.025355,0.032790,0.003888,0.006176,0.020844,-0.020856
"2019-10-15 10:57:25.507 +0000",1571137045.507052,-2.511500,0.025708,1.550347,-0.589025,-0.025705,0.807706,0.000000,0.000000,0.000000,-1,-0.031402,0.023880,0.003213,0.009511,0.016108,-0.023298
"2019-10-15 10:57:25.527 +0000",1571137045.526926,-2.511209,0.026165,1.550022,-0.589253,-0.026162,0.807525,0.000000,0.000000,0.000000,-1,-0.025997,0.013913,-0.003297,0.007527,0.010857,-0.020202
"2019-10-15 10:57:25.547 +0000",1571137045.546801,-2.511003,0.026549,1.549831,-0.589413,-0.026546,0.807395,0.000000,0.000000,0.000000,-1,-0.020679,0.007629,-0.008174,0.003994,0.008800,-0.015556
"2019-10-15 10:57:25.567 +0000",1571137045.566674,-2.510823,0.026947,1.549792,-0.589552,-0.026944,0.807281,0.000000,0.000000,0.000000,-1,-0.019305,0.006733,-0.015569,0.007414,0.003293,-0.009734
"2019-10-15 10:57:25.587 +0000",1571137045.586550,-2.510692,0.027271,1.549841,-0.589653,-0.027268,0.807196,0.000000,0.000000,0.000000,-1,-0.010244,0.001834,-0.011195,0.007301,-0.006943,-0.004630
"2019-10-15 10:57:25.606 +0000",1571137045.606425,-2.510733,0.027357,1.549827,-0.589618,-0.027353,0.807219,0.000000,0.000000,0.000000,-1,-0.003945,-0.010083,0.002209,-0.002621,-0.018163,0.002306
"2019-10-15 10:57:25.626 +0000",1571137045.626299,-2.510845,0.027243,1.549734,-0.589530,-0.027239,0.807287,0.000000,0.000000,0.000000,-1,0.004924,-0.003086,0.005801,-0.012170,-0.015211,0.000803
"2019-10-15 10:57:25.646 +0000",1571137045.646174,-2.510807,0.027139,1.549713,-0.589562,-0.027136,0.807267,0.000000,0.000000,0.000000,-1,0.002960,0.003632,0.001497,-0.005943,-0.011118,0.002624
"2019-10-15 10:57:25.666 +0000",1571137045.666049,-2.510828,0.027067,1.549740,-0.589547,-0.027063,0.807281,0.000000,0.000000,0.000000,-1,0.006268,-0.001747,0.003384,-0.001472,-0.013159,0.001084
"2019-10-15 10:57:25.686 +0000",1571137045.685923,-2.510782,0.026990,1.549752,-0.589585,-0.026986,0.807255,0.000000,0.000000,0.000000,-1,0.002441,0.007542,0.000301,0.001893,-0.007712,0.001079
"2019-10-15 10:57:25.706 +0000",1571137045.705798,-2.510535,0.027028,1.549749,-0.589783,-0.027025,0.807109,0.000000,0.000000,0.000000,-1,0.002722,0.011164,0.001111,0.006241,-0.001021,-0.002956
"2019-10-15 10:57:25.726 +0000",1571137045.725672,-2.510320,0.026995,1.549739,-0.589957,-0.026991,0.806984,0.000000,0.000000,0.000000,-1,0.005937,0.011409,0.001867,0.010276,-0.001390,-0.007347
"2019-10-15 10:57:25.746 +0000",1571137045.745547,-2.510036,0.026877,1.549787,-0.590188,-0.026873,0.806818,0.000000,0.000000,0.000000,-1,0.012085,0.015277,0.002246,0.009408,0.000918,-0.011301
"2019-10-15 10:57:25.765 +0000",1571137045.765423,-2.509723,0.026675,1.549876,-0.590445,-0.026671,0.806637,0.000000,0.000000,0.000000,-1,0.012685,0.017486,0.005370,0.008871,0.004821,-0.013257
"2019-10-15 10:57:25.785 +0000",1571137045.785296,-2.509409,0.026480,1.549936,-0.590701,-0.026477,0.806457,0.000000,0.000000,0.000000,-1,0.007249,0.016893,0.000818,0.011172,0.007907,-0.012176
"2019-10-15 10:57:25.805 +0000",1571137045.805171,-2.509140,0.026426,1.549984,-0.590918,-0.026423,0.806299,0.000000,0.000000,0.000000,-1,0.001706,0.010770,-0.002218,0.011252,0.006572,-0.008325
"2019-10-15 10:57:25.825 +0000",1571137045.825047,-2.508985,0.026525,1.550030,-0.591042,-0.026522,0.806205,0.000000,0.000000,0.000000,-1,-0.002717,0.004191,-0.005856,-0.001976,0.007433,-0.008323
"2019-10-15 10:57:25.845 +0000",1571137045.844920,-2.508925,0.026653,1.550103,-0.591088,-0.026650,0.806167,0.000000,0.000000,0.000000,-1,-0.003743,0.004860,-0.008824,0.000649,0.002876,-0.009765
"2019-10-15 10:57:25.865 +0000",1571137045.864796,-2.508754,0.026807,1.550125,-0.591224,-0.026804,0.806062,0.000000,0.000000,0.000000,-1,-0.006341,0.013700,-0.005891,0.008078,-0.003164,-0.005953
"2019-10-15 10:57:25.885 +0000",1571137045.884671,-2.508552,0.026893,1.550156,-0.591385,-0.026889,0.805941,0.000000,0.000000,0.000000,-1,-0.001665,0.010891,-0.006107,0.005096,-0.006390,-0.003908
"2019-10-15 10:57:25.905 +0000",1571137045.904544,-2.508356,0.026963,1.550275,-0.591542,-0.026960,0.805824,0.000000,0.000000,0.000000,-1,-0.000088,0.007793,-0.011113,0.004414,-0.005846,0.001351
"2019-10-15 10:57:25.924 +0000",1571137045.924419,-2.508213,0.027122,1.550379,-0.591655,-0.027119,0.805735,0.000000,0.000000,0.000000,-1,-0.008392,0.005632,-0.009650,-0.000402,0.000004,0.000021
"2019-10-15 10:57:25.944 +0000",1571137045.944293,-2.508061,0.027410,1.550458,-0.591772,-0.027407,0.805639,0.000000,0.000000,0.000000,-1,-0.008889,0.012486,-0.013176,0.005316,-0.001600,-0.002813
"2019-10-15 10:57:25.964 +0000",1571137045.964167,-2.507738,0.027643,1.550554,-0.592029,-0.027640,0.805443,0.000000,0.000000,0.000000,-1,0.000081,0.022186,-0.009685,0.017093,-0.004755,-0.007897
"2019-10-15 10:57:25.984 +0000",1571137045.984043,-2.507366,0.027669,1.550617,-0.592328,-0.027665,0.805222,0.000000,0.000000,0.000000,-1,0.002632,0.014467,-0.000203,0.013989,-0.004439,-0.003434
"2019-10-15 10:57:26.004 +0000",1571137046.003918,-2.507097,0.027698,1.550612,-0.592545,-0.027694,0.805062,0.000000,0.000000,0.000000,-1,-0.001327,0.010490,-0.001153,0.002884,0.003417,-0.003609
"2019-10-15 10:57:26.024 +0000",1571137046.023793,-2.506920,0.027808,1.550592,-0.592685,-0.027804,0.804955,0.000000,0.000000,0.000000,-1,-0.007032,0.005873,-0.005141,-0.000211,0.005633,-0.007271
"2019-10-15 10:57:26.044 +0000",1571137046.043667,-2.506833,0.028015,1.550625,-0.592751,-0.028012,0.804899,0.000000,0.000000,0.000000,-1,-0.006268,0.003612,-0.004930,0.001382,0.001614,-0.013273
"2019-10-15 10:57:26.064 +0000",1571137046.063541,-2.506884,0.028158,1.550649,-0.592708,-0.028154,0.804925,0.000000,0.000000,0.000000,-1,-0.004572,-0.004708,-0.001149,0.003642,-0.002058,-0.015741
"2019-10-15 10:57:26.083 +0000",1571137046.083417,-2.506989,0.028150,1.550655,-0.592623,-0.028146,0.804988,0.000000,0.000000,0.000000,-1,0.003567,-0.008282,-0.000624,0.003894,-0.004721,-0.017726
"2019-10-15 10:57:26.103 +0000",1571137046.103291,-2.507117,0.028017,1.550740,-0.592523,-0.028013,0.805067,0.000000,0.000000,0.000000,-1,0.009344,-0.005447,-0.004053,0.004296,-0.003176,-0.014677
"2019-10-15 10:57:26.123 +0000",1571137046.123165,-2.507204,0.027995,1.550930,-0.592453,-0.027991,0.805119,0.000000,0.000000,0.000000,-1,0.002392,-0.004748,-0.010115,0.000259,0.002036,-0.006702
"2019-10-15 10:57:26.143 +0000",1571137046.143040,-2.507340,0.028126,1.551061,-0.592341,-0.028123,0.805196,0.000000,0.000000,0.000000,-1,-0.002094,-0.010853,-0.009093,0.001872,0.000748,-0.000707
"2019-10-15 10:57:26.163 +0000",1571137046.162915,-2.507486,0.028326,1.551134,-0.592220,-0.028322,0.805278,0.000000,0.000000,0.000000,-1,-0.004885,-0.007173,-0.008747,0.004833,-0.004820,-0.000972
"2019-10-15 10:57:26.183 +0000",1571137046.182790,-2.507582,0.028458,1.551215,-0.592141,-0.028455,0.805332,0.000000,0.000000,0.000000,-1,-0.001213,-0.007801,-0.002665,0.005700,-0.006015,-0.002872
"2019-10-15 10:57:26.203 +0000",1571137046.202666,-2.507730,0.028549,1.551217,-0.592020,-0.028545,0.805418,0.000000,0.000000,0.000000,-1,-0.006059,-0.006658,-0.002733,0.008753,0.000820,0.000582
"2019-10-15 10:57:26.223 +0000",1571137046.222540,-2.507867,0.028686,1.551230,-0.591908,-0.028682,0.805495,0.000000,0.000000,0.000000,-1,-0.005878,-0.006664,-0.005934,0.011540,0.006145,-0.003402
"2019-10-15 10:57:26.242 +0000",1571137046.242415,-2.508027,0.028817,1.551316,-0.591776,-0.028813,0.805587,0.000000,0.000000,0.000000,-1,0.002737,-0.010045,-0.004666,0.011485,0.002064,-0.007843
"2019-10-15 10:57:26.262 +0000",1571137046.262289,-2.508263,0.028736,1.551384,-0.591588,-0.028732,0.805729,0.000000,0.000000,0.000000,-1,0.006795,-0.014898,0.005366,0.007512,-0.000626,-0.010899
"2019-10-15 10:57:26.282 +0000",1571137046.282164,-2.508580,0.028563,1.551388,-0.591335,-0.028559,0.805920,0.000000,0.000000,0.000000,-1,0.004891,-0.008279,-0.000734,0.002392,0.009302,-0.012753
"2019-10-15 10:57:26.302 +0000",1571137046.302039,-2.508735,0.028689,1.551493,-0.591208,-0.028686,0.806009,0.000000,0.000000,0.000000,-1,-0.007035,-0.007320,-0.014039,0.001684,0.013732,-0.012598
"2019-10-15 10:57:26.322 +0000",1571137046.321913,-2.509002,0.028975,1.551616,-0.590988,-0.028971,0.806160,0.000000,0.000000,0.000000,-1,-0.010305,-0.015099,-0.013100,0.004440,-0.001547,-0.012138
"2019-10-15 10:57:26.342 +0000",1571137046.341789,-2.509239,0.029348,1.551661,-0.590791,-0.029344,0.806291,0.000000,0.000000,0.000000,-1,-0.014995,-0.007485,-0.012031,0.000306,-0.011504,-0.007204
"2019-10-15 10:57:26.362 +0000",1571137046.361662,-2.509326,0.029710,1.551717,-0.590714,-0.029706,0.806334,0.000000,0.000000,0.000000,-1,-0.016006,-0.005409,-0.014915,-0.000793,-0.010684,-0.003874
"2019-10-15 10:57:26.382 +0000",1571137046.381537,-2.509468,0.030172,1.551700,-0.590592,-0.030167,0.806406,0.000000,0.000000,0.000000,-1,-0.026663,-0.009903,-0.013760,-0.000503,-0.003234,-0.001612
"2019-10-15 10:57:26.401 +0000",1571137046.401412,-2.509730,0.030860,1.551640,-0.590367,-0.030855,0.806545,0.000000,0.000000,0.000000,-1,-0.033240,-0.019251,-0.020460,0.002065,0.006502,-0.006679
"2019-10-15 10:57:26.421 +0000",1571137046.421287,-2.510218,0.031705,1.551570,-0.589958,-0.031700,0.806811,0.000000,0.000000,0.000000,-1,-0.030311,-0.034273,-0.019346,-0.000267,0.003990,-0.014362
"2019-10-15 10:57:26.441 +0000",1571137046.441161,-2.510926,0.032355,1.551616,-0.589375,-0.032349,0.807212,0.000000,0.000000,0.000000,-1,-0.012569,-0.039179,-0.021125,0.002293,-0.006637,-0.020743
"2019-10-15 10:57:26.461 +0000",1571137046.461036,-2.511803,0.032705,1.552006,-0.588660,-0.032699,0.807719,0.000000,0.000000,0.000000,-1,0.008407,-0.046400,-0.032327,-0.013345,-0.007935,-0.016994
"2019-10-15 10:57:26.481 +0000",1571137046.480910,-2.512921,0.032798,1.552801,-0.587755,-0.032792,0.808374,0.000000,0.000000,0.000000,-1,0.026926,-0.062200,-0.035248,-0.019881,-0.002792,-0.018625
"2019-10-15 10:57:26.501 +0000",1571137046.500785,-2.514154,0.032656,1.553737,-0.586760,-0.032650,0.809102,0.000000,0.000000,0.000000,-1,0.028929,-0.063865,-0.036152,-0.012865,-0.007832,-0.018972
"2019-10-15 10:57:26.521 +0000",1571137046.520660,-2.515456,0.032674,1.554463,-0.585706,-0.032669,0.809865,0.000000,0.000000,0.000000,-1,0.016591,-0.081860,-0.025040,-0.001010,-0.005997,-0.004125
"2019-10-15 10:57:26.541 +0000",1571137046.540534,-2.517078,0.032666,1.555126,-0.584391,-0.032660,0.810815,0.000000,0.000000,0.000000,-1,0.026062,-0.076313,-0.033237,-0.000035,0.005087,-0.004845
"2019-10-15 10:57:26.560 +0000",1571137046.560409,-2.518118,0.032758,1.556067,-0.583546,-0.032752,0.811420,0.000000,0.000000,0.000000,-1,0.018128,-0.042686,-0.047266,0.003132,0.007423,0.001447
"2019-10-15 10:57:26.580 +0000",1571137046.580283,-2.518785,0.033241,1.556918,-0.582995,-0.033235,0.811795,0.000000,0.000000,0.000000,-1,-0.004747,-0.034988,-0.050669,0.026263,0.019746,0.009372
"2019-10-15 10:57:26.600 +0000",1571137046.600158,-2.519241,0.034090,1.557642,-0.582609,-0.034084,0.812038,0.000000,0.000000,0.000000,-1,-0.018339,-0.012803,-0.057426,0.035185,0.016032,0.009526
"2019-10-15 10:57:26.620 +0000",1571137046.620033,-2.519146,0.035170,1.558310,-0.582664,-0.035163,0.811952,0.000000,0.000000,0.000000,-1,-0.031759,0.017955,-0.062116,0.038002,0.009513,0.006026
"2019-10-15 10:57:26.640 +0000",1571137046.639907,-2.518664,0.036407,1.558838,-0.583030,-0.036399,0.811635,0.000000,0.000000,0.000000,-1,-0.039913,0.031542,-0.057258,0.037543,0.006263,0.008082
"2019-10-15 10:57:26.660 +0000",1571137046.659782,-2.517977,0.037533,1.559245,-0.583562,-0.037525,0.811201,0.000000,0.000000,0.000000,-1,-0.035319,0.047152,-0.044604,0.033376,-0.007153,0.009829
"2019-10-15 10:57:26.680 +0000",1571137046.679657,-2.517017,0.038321,1.559386,-0.584324,-0.038311,0.810616,0.000000,0.000000,0.000000,-1,-0.025356,0.060984,-0.017380,0.030918,-0.017231,0.005912
"2019-10-15 10:57:26.700 +0000",1571137046.699532,-2.515878,0.038553,1.559219,-0.585242,-0.038543,0.809942,0.000000,0.000000,0.000000,-1,-0.010404,0.064174,0.014409,0.023566,-0.028153,0.002451
"2019-10-15 10:57:26.719 +0000",1571137046.719407,-2.514673,0.038245,1.558691,-0.586224,-0.038236,0.809246,0.000000,0.000000,0.000000,-1,-0.003330,0.069750,0.042925,0.015179,-0.027514,0.005344
"2019-10-15 10:57:26.739 +0000",1571137046.739281,-2.513278,0.037768,1.557798,-0.587363,-0.037759,0.808442,0.000000,0.000000,0.000000,-1,-0.010876,0.080214,0.052973,0.005576,-0.013922,0.004042
"2019-10-15 10:57:26.759 +0000",1571137046.759156,-2.511662,0.037352,1.556787,-0.588678,-0.037343,0.807504,0.000000,0.000000,0.000000,-1,-0.007367,0.087634,0.058034,0.002771,-0.009104,0.000128
"2019-10-15 10:57:26.779 +0000",1571137046.779029,-2.510029,0.036839,1.555860,-0.590007,-0.036830,0.806557,0.000000,0.000000,0.000000,-1,0.000029,0.083608,0.055419,0.000255,-0.008809,-0.000878
"2019-10-15 10:57:26.799 +0000",1571137046.798905,-2.508434,0.036268,1.555088,-0.591305,-0.036260,0.805632,0.000000,0.000000,0.000000,-1,0.008278,0.085029,0.044463,-0.004840,0.001272,-0.001860
"2019-10-15 10:57:26.819 +0000",1571137046.818780,-2.506776,0.035814,1.554601,-0.592650,-0.035806,0.804664,0.000000,0.000000,0.000000,-1,0.004502,0.086269,0.025162,-0.006837,0.019067,-0.009498
"2019-10-15 10:57:26.839 +0000",1571137046.838654,-2.505209,0.035621,1.554388,-0.593914,-0.035613,0.803740,0.000000,0.000000,0.000000,-1,0.000634,0.070525,0.009307,-0.004597,0.019637,-0.020033
"2019-10-15 10:57:26.859 +0000",1571137046.858529,-2.504083,0.035640,1.554278,-0.594818,-0.035632,0.803070,0.000000,0.000000,0.000000,-1,-0.003816,0.044292,0.000189,-0.009994,0.017322,-0.030075
"2019-10-15 10:57:26.878 +0000",1571137046.878403,-2.503366,0.035863,1.554313,-0.595389,-0.035856,0.802637,0.000000,0.000000,0.000000,-1,-0.010037,0.027691,-0.015644,-0.012659,0.016889,-0.033259
"2019-10-15 10:57:26.898 +0000",1571137046.898278,-2.502954,0.036172,1.554563,-0.595713,-0.036164,0.802383,0.000000,0.000000,0.000000,-1,-0.003611,0.011392,-0.023928,-0.010855,0.006684,-0.035491
"2019-10-15 10:57:26.918 +0000",1571137046.918154,-2.502852,0.036383,1.554934,-0.595790,-0.036375,0.802316,0.000000,0.000000,0.000000,-1,0.001554,-0.003583,-0.024240,-0.009175,-0.008882,-0.021585
"2019-10-15 10:57:26.938 +0000",1571137046.938027,-2.502895,0.036550,1.555273,-0.595752,-0.036542,0.802337,0.000000,0.000000,0.000000,-1,0.000414,-0.006945,-0.018340,-0.008526,-0.008807,-0.005386
"2019-10-15 10:57:26.958 +0000",1571137046.957902,-2.503010,0.036811,1.555542,-0.595654,-0.036802,0.802398,0.000000,0.000000,0.000000,-1,-0.010351,-0.016384,-0.023065,-0.007480,-0.003801,0.004350
"2019-10-15 10:57:26.978 +0000",1571137046.977776,-2.503369,0.037109,1.555748,-0.595360,-0.037101,0.802602,0.000000,0.000000,0.000000,-1,-0.005545,-0.025616,-0.014582,-0.000969,-0.011209,0.000452
"2019-10-15 10:57:26.998 +0000",1571137046.997651,-2.503757,0.037255,1.555844,-0.595044,-0.037246,0.802829,0.000000,0.000000,0.000000,-1,0.001346,-0.025571,-0.000411,0.004499,-0.019944,-0.004093
"2019-10-15 10:57:27.018 +0000",1571137047.017526,-2.504205,0.037120,1.555834,-0.594688,-0.037111,0.803100,0.000000,0.000000,0.000000,-1,0.011600,-0.027285,0.012800,0.006569,-0.019072,-0.008636
"2019-10-15 10:57:27.037 +0000",1571137047.037400,-2.504773,0.036784,1.555755,-0.594240,-0.036776,0.803447,0.000000,0.000000,0.000000,-1,0.013931,-0.031333,0.014357,0.003847,-0.007002,-0.008998
"2019-10-15 10:57:27.057 +0000",1571137047.057275,-2.505422,0.036473,1.555710,-0.593725,-0.036465,0.803842,0.000000,0.000000,0.000000,-1,0.008819,-0.034660,0.010064,0.002172,0.002117,-0.007241
"2019-10-15 10:57:27.077 +0000",1571137047.077150,-2.506092,0.036297,1.555711,-0.593190,-0.036289,0.804245,0.000000,0.000000,0.000000,-1,0.009971,-0.029810,0.004940,0.001103,0.011173,-0.004944
"2019-10-15 10:57:27.097 +0000",1571137047.097025,-2.506620,0.036277,1.555787,-0.592765,-0.036269,0.804559,0.000000,0.000000,0.000000,-1,0.002430,-0.019937,-0.003643,0.006476,0.016005,-0.004113
"2019-10-15 10:57:27.117 +0000",1571137047.116899,-2.506946,0.036405,1.555904,-0.592501,-0.036397,0.804747,0.000000,0.000000,0.000000,-1,0.000716,-0.011984,-0.009381,0.014406,0.012151,-0.003875
"2019-10-15 10:57:27.137 +0000",1571137047.136773,-2.507190,0.036519,1.556080,-0.592301,-0.036511,0.804889,0.000000,0.000000,0.000000,-1,0.003103,-0.013322,-0.010964,0.017869,0.006253,-0.005512
"2019-10-15 10:57:27.157 +0000",1571137047.156648,-2.507445,0.036569,1.556328,-0.592095,-0.036560,0.805039,0.000000,0.000000,0.000000,-1,0.004704,-0.011790,-0.013796,0.014534,0.005326,-0.005860
"2019-10-15 10:57:27.177 +0000",1571137047.176524,-2.507646,0.036744,1.556558,-0.591929,-0.036736,0.805152,0.000000,0.000000,0.000000,-1,-0.009735,-0.004764,-0.016912,0.010921,0.006432,-0.006217
"2019-10-15 10:57:27.196 +0000",1571137047.196398,-2.507751,0.037040,1.556676,-0.591839,-0.037032,0.805205,0.000000,0.000000,0.000000,-1,-0.012342,-0.007272,-0.014722,0.006115,-0.002031,-0.009688
"2019-10-15 10:57:27.216 +0000",1571137047.216273,-2.507996,0.037257,1.556732,-0.591636,-0.037248,0.805344,0.000000,0.000000,0.000000,-1,-0.004105,-0.014216,-0.005301,0.005317,-0.011076,-0.012024
"2019-10-15 10:57:27.236 +0000",1571137047.236147,-2.508269,0.037291,1.556756,-0.591416,-0.037283,0.805504,0.000000,0.000000,0.000000,-1,-0.000383,-0.010579,0.001126,0.004181,-0.011561,-0.006661
"2019-10-15 10:57:27.256 +0000",1571137047.256022,-2.508517,0.037260,1.556666,-0.591217,-0.037251,0.805652,0.000000,0.000000,0.000000,-1,-0.003734,-0.013393,0.004092,0.003006,-0.006755,-0.001743
"2019-10-15 10:57:27.276 +0000",1571137047.275898,-2.508771,0.037282,1.556441,-0.591011,-0.037274,0.805802,0.000000,0.000000,0.000000,-1,-0.008262,-0.011857,0.009311,0.002480,-0.004016,-0.002137
"2019-10-15 10:57:27.296 +0000",1571137047.295771,-2.508958,0.037313,1.556223,-0.590860,-0.037304,0.805911,0.000000,0.000000,0.000000,-1,-0.003207,-0.009831,0.007835,0.000024,-0.003773,-0.004230
"2019-10-15 10:57:27.316 +0000",1571137047.315646,-2.509079,0.037294,1.556072,-0.590763,-0.037285,0.805983,0.000000,0.000000,0.000000,-1,0.000317,-0.002733,0.007853,0.000858,-0.003761,-0.001571
"2019-10-15 10:57:27.336 +0000",1571137047.335520,-2.509089,0.037180,1.555960,-0.590758,-0.037171,0.805993,0.000000,0.000000,0.000000,-1,0.004731,0.004233,0.007859,0.003508,0.001252,-0.000298
"2019-10-15 10:57:27.355 +0000",1571137047.355396,-2.508918,0.037102,1.555919,-0.590897,-0.037094,0.805894,0.000000,0.000000,0.000000,-1,0.000502,0.011432,0.004463,0.008744,0.004516,-0.001496
"2019-10-15 10:57:27.375 +0000",1571137047.375270,-2.508679,0.037109,1.555873,-0.591089,-0.037101,0.805753,0.000000,0.000000,0.000000,-1,-0.000421,0.011660,0.002236,0.008204,0.004950,-0.005094
"2019-10-15 10:57:27.395 +0000",1571137047.395144,-2.508477,0.037105,1.555877,-0.591252,-0.037097,0.805633,0.000000,0.000000,0.000000,-1,0.001524,0.009911,0.000004,0.010884,0.000872,-0.008971
"2019-10-15 10:57:27.415 +0000",1571137047.415019,-2.508248,0.037040,1.555920,-0.591438,-0.037031,0.805500,0.000000,0.000000,0.000000,-1,0.003798,0.012473,0.002341,0.009041,0.000700,-0.009556
"2019-10-15 10:57:27.435 +0000",1571137047.434894,-2.508018,0.036943,1.555959,-0.591626,-0.036935,0.805367,0.000000,0.000000,0.000000,-1,0.006377,0.012363,-0.000468,0.008054,-0.000342,-0.008446
"2019-10-15 10:57:27.455 +0000",1571137047.454769,-2.507813,0.036894,1.555919,-0.591791,-0.036886,0.805246,0.000000,0.000000,0.000000,-1,-0.003650,0.007906,0.001451,0.006037,0.000829,-0.005457
"2019-10-15 10:57:27.475 +0000",1571137047.474644,-2.507677,0.036959,1.555807,-0.591900,-0.036951,0.805164,0.000000,0.000000,0.000000,-1,-0.008572,0.007779,0.003081,0.006069,0.002314,-0.007420
"2019-10-15 10:57:27.495 +0000",1571137047.494518,-2.507542,0.037051,1.555639,-0.592007,-0.037043,0.805081,0.000000,0.000000,0.000000,-1,-0.009448,0.003072,0.005790,0.005962,-0.001211,-0.008191
"2019-10-15 10:57:27.514 +0000",1571137047.514392,-2.507520,0.037092,1.555442,-0.592023,-0.037084,0.805068,0.000000,0.000000,0.000000,-1,-0.004589,0.000466,0.007855,0.002606,-0.004573,-0.010695
"2019-10-15 10:57:27.534 +0000",1571137047.534267,-2.507567,0.037067,1.555216,-0.591986,-0.037058,0.805096,0.000000,0.000000,0.000000,-1,-0.007888,-0.002625,0.010114,-0.000269,-0.002584,-0.009869
"2019-10-15 10:57:27.554 +0000",1571137047.554142,-2.507612,0.037023,1.554981,-0.591951,-0.037014,0.805124,0.000000,0.000000,0.000000,-1,-0.005507,-0.003406,0.007650,0.000764,0.001278,-0.008478
"2019-10-15 10:57:27.574 +0000",1571137047.574016,-2.507621,0.037012,1.554845,-0.591943,-0.037003,0.805130,0.000000,0.000000,0.000000,-1,-0.001261,0.000914,0.004677,0.006052,0.000367,-0.008194
"2019-10-15 10:57:27.594 +0000",1571137047.593891,-2.507577,0.036923,1.554770,-0.591981,-0.036915,0.805106,0.000000,0.000000,0.000000,-1,0.003233,0.001760,0.009071,0.008302,-0.001919,-0.006553
"2019-10-15 10:57:27.614 +0000",1571137047.613766,-2.507583,0.036805,1.554625,-0.591979,-0.036797,0.805113,0.000000,0.000000,0.000000,-1,-0.003756,-0.006872,0.009099,-0.000138,-0.002220,-0.003843
"2019-10-15 10:57:27.634 +0000",1571137047.633640,-2.507610,0.036744,1.554494,-0.591959,-0.036736,0.805131,0.000000,0.000000,0.000000,-1,-0.001850,-0.001845,0.000631,-0.006598,0.003258,-0.002335
"2019-10-15 10:57:27.654 +0000",1571137047.653515,-2.507604,0.036759,1.554473,-0.591963,-0.036751,0.805127,0.000000,0.000000,0.000000,-1,0.000699,-0.000954,-0.002785,-0.003145,0.000725,-0.006039
"2019-10-15 10:57:27.673 +0000",1571137047.673390,-2.507660,0.036718,1.554515,-0.591919,-0.036710,0.805161,0.000000,0.000000,0.000000,-1,0.004394,-0.002455,-0.000400,0.001709,-0.005404,-0.009675
"2019-10-15 10:57:27.693 +0000",1571137047.693263,-2.507679,0.036624,1.554527,-0.591905,-0.036616,0.805175,0.000000,0.000000,0.000000,-1,0.005770,0.000401,0.003490,0.005983,-0.002660,-0.008667
"2019-10-15 10:57:27.713 +0000",1571137047.713138,-2.507687,0.036456,1.554530,-0.591903,-0.036448,0.805185,0.000000,0.000000,0.000000,-1,0.006897,-0.000299,0.005278,0.011947,-0.000723,-0.006418
"2019-10-15 10:57:27.733 +0000",1571137047.733013,-2.507619,0.036241,1.554518,-0.591962,-0.036233,0.805151,0.000000,0.000000,0.000000,-1,0.007962,0.006743,0.007320,0.013318,-0.001944,-0.004370
"2019-10-15 10:57:27.753 +0000",1571137047.752888,-2.507461,0.036035,1.554495,-0.592093,-0.036027,0.805064,0.000000,0.000000,0.000000,-1,0.006256,0.006303,0.007758,0.010673,0.002046,-0.001765
"2019-10-15 10:57:27.773 +0000",1571137047.772762,-2.507290,0.035901,1.554418,-0.592234,-0.035894,0.804966,0.000000,0.000000,0.000000,-1,-0.000245,0.009127,0.006331,0.005763,0.004339,0.001888
"2019-10-15 10:57:27.793 +0000",1571137047.792637,-2.507061,0.035831,1.554329,-0.592420,-0.035823,0.804833,0.000000,0.000000,0.000000,-1,0.000292,0.015863,0.007037,0.005780,0.002757,0.000587
"2019-10-15 10:57:27.813 +0000",1571137047.812512,-2.506688,0.035722,1.554253,-0.592722,-0.035714,0.804614,0.000000,0.000000,0.000000,-1,0.002523,0.020179,0.008306,0.005976,-0.003638,-0.004398
"2019-10-15 10:57:27.832 +0000",1571137047.832386,-2.506332,0.035579,1.554186,-0.593012,-0.035571,0.804407,0.000000,0.000000,0.000000,-1,0.003722,0.018052,0.005853,0.005503,0.001208,-0.011179
"2019-10-15 10:57:27.852 +0000",1571137047.852262,-2.506041,0.035446,1.554089,-0.593249,-0.035438,0.804239,0.000000,0.000000,0.000000,-1,-0.000711,0.011891,0.008729,0.007220,0.005012,-0.015207
"2019-10-15 10:57:27.872 +0000",1571137047.872136,-2.505878,0.035345,1.553822,-0.593382,-0.035337,0.804145,0.000000,0.000000,0.000000,-1,-0.006268,0.003022,0.014708,0.003126,-0.002047,-0.017860
"2019-10-15 10:57:27.892 +0000",1571137047.892011,-2.505898,0.035228,1.553443,-0.593368,-0.035221,0.804160,0.000000,0.000000,0.000000,-1,-0.008388,-0.005283,0.020427,-0.001023,-0.000652,-0.019675
"2019-10-15 10:57:27.912 +0000",1571137047.911886,-2.506047,0.035091,1.553069,-0.593251,-0.035084,0.804253,0.000000,0.000000,0.000000,-1,-0.001995,-0.010053,0.017378,-0.002132,0.000706,-0.016533
"2019-10-15 10:57:27.932 +0000",1571137047.931760,-2.506287,0.034915,1.552860,-0.593062,-0.034908,0.804400,0.000000,0.000000,0.000000,-1,0.002506,-0.016972,0.008715,-0.001909,-0.003072,-0.003710
"2019-10-15 10:57:27.952 +0000",1571137047.951635,-2.506601,0.034721,1.552838,-0.592814,-0.034714,0.804591,0.000000,0.000000,0.000000,-1,0.008765,-0.016056,0.005821,-0.006552,-0.002334,0.005086
"2019-10-15 10:57:27.972 +0000",1571137047.971509,-2.506772,0.034606,1.552935,-0.592678,-0.034599,0.804696,0.000000,0.000000,0.000000,-1,0.008500,-0.003933,-0.005314,0.001919,0.004036,0.007865
"2019-10-15 10:57:27.991 +0000",1571137047.991383,-2.506706,0.034608,1.553137,-0.592731,-0.034601,0.804657,0.000000,0.000000,0.000000,-1,0.002494,0.007954,-0.007955,0.012821,0.004008,0.002930
"2019-10-15 10:57:28.011 +0000",1571137048.011259,-2.506548,0.034673,1.553380,-0.592857,-0.034667,0.804561,0.000000,0.000000,0.000000,-1,0.007131,0.007466,-0.014407,0.013298,-0.001466,-0.004146
"2019-10-15 10:57:28.031 +0000",1571137048.031133,-2.506383,0.034763,1.553724,-0.592987,-0.034756,0.804461,0.000000,0.000000,0.000000,-1,0.008611,0.009226,-0.014422,0.012223,-0.001285,-0.006869
"2019-10-15 10:57:28.051 +0000",1571137048.051007,-2.506277,0.034824,1.554036,-0.593072,-0.034817,0.804396,0.000000,0.000000,0.000000,-1,0.005230,0.005144,-0.012903,0.007074,-0.001789,-0.006896
"2019-10-15 10:57:28.071 +0000",1571137048.070882,-2.506272,0.034906,1.554200,-0.593074,-0.034899,0.804391,0.000000,0.000000,0.000000,-1,-0.002193,0.003328,-0.009333,0.001613,0.002978,-0.005197
"2019-10-15 10:57:28.091 +0000",1571137048.090756,-2.506262,0.035085,1.554266,-0.593079,-0.035077,0.804380,0.000000,0.000000,0.000000,-1,-0.007359,0.002092,-0.005480,0.002869,0.005735,-0.009428
"2019-10-15 10:57:28.111 +0000",1571137048.110632,-2.506229,0.035279,1.554184,-0.593101,-0.035271,0.804355,0.000000,0.000000,0.000000,-1,-0.011291,0.001579,0.001390,0.011924,0.002251,-0.017124
"2019-10-15 10:57:28.131 +0000",1571137048.130506,-2.506246,0.035389,1.553974,-0.593085,-0.035382,0.804362,0.000000,0.000000,0.000000,-1,-0.012555,-0.004037,0.007921,0.012992,0.000485,-0.016932
"2019-10-15 10:57:28.150 +0000",1571137048.150380,-2.506354,0.035471,1.553687,-0.592996,-0.035463,0.804424,0.000000,0.000000,0.000000,-1,-0.010250,-0.008330,0.012612,0.006311,0.001421,-0.012951
"2019-10-15 10:57:28.170 +0000",1571137048.170254,-2.506502,0.035502,1.553406,-0.592876,-0.035495,0.804511,0.000000,0.000000,0.000000,-1,-0.009933,-0.005724,0.007837,0.000286,-0.000531,-0.007651
"2019-10-15 10:57:28.190 +0000",1571137048.190130,-2.506593,0.035589,1.553202,-0.592802,-0.035582,0.804562,0.000000,0.000000,0.000000,-1,-0.008725,-0.000247,0.004765,0.001234,0.001326,-0.001049
"2019-10-15 10:57:28.210 +0000",1571137048.210004,-2.506597,0.035707,1.553090,-0.592796,-0.035699,0.804561,0.000000,0.000000,0.000000,-1,-0.003852,0.000300,-0.001834,0.002464,-0.000724,0.003148
"2019-10-15 10:57:28.230 +0000",1571137048.229879,-2.506482,0.035773,1.553082,-0.592887,-0.035766,0.804491,0.000000,0.000000,0.000000,-1,-0.001064,0.008795,-0.004862,0.003990,-0.006532,0.003737
"2019-10-15 10:57:28.250 +0000",1571137048.249754,-2.506309,0.035813,1.553159,-0.593025,-0.035805,0.804388,0.000000,0.000000,0.000000,-1,0.002721,0.009020,-0.002675,0.003715,-0.004982,0.001597
"2019-10-15 10:57:28.270 +0000",1571137048.269629,-2.506127,0.035818,1.553247,-0.593171,-0.035811,0.804279,0.000000,0.000000,0.000000,-1,0.001454,0.007263,-0.003129,0.001863,-0.003710,-0.001225
"2019-10-15 10:57:28.290 +0000",1571137048.289503,-2.505983,0.035872,1.553390,-0.593286,-0.035865,0.804192,0.000000,0.000000,0.000000,-1,0.000544,0.009122,-0.009667,0.002924,0.000464,-0.008629
"2019-10-15 10:57:28.309 +0000",1571137048.309377,-2.505792,0.035978,1.553603,-0.593438,-0.035970,0.804076,0.000000,0.000000,0.000000,-1,0.003337,0.010331,-0.012253,0.007760,0.003163,-0.012862
"2019-10-15 10:57:28.329 +0000",1571137048.329252,-2.505674,0.036103,1.553858,-0.593530,-0.036095,0.804002,0.000000,0.000000,0.000000,-1,0.003024,0.003277,-0.010006,0.009103,0.003259,-0.013124
"2019-10-15 10:57:28.349 +0000",1571137048.349127,-2.505685,0.036188,1.553944,-0.593519,-0.036181,0.804006,0.000000,0.000000,0.000000,-1,0.000965,-0.002996,-0.002282,0.002027,-0.001005,-0.011846
"2019-10-15 10:57:28.369 +0000",1571137048.369001,-2.505754,0.036284,1.553973,-0.593462,-0.036276,0.804045,0.000000,0.000000,0.000000,-1,-0.006254,-0.003853,-0.005927,-0.003127,0.007040,-0.006300
"2019-10-15 10:57:28.389 +0000",1571137048.388876,-2.505802,0.036454,1.554062,-0.593419,-0.036446,0.804068,0.000000,0.000000,0.000000,-1,-0.002805,-0.003704,-0.011430,0.002630,0.005639,-0.010062
"2019-10-15 10:57:28.409 +0000",1571137048.408750,-2.505875,0.036592,1.554149,-0.593358,-0.036583,0.804107,0.000000,0.000000,0.000000,-1,-0.003948,-0.003308,-0.003702,0.007924,-0.003669,-0.010009
"2019-10-15 10:57:28.429 +0000",1571137048.428625,-2.505923,0.036651,1.554130,-0.593318,-0.036643,0.804134,0.000000,0.000000,0.000000,-1,-0.003237,-0.003827,0.000640,0.007426,-0.004098,-0.007992
"2019-10-15 10:57:28.448 +0000",1571137048.448499,-2.506009,0.036767,1.554011,-0.593246,-0.036758,0.804181,0.000000,0.000000,0.000000,-1,-0.009142,-0.006004,0.002437,0.004700,-0.001511,-0.004682
"2019-10-15 10:57:28.468 +0000",1571137048.468375,-2.506170,0.036877,1.553909,-0.593114,-0.036868,0.804274,0.000000,0.000000,0.000000,-1,-0.008025,-0.010284,-0.001051,0.003438,-0.002576,-0.005721
