timestamp,timeIntervalSince1970,attitude.roll,attitude.pitch,attitude.yaw,gravity.x,gravity.y,gravity.z,magneticField.x,magneticField.y,magneticField.z,magneticField.accuracy,rotationRate.x,rotationRate.y,rotationRate.z,userAcceleration.x,userAcceleration.y,userAcceleration.z
"2019-05-05 22:57:42.628 +0000",1557097062.627565,0.055225,0.387985,-0.012213,0.051094,-0.378324,-0.924262,0.000000,0.000000,0.000000,-1,0.152026,-1.530247,0.060944,-0.129219,-0.017306,0.026099
"2019-05-05 22:57:42.650 +0000",1557097062.649874,0.028296,0.391840,-0.002326,0.026148,-0.381889,-0.923838,0.000000,0.000000,0.000000,-1,0.113347,-0.749612,0.571100,-0.115015,-0.019234,0.075404
"2019-05-05 22:57:42.672 +0000",1557097062.672182,0.010701,0.388682,0.010811,0.009902,-0.378969,-0.925357,0.000000,0.000000,0.000000,-1,-0.303046,-0.399374,0.524393,-0.178573,0.217729,0.082064
"2019-05-05 22:57:42.694 +0000",1557097062.694490,0.009510,0.378540,0.023178,0.008837,-0.369564,-0.929163,0.000000,0.000000,0.000000,-1,-0.551085,0.221652,0.498926,-0.214906,-0.129093,0.083475
"2019-05-05 22:57:42.717 +0000",1557097062.716767,0.003642,0.364281,0.032144,0.003403,-0.356277,-0.934374,0.000000,0.000000,0.000000,-1,-0.650192,-0.289774,0.273923,-0.263123,-0.056915,0.072817
"2019-05-05 22:57:42.739 +0000",1557097062.739074,-0.004301,0.353213,0.037232,-0.004035,-0.345914,-0.938257,0.000000,0.000000,0.000000,-1,-0.372014,-0.234607,0.194158,-0.307320,0.020292,0.057184
"2019-05-05 22:57:42.761 +0000",1557097062.761371,-0.010029,0.351260,0.038963,-0.009416,-0.344081,-0.938893,0.000000,0.000000,0.000000,-1,0.113745,-0.262326,-0.028685,-0.240813,-0.009083,-0.072811
"2019-05-05 22:57:42.784 +0000",1557097062.783670,-0.012094,0.357129,0.035403,-0.011330,-0.349586,-0.936836,0.000000,0.000000,0.000000,-1,0.238586,-0.040322,-0.211721,-0.198218,-0.043908,0.040413
"2019-05-05 22:57:42.806 +0000",1557097062.805997,-0.010132,0.354524,0.030327,-0.009502,-0.347144,-0.937764,0.000000,0.000000,0.000000,-1,-0.341953,0.040782,-0.170512,-0.181767,-0.056253,0.116993
"2019-05-05 22:57:42.828 +0000",1557097062.828275,-0.006231,0.340560,0.029874,-0.005873,-0.334015,-0.942549,0.000000,0.000000,0.000000,-1,-0.767263,0.235947,0.083125,-0.170076,-0.049286,0.151381
"2019-05-05 22:57:42.851 +0000",1557097062.850583,0.004156,0.323406,0.032042,0.003941,-0.317798,-0.948150,0.000000,0.000000,0.000000,-1,-0.696709,0.683757,0.084143,-0.134953,-0.093961,0.042022
"2019-05-05 22:57:42.873 +0000",1557097062.872890,0.015772,0.313276,0.033216,0.015004,-0.308177,-0.951211,0.000000,0.000000,0.000000,-1,-0.302187,0.385854,-0.012287,-0.221241,-0.079015,-0.072349
"2019-05-05 22:57:42.895 +0000",1557097062.895199,0.024436,0.311334,0.030205,0.023259,-0.306328,-0.951642,0.000000,0.000000,0.000000,-1,0.006988,0.413646,-0.176153,-0.220494,-0.040550,-0.024921
"2019-05-05 22:57:42.917 +0000",1557097062.917492,0.035561,0.310586,0.026402,0.033853,-0.305616,-0.951553,0.000000,0.000000,0.000000,-1,-0.105707,0.405179,-0.126504,-0.228479,0.010115,0.152587
"2019-05-05 22:57:42.940 +0000",1557097062.939784,0.039406,0.305720,0.029904,0.037569,-0.300980,-0.952890,0.000000,0.000000,0.000000,-1,-0.243211,0.061308,0.355338,-0.238039,0.007813,0.202844
"2019-05-05 22:57:42.962 +0000",1557097062.962093,0.032841,0.306626,0.047552,0.031303,-0.301843,-0.952843,0.000000,0.000000,0.000000,-1,0.259733,-0.000077,0.968925,-0.236717,0.098535,0.220437
"2019-05-05 22:57:42.984 +0000",1557097062.984376,0.010945,0.326097,0.077258,0.010368,-0.320348,-0.947243,0.000000,0.000000,0.000000,-1,1.220584,-1.004076,1.450895,-0.128547,0.212560,0.393364
"2019-05-05 22:57:43.007 +0000",1557097063.006704,-0.047579,0.359152,0.115031,-0.044527,-0.351481,-0.935136,0.000000,0.000000,0.000000,-1,1.510192,-2.669871,1.695306,-0.153395,0.278773,0.618333
"2019-05-05 22:57:43.029 +0000",1557097063.028986,-0.136989,0.382798,0.167890,-0.126677,-0.373517,-0.918933,0.000000,0.000000,0.000000,-1,1.150030,-3.294775,2.375553,-0.052568,0.343671,0.657016
"2019-05-05 22:57:43.051 +0000",1557097063.051294,-0.240505,0.395846,0.237101,-0.219774,-0.385589,-0.896114,0.000000,0.000000,0.000000,-1,1.159316,-3.684041,2.872747,-0.076262,0.475616,0.708309
"2019-05-05 22:57:43.074 +0000",1557097063.073601,-0.369148,0.403359,0.321866,-0.331865,-0.392510,-0.857789,0.000000,0.000000,0.000000,-1,1.479925,-4.600336,3.518656,-0.020842,0.637521,0.637559
"2019-05-05 22:57:43.096 +0000",1557097063.095910,-0.513217,0.395580,0.421905,-0.453065,-0.385343,-0.803892,0.000000,0.000000,0.000000,-1,1.381641,-4.614405,4.027361,0.078859,0.743391,0.640196
"2019-05-05 22:57:43.118 +0000",1557097063.118218,-0.659984,0.363406,0.524035,-0.573063,-0.355460,-0.738408,0.000000,0.000000,0.000000,-1,1.066292,-5.162167,4.610180,0.126164,0.730002,0.509649
"2019-05-05 22:57:43.141 +0000",1557097063.140506,-0.806484,0.307020,0.627158,-0.688103,-0.302219,-0.659680,0.000000,0.000000,0.000000,-1,1.069758,-4.747006,5.082865,-0.127921,0.707691,0.075344
"2019-05-05 22:57:43.163 +0000",1557097063.162803,-0.912211,0.231479,0.721369,-0.769765,-0.229418,-0.595676,0.000000,0.000000,0.000000,-1,0.753361,-2.811271,5.298768,-0.107005,0.641634,0.064532
"2019-05-05 22:57:43.185 +0000",1557097063.185112,-0.971951,0.140316,0.797080,-0.817869,-0.139856,-0.558149,0.000000,0.000000,0.000000,-1,-0.153487,-1.557669,5.098689,-0.219896,0.594797,0.096815
"2019-05-05 22:57:43.207 +0000",1557097063.207396,-0.997981,0.043601,0.844729,-0.839580,-0.043588,-0.541485,0.000000,0.000000,0.000000,-1,-0.691758,-1.025690,4.663269,-0.674977,0.276666,-0.280826
"2019-05-05 22:57:43.230 +0000",1557097063.229727,-1.048976,-0.043397,0.895425,-0.866097,0.043383,-0.497990,0.000000,0.000000,0.000000,-1,0.308900,-3.135056,4.326386,-0.661643,0.201658,-0.525112
"2019-05-05 22:57:43.252 +0000",1557097063.252006,-1.108185,-0.115930,0.953183,-0.888884,0.115670,-0.443291,0.000000,0.000000,0.000000,-1,0.901832,-2.186095,4.075070,-0.613543,0.126044,-0.583702
"2019-05-05 22:57:43.274 +0000",1557097063.274400,-1.114706,-0.189399,1.012387,-0.881727,0.188269,-0.432565,0.000000,0.000000,0.000000,-1,0.755215,0.080871,4.036277,-0.597384,0.107217,-0.496481
"2019-05-05 22:57:43.297 +0000",1557097063.296613,-1.081873,-0.261875,1.060977,-0.852740,0.258892,-0.453663,0.000000,0.000000,0.000000,-1,0.349975,1.365296,3.798923,-0.738035,-0.104122,-0.302960
"2019-05-05 22:57:43.319 +0000",1557097063.318926,-1.039668,-0.326499,1.118493,-0.816685,0.320729,-0.479749,0.000000,0.000000,0.000000,-1,1.121669,0.799186,3.652933,-0.669903,-0.162907,-0.398807
"2019-05-05 22:57:43.341 +0000",1557097063.341236,-1.019120,-0.362289,1.195196,-0.796365,0.354416,-0.490094,0.000000,0.000000,0.000000,-1,2.360167,-1.006803,2.530678,-0.870475,-0.277832,-0.449252
"2019-05-05 22:57:43.364 +0000",1557097063.363514,-1.039452,-0.367133,1.266478,-0.804675,0.358941,-0.472927,0.000000,0.000000,0.000000,-1,2.247854,-2.445672,1.376053,-0.744764,-0.408288,0.111110
"2019-05-05 22:57:43.386 +0000",1557097063.385821,-1.064194,-0.367277,1.313464,-0.816083,0.359075,-0.452850,0.000000,0.000000,0.000000,-1,1.361622,-1.300872,0.712987,-0.688037,-0.383977,0.182205
"2019-05-05 22:57:43.408 +0000",1557097063.408136,-1.068962,-0.360398,1.326148,-0.820379,0.352647,-0.450131,0.000000,0.000000,0.000000,-1,0.119224,0.104548,-0.592664,-0.814692,-0.510987,0.538800
"2019-05-05 22:57:43.430 +0000",1557097063.430437,-1.065936,-0.334377,1.289970,-0.826767,0.328180,-0.456897,0.000000,0.000000,0.000000,-1,-1.243518,0.742951,-2.366685,-0.775360,-0.592203,0.651324
"2019-05-05 22:57:43.453 +0000",1557097063.452746,-1.076386,-0.292858,1.223526,-0.842770,0.288690,-0.454309,0.000000,0.000000,0.000000,-1,-1.650056,0.270708,-3.242211,-0.614826,-0.386132,0.514688
"2019-05-05 22:57:43.475 +0000",1557097063.475023,-1.094223,-0.251569,1.162170,-0.860603,0.248924,-0.444297,0.000000,0.000000,0.000000,-1,-1.339683,-0.292999,-2.397228,-0.138863,-0.049553,0.243980
"2019-05-05 22:57:43.497 +0000",1557097063.497329,-1.127937,-0.247567,1.118490,-0.875983,0.245046,-0.415460,0.000000,0.000000,0.000000,-1,-1.835849,-1.652600,-0.185893,0.487890,0.248911,0.326471
"2019-05-05 22:57:43.520 +0000",1557097063.519638,-1.202097,-0.266948,1.086259,-0.899758,0.263789,-0.347637,0.000000,0.000000,0.000000,-1,-1.324021,-3.501286,0.138390,0.128029,0.049474,0.587413
"2019-05-05 22:57:43.542 +0000",1557097063.541947,-1.274814,-0.270057,1.057232,-0.921848,0.266786,-0.281108,0.000000,0.000000,0.000000,-1,-1.466742,-2.651517,-0.552752,0.102573,0.188414,0.555629
"2019-05-05 22:57:43.564 +0000",1557097063.564222,-1.334686,-0.239944,1.030089,-0.944401,0.237648,-0.227221,0.000000,0.000000,0.000000,-1,-0.241676,-1.838635,-2.025762,-0.227367,-0.153679,0.160800
"2019-05-05 22:57:43.587 +0000",1557097063.586530,-1.360078,-0.205872,1.025076,-0.957231,0.204421,-0.204746,0.000000,0.000000,0.000000,-1,0.233986,-0.784749,-1.214916,0.233552,0.287691,-0.015087
"2019-05-05 22:57:43.609 +0000",1557097063.608852,-1.365345,-0.189719,1.030701,-0.961404,0.188583,-0.200348,0.000000,0.000000,0.000000,-1,0.645074,-0.284671,-0.458727,0.075402,0.232666,-0.254409
"2019-05-05 22:57:43.631 +0000",1557097063.631148,-1.382176,-0.176264,1.048848,-0.967044,0.175353,-0.184599,0.000000,0.000000,0.000000,-1,1.027092,-1.277129,-0.428665,0.074054,0.361619,-0.139177
"2019-05-05 22:57:43.653 +0000",1557097063.653436,-1.414723,-0.162286,1.072543,-0.974865,0.161575,-0.153398,0.000000,0.000000,0.000000,-1,1.197804,-1.728686,-0.434295,0.144375,0.275696,0.168351
"2019-05-05 22:57:43.676 +0000",1557097063.675733,-1.442019,-0.149277,1.096733,-0.980691,0.148723,-0.126993,0.000000,0.000000,0.000000,-1,0.973867,-1.020111,-0.408426,0.124169,0.238377,0.235254
"2019-05-05 22:57:43.698 +0000",1557097063.698041,-1.445151,-0.140142,1.112565,-0.982391,0.139683,-0.124086,0.000000,0.000000,0.000000,-1,0.662980,0.216630,-0.261989,0.121612,0.205242,0.225054
"2019-05-05 22:57:43.720 +0000",1557097063.720349,-1.431741,-0.138500,1.126334,-0.980864,0.138058,-0.137280,0.000000,0.000000,0.000000,-1,0.575890,0.615539,0.153735,0.181899,0.254337,0.102338
"2019-05-05 22:57:43.743 +0000",1557097063.742657,-1.412609,-0.146128,1.137889,-0.976990,0.145609,-0.155850,0.000000,0.000000,0.000000,-1,0.362996,0.875129,0.502413,0.185501,0.270926,0.098126
"2019-05-05 22:57:43.765 +0000",1557097063.764966,-1.389733,-0.155638,1.145550,-0.971763,0.155011,-0.177899,0.000000,0.000000,0.000000,-1,0.218315,1.038165,0.369406,-0.036431,0.284076,0.037763
"2019-05-05 22:57:43.787 +0000",1557097063.787242,-1.366570,-0.157818,1.151508,-0.967049,0.157164,-0.200289,0.000000,0.000000,0.000000,-1,0.261267,1.108586,0.124413,-0.301033,0.226030,-0.013624
"2019-05-05 22:57:43.810 +0000",1557097063.809542,-1.331673,-0.164610,1.157609,-0.958413,0.163868,-0.233650,0.000000,0.000000,0.000000,-1,0.128981,1.648815,0.506610,0.060097,0.231182,0.151145
"2019-05-05 22:57:43.832 +0000",1557097063.831858,-1.303303,-0.181825,1.164899,-0.948538,0.180825,-0.259957,0.000000,0.000000,0.000000,-1,0.188456,0.925200,1.063859,0.054205,0.271613,0.164681
"2019-05-05 22:57:43.854 +0000",1557097063.854166,-1.278868,-0.208954,1.179235,-0.936859,0.207437,-0.281539,0.000000,0.000000,0.000000,-1,0.364581,0.988420,1.487638,0.178452,0.587043,-0.073380
"2019-05-05 22:57:43.876 +0000",1557097063.876465,-1.255225,-0.243024,1.209054,-0.922685,0.240639,-0.301239,0.000000,0.000000,0.000000,-1,0.859720,0.148627,1.856302,0.097108,0.159675,0.023285
"2019-05-05 22:57:43.899 +0000",1557097063.898753,-1.268737,-0.271945,1.240842,-0.919640,0.268605,-0.286555,0.000000,0.000000,0.000000,-1,0.947945,-1.354359,1.596762,0.012871,0.098338,0.193568
"2019-05-05 22:57:43.921 +0000",1557097063.921060,-1.291574,-0.290311,1.274628,-0.921046,0.286250,-0.264075,0.000000,0.000000,0.000000,-1,1.236973,-1.555226,0.836977,0.090739,0.071431,0.240516
"2019-05-05 22:57:43.943 +0000",1557097063.943367,-1.327241,-0.295712,1.305734,-0.928363,0.291421,-0.230687,0.000000,0.000000,0.000000,-1,1.200501,-2.114648,0.600022,0.204043,0.140433,0.069570
"2019-05-05 22:57:43.966 +0000",1557097063.965676,-1.358896,-0.304213,1.329980,-0.932743,0.299542,-0.200660,0.000000,0.000000,0.000000,-1,0.770427,-1.437296,0.526836,0.230961,-0.070691,0.006782
"2019-05-05 22:57:43.988 +0000",1557097063.987982,-1.372174,-0.303228,1.341870,-0.935614,0.298602,-0.188316,0.000000,0.000000,0.000000,-1,0.268484,-0.286940,-0.332120,-0.111490,-0.214953,0.084602
"2019-05-05 22:57:44.010 +0000",1557097064.010262,-1.374996,-0.284668,1.339335,-0.941416,0.280839,-0.186722,0.000000,0.000000,0.000000,-1,0.044020,-0.267222,-0.935294,-0.440832,-0.237916,0.316788
"2019-05-05 22:57:44.033 +0000",1557097064.032573,-1.396229,-0.264649,1.335184,-0.950515,0.261570,-0.167635,0.000000,0.000000,0.000000,-1,-0.034361,-1.145595,-0.937455,-0.096711,-0.060902,0.275438
"2019-05-05 22:57:44.055 +0000",1557097064.054877,-1.414625,-0.249875,1.330305,-0.957151,0.247283,-0.150706,0.000000,0.000000,0.000000,-1,-0.191192,-0.408165,-0.455295,0.066175,0.125230,0.088267
"2019-05-05 22:57:44.077 +0000",1557097064.077184,-1.412493,-0.245383,1.326900,-0.957915,0.242928,-0.152921,0.000000,0.000000,0.000000,-1,0.036393,0.256261,-0.124909,0.054824,0.073341,-0.073809
"2019-05-05 22:57:44.099 +0000",1557097064.099483,-1.412407,-0.245335,1.330385,-0.957913,0.242881,-0.153005,0.000000,0.000000,0.000000,-1,0.073261,-0.209184,0.074003,-0.087497,0.174706,0.250020
"2019-05-05 22:57:44.122 +0000",1557097064.121771,-1.425571,-0.249810,1.318259,-0.958760,0.247220,-0.140223,0.000000,0.000000,0.000000,-1,-0.952760,-0.620190,0.151645,-0.097851,0.087024,0.355510
"2019-05-05 22:57:44.144 +0000",1557097064.144078,-1.456583,-0.253703,1.278638,-0.961683,0.250990,-0.110317,0.000000,0.000000,0.000000,-1,-2.108295,-1.067160,-0.150056,-0.231524,0.015169,0.180920
"2019-05-05 22:57:44.166 +0000",1557097064.166386,-1.482154,-0.254182,1.228160,-0.964069,0.251454,-0.085682,0.000000,0.000000,0.000000,-1,-2.441914,0.073536,-0.025105,-0.345532,0.063045,-0.212430
"2019-05-05 22:57:44.189 +0000",1557097064.188693,-1.475399,-0.277450,1.165635,-0.957384,0.273904,-0.091610,0.000000,0.000000,0.000000,-1,-2.438537,1.535899,1.172683,0.496889,0.424415,0.241131
"2019-05-05 22:57:44.211 +0000",1557097064.211003,-1.456464,-0.304439,1.143378,-0.947787,0.299758,-0.108837,0.000000,0.000000,0.000000,-1,-0.306071,0.582934,1.044356,0.224947,0.248979,0.126949
"2019-05-05 22:57:44.233 +0000",1557097064.233279,-1.449835,-0.325570,1.153536,-0.940545,0.319849,-0.114328,0.000000,0.000000,0.000000,-1,0.418149,0.116564,0.928473,0.032037,0.306783,0.321069
"2019-05-05 22:57:44.256 +0000",1557097064.255583,-1.436349,-0.340277,1.153893,-0.934155,0.333748,-0.126357,0.000000,0.000000,0.000000,-1,-0.277109,0.994970,0.386945,-0.430240,0.009147,0.108626
"2019-05-05 22:57:44.278 +0000",1557097064.277889,-1.404328,-0.338666,1.138715,-0.930160,0.332229,-0.156289,0.000000,0.000000,0.000000,-1,-0.913182,1.879809,-0.406444,-0.264649,0.087403,0.243295
"2019-05-05 22:57:44.300 +0000",1557097064.300204,-1.383905,-0.337316,1.113961,-0.927214,0.330955,-0.175335,0.000000,0.000000,0.000000,-1,-0.721576,0.795262,0.007682,0.128066,0.111748,0.149715
"2019-05-05 22:57:44.323 +0000",1557097064.322502,-1.381009,-0.343067,1.118476,-0.924818,0.336377,-0.177657,0.000000,0.000000,0.000000,-1,0.632638,-0.234862,0.370960,0.129591,0.111087,-0.176957
"2019-05-05 22:57:44.345 +0000",1557097064.344793,-1.378227,-0.348940,1.138598,-0.922365,0.341902,-0.179848,0.000000,0.000000,0.000000,-1,0.812527,-0.100296,0.475289,0.159792,0.183596,0.048820
"2019-05-05 22:57:44.367 +0000",1557097064.367101,-1.362026,-0.356043,1.165909,-0.916932,0.348568,-0.194259,0.000000,0.000000,0.000000,-1,1.173009,0.380994,0.513349,0.172669,0.240100,0.130355
"2019-05-05 22:57:44.389 +0000",1557097064.389409,-1.341206,-0.362290,1.195042,-0.910551,0.354416,-0.212806,0.000000,0.000000,0.000000,-1,1.071625,0.483194,0.549615,0.130537,0.306717,0.328804
"2019-05-05 22:57:44.412 +0000",1557097064.411716,-1.327005,-0.365941,1.216916,-0.906175,0.357828,-0.225401,0.000000,0.000000,0.000000,-1,0.685131,0.237054,0.245221,0.044359,0.201742,0.117781
"2019-05-05 22:57:44.434 +0000",1557097064.434025,-1.313104,-0.367231,1.230589,-0.902507,0.359033,-0.237858,0.000000,0.000000,0.000000,-1,0.496782,0.432256,0.164013,0.073787,0.201636,-0.037868
"2019-05-05 22:57:44.456 +0000",1557097064.456294,-1.309089,-0.366248,1.241918,-0.901886,0.358115,-0.241571,0.000000,0.000000,0.000000,-1,0.442829,-0.270933,-0.029496,-0.232407,0.074716,0.055230
"2019-05-05 22:57:44.479 +0000",1557097064.478610,-1.319437,-0.356202,1.245942,-0.907776,0.348717,-0.233108,0.000000,0.000000,0.000000,-1,0.120186,-0.664642,-0.646409,-0.221741,0.038887,0.074661
"2019-05-05 22:57:44.501 +0000",1557097064.500920,-1.337310,-0.332209,1.239168,-0.919674,0.326132,-0.218720,0.000000,0.000000,0.000000,-1,0.012724,-0.801861,-1.445386,-0.173329,0.060068,-0.031616
"2019-05-05 22:57:44.523 +0000",1557097064.523227,-1.393968,-0.275236,1.226468,-0.947355,0.271775,-0.169287,0.000000,0.000000,0.000000,-1,-0.052076,-3.543848,-3.341431,-0.527377,-0.176117,-0.382654
"2019-05-05 22:57:44.546 +0000",1557097064.545522,-1.514065,-0.216224,1.199010,-0.975143,0.214543,-0.055381,0.000000,0.000000,0.000000,-1,-1.711827,-4.896100,-1.329147,0.806472,0.156657,0.017722
"2019-05-05 22:57:44.568 +0000",1557097064.567824,-1.612149,-0.223993,1.164467,-0.974185,0.222125,0.040308,0.000000,0.000000,0.000000,-1,-0.770761,-3.537305,0.979006,0.616580,0.095075,-0.037760
"2019-05-05 22:57:44.590 +0000",1557097064.590118,-1.652602,-0.253874,1.194722,-0.964710,0.251156,0.079095,0.000000,0.000000,0.000000,-1,1.984521,-0.313421,1.540826,0.559543,0.069782,0.000022
"2019-05-05 22:57:44.612 +0000",1557097064.612428,-1.626656,-0.278591,1.213698,-0.959944,0.275001,0.053678,0.000000,0.000000,0.000000,-1,0.283637,0.708819,0.448031,0.622038,0.518913,0.452975
"2019-05-05 22:57:44.635 +0000",1557097064.634736,-1.625061,-0.271428,1.212972,-0.961971,0.268108,0.052252,0.000000,0.000000,0.000000,-1,-0.174558,-0.270157,-0.398208,0.097850,0.668843,0.399332
"2019-05-05 22:57:44.657 +0000",1557097064.657032,-1.622106,-0.266144,1.211820,-0.963523,0.263013,0.049482,0.000000,0.000000,0.000000,-1,0.060013,0.203033,-0.209136,0.181632,0.161822,-0.044736
"2019-05-05 22:57:44.679 +0000",1557097064.679321,-1.626304,-0.263009,1.216520,-0.964125,0.259987,0.053572,0.000000,0.000000,0.000000,-1,0.276920,-0.380911,-0.134389,0.166609,0.192527,-0.004133
"2019-05-05 22:57:44.702 +0000",1557097064.701629,-1.634058,-0.264867,1.223903,-0.963197,0.261781,0.061015,0.000000,0.000000,0.000000,-1,0.317701,-0.497115,0.350470,0.254396,0.103225,0.041173
"2019-05-05 22:57:44.724 +0000",1557097064.723936,-1.640839,-0.286645,1.231033,-0.956846,0.282736,0.067130,0.000000,0.000000,0.000000,-1,0.459712,-0.212943,1.292060,0.364591,-0.012106,0.030679
"2019-05-05 22:57:44.746 +0000",1557097064.746245,-1.622450,-0.332820,1.244904,-0.943864,0.326710,0.048798,0.000000,0.000000,0.000000,-1,0.882183,1.194411,2.533936,0.336152,-0.129352,0.051987
"2019-05-05 22:57:44.769 +0000",1557097064.768535,-1.580480,-0.410062,1.266045,-0.917053,0.398667,0.008881,0.000000,0.000000,0.000000,-1,1.024954,1.505079,3.965304,0.217132,-0.018448,-0.057038
"2019-05-05 22:57:44.791 +0000",1557097064.790829,-1.545199,-0.515691,1.297910,-0.869667,0.493136,-0.022266,0.000000,0.000000,0.000000,-1,1.416723,0.466704,5.164368,0.227837,0.011197,-0.018261
"2019-05-05 22:57:44.813 +0000",1557097064.813138,-1.521771,-0.644607,1.349846,-0.798376,0.600884,-0.039172,0.000000,0.000000,0.000000,-1,1.952334,-0.553556,6.260368,0.157537,-0.004281,-0.023282
"2019-05-05 22:57:44.835 +0000",1557097064.835444,-1.510932,-0.771228,1.421722,-0.715771,0.697016,-0.042901,0.000000,0.000000,0.000000,-1,1.928409,-2.355725,5.309974,0.167156,0.042409,-0.082054
"2019-05-05 22:57:44.858 +0000",1557097064.857749,-1.522851,-0.898909,1.481722,-0.621749,0.782648,-0.029833,0.000000,0.000000,0.000000,-1,1.334466,-2.423131,6.395791,0.123672,0.280691,0.094240
"2019-05-05 22:57:44.880 +0000",1557097064.880031,-1.507668,-1.063647,1.544393,-0.484720,0.874133,-0.030640,0.000000,0.000000,0.000000,-1,1.117778,-0.963928,8.073602,-0.035056,-0.191409,0.390397
"2019-05-05 22:57:44.902 +0000",1557097064.902338,-1.396152,-1.257327,1.647129,-0.303670,0.951269,-0.053580,0.000000,0.000000,0.000000,-1,0.594544,1.733920,9.116296,0.088674,-0.307028,0.389396
"2019-05-05 22:57:44.925 +0000",1557097064.924647,-0.999791,-1.442427,2.017099,-0.107708,0.991772,-0.069190,0.000000,0.000000,0.000000,-1,0.328884,0.743277,8.731723,0.085781,-0.628399,0.111259
"2019-05-05 22:57:44.947 +0000",1557097064.946955,0.877546,-1.466900,-2.384907,0.079771,0.994608,-0.066275,0.000000,0.000000,0.000000,-1,-0.728861,0.843365,8.325966,-0.125883,-0.725702,0.081168
"2019-05-05 22:57:44.969 +0000",1557097064.969263,1.441198,-1.307874,-1.858431,0.257724,0.965634,-0.033589,0.000000,0.000000,0.000000,-1,-1.229906,1.912205,7.700955,-0.029194,-0.490583,-0.015834
"2019-05-05 22:57:44.992 +0000",1557097064.991546,1.552444,-1.156977,-1.776644,0.402041,0.915592,-0.007379,0.000000,0.000000,0.000000,-1,-0.462698,1.639392,6.097205,-0.198443,-0.025531,-0.463171
"2019-05-05 22:57:45.014 +0000",1557097065.013848,1.599287,-1.077838,-1.768359,0.473042,0.880937,0.013481,0.000000,0.000000,0.000000,-1,0.181188,1.502984,1.604212,-0.312626,-0.065110,-0.421577
"2019-05-05 22:57:45.036 +0000",1557097065.036157,1.514444,-1.065343,-1.798136,0.483435,0.874955,-0.027272,0.000000,0.000000,0.000000,-1,0.513688,-6.360647,0.489441,0.840051,1.288985,-0.419979
"2019-05-05 22:57:45.058 +0000",1557097065.058465,1.382314,-1.037039,-1.791989,0.499761,0.860902,-0.095327,0.000000,0.000000,0.000000,-1,-0.372079,-4.606062,2.914871,1.683192,2.079696,0.011282
"2019-05-05 22:57:45.081 +0000",1557097065.080763,1.289777,-1.033898,-1.762252,0.491410,0.859299,-0.141849,0.000000,0.000000,0.000000,-1,-0.953365,-4.970193,-0.844706,0.189056,0.072357,1.195240
"2019-05-05 22:57:45.103 +0000",1557097065.103050,1.277796,-1.080315,-1.754507,0.450975,0.882106,-0.136051,0.000000,0.000000,0.000000,-1,-0.419415,2.140253,-2.139451,0.642577,0.211934,0.931217
"2019-05-05 22:57:45.125 +0000",1557097065.125357,1.333498,-1.097119,-1.797622,0.443378,0.889897,-0.107233,0.000000,0.000000,0.000000,-1,1.133370,4.966821,-0.484184,0.574093,-0.080693,0.240335
"2019-05-05 22:57:45.148 +0000",1557097065.147666,1.410407,-1.098480,-1.829020,0.449111,0.890517,-0.072657,0.000000,0.000000,0.000000,-1,-0.142849,3.921995,-0.135548,0.171861,-0.154463,0.150935
"2019-05-05 22:57:45.170 +0000",1557097065.169974,1.524165,-1.108601,-1.760761,0.445429,0.895076,-0.020786,0.000000,0.000000,0.000000,-1,-1.747175,1.969165,-0.426555,0.084219,-0.160533,-0.109738
"2019-05-05 22:57:45.192 +0000",1557097065.192281,1.610491,-1.114717,-1.703912,0.440085,0.897786,0.017478,0.000000,0.000000,0.000000,-1,-0.572342,0.916827,-0.061916,0.187295,-0.143468,-0.447669
"2019-05-05 22:57:45.215 +0000",1557097065.214579,1.603118,-1.110552,-1.706923,0.443935,0.895944,0.014354,0.000000,0.000000,0.000000,-1,0.215521,-0.655061,0.235218,0.056705,-0.017617,-0.041987
"2019-05-05 22:57:45.237 +0000",1557097065.236866,1.573502,-1.109428,-1.713182,0.445172,0.895444,0.001204,0.000000,0.000000,0.000000,-1,0.034491,-1.292285,-0.064376,0.121951,0.018679,0.060228
"2019-05-05 22:57:45.259 +0000",1557097065.259175,1.544060,-1.113400,-1.713724,0.441456,0.897205,-0.011806,0.000000,0.000000,0.000000,-1,-0.004840,-1.153807,-0.197119,0.099774,-0.090061,0.073848
"2019-05-05 22:57:45.281 +0000",1557097065.281486,1.539056,-1.111607,-1.702484,0.442999,0.896412,-0.014066,0.000000,0.000000,0.000000,-1,-0.369845,-0.500018,0.310505,0.179331,-0.232563,0.098538
"2019-05-05 22:57:45.304 +0000",1557097065.303836,1.549075,-1.103396,-1.683586,0.450461,0.892743,-0.009786,0.000000,0.000000,0.000000,-1,-0.305767,-0.148293,0.277637,-0.013312,0.050922,0.021169
"2019-05-05 22:57:45.326 +0000",1557097065.326068,1.557802,-1.102983,-1.676120,0.450898,0.892556,-0.005860,0.000000,0.000000,0.000000,-1,-0.042326,0.188730,-0.080036,-0.036866,0.084571,0.007294
"2019-05-05 22:57:45.348 +0000",1557097065.348376,1.562516,-1.105210,-1.678648,0.448932,0.893558,-0.003717,0.000000,0.000000,0.000000,-1,0.085759,0.406514,-0.081915,0.002698,-0.007496,0.035776
"2019-05-05 22:57:45.371 +0000",1557097065.370683,1.567932,-1.105420,-1.684836,0.448758,0.893653,-0.001285,0.000000,0.000000,0.000000,-1,0.147763,0.500485,0.035129,0.129138,-0.080329,-0.002377
"2019-05-05 22:57:45.393 +0000",1557097065.392992,1.573829,-1.108251,-1.695967,0.446225,0.894920,0.001353,0.000000,0.000000,0.000000,-1,0.282129,1.058854,-0.329527,0.164599,-0.106590,-0.044200
"2019-05-05 22:57:45.415 +0000",1557097065.415300,1.576212,-1.122638,-1.721853,0.433300,0.901247,0.002347,0.000000,0.000000,0.000000,-1,0.734234,0.908430,-0.786998,-0.074627,-0.017229,-0.142514
"2019-05-05 22:57:45.438 +0000",1557097065.437595,1.538962,-1.144773,-1.769154,0.413044,0.910616,-0.013153,0.000000,0.000000,0.000000,-1,0.848590,-0.170615,-1.169381,0.115704,0.064878,-0.027343
"2019-05-05 22:57:45.460 +0000",1557097065.459884,1.491116,-1.176624,-1.800434,0.382825,0.923315,-0.030568,0.000000,0.000000,0.000000,-1,0.232765,-1.293140,-1.581465,0.257922,0.068842,-0.025202
"2019-05-05 22:57:45.482 +0000",1557097065.482193,1.421215,-1.213793,-1.821582,0.345566,0.936948,-0.052079,0.000000,0.000000,0.000000,-1,0.267417,-2.763839,-1.756957,0.365707,0.015383,-0.061340
"2019-05-05 22:57:45.504 +0000",1557097065.504497,1.306131,-1.249227,-1.872004,0.305051,0.948741,-0.082676,0.000000,0.000000,0.000000,-1,0.381753,-2.977519,-1.674376,0.362689,-0.038355,0.316883
"2019-05-05 22:57:45.527 +0000",1557097065.526809,1.227873,-1.282471,-1.903679,0.267791,0.958721,-0.095609,0.000000,0.000000,0.000000,-1,-0.406607,-1.585670,-1.447645,0.369218,-0.049999,0.399107
"2019-05-05 22:57:45.549 +0000",1557097065.549087,1.250917,-1.307479,-1.863620,0.247081,0.965532,-0.081847,0.000000,0.000000,0.000000,-1,-0.865369,-0.237115,-0.363174,0.212727,-0.160509,0.325499
"2019-05-05 22:57:45.571 +0000",1557097065.571394,1.316556,-1.310828,-1.813247,0.248787,0.966398,-0.064651,0.000000,0.000000,0.000000,-1,-0.419045,1.358486,-0.070733,0.148583,-0.287931,0.161010
"2019-05-05 22:57:45.594 +0000",1557097065.593703,1.355039,-1.316983,-1.808694,0.245275,0.967962,-0.053757,0.000000,0.000000,0.000000,-1,0.122975,1.381020,-0.347341,0.078409,0.035883,-0.180252
"2019-05-05 22:57:45.616 +0000",1557097065.616011,1.309193,-1.323742,-1.874179,0.236228,0.969637,-0.063248,0.000000,0.000000,0.000000,-1,0.915457,0.386596,-0.552788,0.077965,-0.027300,-0.296433
"2019-05-05 22:57:45.638 +0000",1557097065.638318,1.182868,-1.334457,-1.995106,0.216748,0.972202,-0.088571,0.000000,0.000000,0.000000,-1,1.103215,-0.734788,-1.076186,0.040012,-0.027331,-0.123893
"2019-05-05 22:57:45.661 +0000",1557097065.660593,1.027674,-1.352898,-2.139770,0.185070,0.976354,-0.111723,0.000000,0.000000,0.000000,-1,0.787746,-0.426976,-1.605180,0.036854,0.166514,0.295729
"2019-05-05 22:57:45.683 +0000",1557097065.682923,0.869075,-1.379949,-2.303563,0.144873,0.981844,-0.122452,0.000000,0.000000,0.000000,-1,0.464255,0.342629,-2.010364,0.171167,0.212935,0.264481
"2019-05-05 22:57:45.705 +0000",1557097065.705211,0.627980,-1.405891,-2.563343,0.096445,0.986434,-0.132840,0.000000,0.000000,0.000000,-1,0.500486,0.765448,-2.424720,0.148474,0.082749,0.183026
"2019-05-05 22:57:45.728 +0000",1557097065.727505,0.291354,-1.429718,-2.917154,0.040390,0.990065,-0.134685,0.000000,0.000000,0.000000,-1,-0.088301,0.450053,-2.801778,0.146392,-0.073622,0.018993
"2019-05-05 22:57:45.750 +0000",1557097065.749827,-0.187450,-1.437618,2.862096,-0.024745,0.991145,-0.130459,0.000000,0.000000,0.000000,-1,-0.181837,1.407007,-3.137816,0.229747,-0.079966,-0.023167
"2019-05-05 22:57:45.772 +0000",1557097065.772105,-0.529661,-1.416581,2.484533,-0.077607,0.988132,-0.132557,0.000000,0.000000,0.000000,-1,-0.058390,0.916914,-2.004520,0.339311,-0.155582,-0.162044
"2019-05-05 22:57:45.794 +0000",1557097065.794414,-0.785268,-1.400972,2.270392,-0.119492,0.985614,-0.119523,0.000000,0.000000,0.000000,-1,-0.278220,-3.490643,-1.956806,0.356400,0.049633,-0.659728
"2019-05-05 22:57:45.817 +0000",1557097065.816721,-1.050005,-1.356161,2.125641,-0.184754,0.977054,-0.105977,0.000000,0.000000,0.000000,-1,0.401576,-6.401402,-2.405805,-0.014724,-0.044117,-0.281443
"2019-05-05 22:57:45.839 +0000",1557097065.839029,-1.250478,-1.303210,2.067792,-0.250955,0.964412,-0.083253,0.000000,0.000000,0.000000,-1,0.352872,-6.077898,-2.407456,0.212931,-0.062770,0.099381
"2019-05-05 22:57:45.861 +0000",1557097065.861337,-1.388159,-1.255659,2.041843,-0.304792,0.950754,-0.056294,0.000000,0.000000,0.000000,-1,0.101212,-4.553245,-1.934806,0.342252,-0.173929,0.194874
"2019-05-05 22:57:45.884 +0000",1557097065.883613,-1.496798,-1.221399,2.020230,-0.341395,0.939579,-0.025309,0.000000,0.000000,0.000000,-1,-0.275686,-3.597652,-1.318217,0.358256,-0.167973,0.080912
"2019-05-05 22:57:45.906 +0000",1557097065.905921,-1.587444,-1.203685,1.992420,-0.358871,0.933368,0.005975,0.000000,0.000000,0.000000,-1,-0.425880,-2.537823,-0.492805,0.232848,-0.150836,0.038642
"2019-05-05 22:57:45.928 +0000",1557097065.928230,-1.659524,-1.196146,1.967844,-0.364508,0.930636,0.032427,0.000000,0.000000,0.000000,-1,-0.393524,-1.882847,-0.358424,0.133062,-0.076174,0.049223
"2019-05-05 22:57:45.951 +0000",1557097065.950537,-1.675084,-1.180516,1.956943,-0.378381,0.924802,0.039604,0.000000,0.000000,0.000000,-1,-0.141434,0.883281,-0.831946,0.395608,-0.095029,0.033226
"2019-05-05 22:57:45.973 +0000",1557097065.972846,-1.617507,-1.166176,1.973681,-0.393240,0.919252,0.018382,0.000000,0.000000,0.000000,-1,0.451910,2.202586,-0.429062,0.485403,-0.132204,-0.156138
"2019-05-05 22:57:45.995 +0000",1557097065.995124,-1.537993,-1.171286,2.003922,-0.388758,0.921252,-0.012757,0.000000,0.000000,0.000000,-1,0.410401,2.189999,0.775597,0.559458,-0.167925,-0.359054
"2019-05-05 22:57:46.017 +0000",1557097066.017432,-1.540557,-1.207307,1.992659,-0.355375,0.934662,-0.010749,0.000000,0.000000,0.000000,-1,-0.761845,-0.973178,2.062322,0.502317,-0.060471,-0.394112
"2019-05-05 22:57:46.040 +0000",1557097066.039739,-1.690886,-1.260780,1.894449,-0.302877,0.952328,0.036548,0.000000,0.000000,0.000000,-1,-1.517695,-3.236250,2.570860,0.429205,0.267368,-0.085605
"2019-05-05 22:57:46.062 +0000",1557097066.062048,-1.813602,-1.313839,1.823721,-0.246685,0.967168,0.061102,0.000000,0.000000,0.000000,-1,0.425195,-1.063284,2.490376,0.275448,0.364513,-0.097631
"2019-05-05 22:57:46.084 +0000",1557097066.084355,-1.786992,-1.373648,1.833440,-0.191314,0.980629,0.042018,0.000000,0.000000,0.000000,-1,0.743678,1.451918,2.653027,0.060775,0.270393,0.045888
"2019-05-05 22:57:46.107 +0000",1557097066.106634,-1.722739,-1.441876,1.865530,-0.127083,0.991701,0.019459,0.000000,0.000000,0.000000,-1,0.836752,1.280045,3.051565,0.011955,0.117094,-0.010762
"2019-05-05 22:57:46.129 +0000",1557097066.128940,-1.544588,-1.496366,2.029787,-0.074336,0.997231,-0.001949,0.000000,0.000000,0.000000,-1,0.948734,0.118884,1.792847,-0.165501,0.046271,-0.060841
"2019-05-05 22:57:46.151 +0000",1557097066.151250,-1.190001,-1.513274,2.400103,-0.053373,0.998346,-0.021367,0.000000,0.000000,0.000000,-1,0.666275,-0.672994,0.638609,-0.470477,0.324347,-0.100139
"2019-05-05 22:57:46.174 +0000",1557097066.173550,-1.081108,-1.521687,2.495079,-0.043321,0.998794,-0.023089,0.000000,0.000000,0.000000,-1,-0.180805,1.094089,0.244196,-0.288878,-0.163406,-0.058438
"2019-05-05 22:57:46.196 +0000",1557097066.195864,-1.076969,-1.528052,2.481127,-0.037625,0.999087,-0.020254,0.000000,0.000000,0.000000,-1,-0.122884,0.718139,0.361687,-0.071811,-0.199053,-0.055902
"2019-05-05 22:57:46.218 +0000",1557097066.218142,-0.951135,-1.532116,2.587495,-0.031480,0.999252,-0.022458,0.000000,0.000000,0.000000,-1,0.153226,0.915141,0.058606,0.118028,-0.041046,-0.070636
"2019-05-05 22:57:46.240 +0000",1557097066.240450,-0.904125,-1.528462,2.624187,-0.033260,0.999104,-0.026171,0.000000,0.000000,0.000000,-1,0.161127,0.058678,-0.013183,0.309948,0.035121,-0.066740
"2019-05-05 22:57:46.263 +0000",1557097066.262759,-0.698906,-1.525276,2.847091,-0.029277,0.998964,-0.034836,0.000000,0.000000,0.000000,-1,0.621760,-1.212009,0.271213,0.230266,-0.134020,-0.112732
"2019-05-05 22:57:46.285 +0000",1557097066.285065,-0.457260,-1.512952,3.115499,-0.025524,0.998327,-0.051873,0.000000,0.000000,0.000000,-1,0.832170,-0.966352,0.151271,0.033718,-0.047079,0.074380
"2019-05-05 22:57:46.307 +0000",1557097066.307344,-0.343160,-1.497124,-3.045632,-0.024766,0.997287,-0.069314,0.000000,0.000000,0.000000,-1,0.765807,0.040575,0.010807,-0.044387,-0.017215,0.116174
"2019-05-05 22:57:46.330 +0000",1557097066.329648,-0.277411,-1.484921,-2.990057,-0.023490,0.996315,-0.082491,0.000000,0.000000,0.000000,-1,0.420018,0.627221,0.012895,0.081153,0.014549,-0.101713
"2019-05-05 22:57:46.352 +0000",1557097066.351959,-0.265698,-1.482773,-2.993354,-0.023083,0.996128,-0.084824,0.000000,0.000000,0.000000,-1,-0.111974,0.694470,-0.035071,0.099667,-0.034611,-0.129821
"2019-05-05 22:57:46.374 +0000",1557097066.374267,-0.270746,-1.489780,-3.015330,-0.021644,0.996720,-0.077978,0.000000,0.000000,0.000000,-1,-0.414012,0.774495,0.014952,0.116981,-0.080582,-0.148935
"2019-05-05 22:57:46.397 +0000",1557097066.396554,-0.287862,-1.499661,-3.050388,-0.020178,0.997471,-0.068151,0.000000,0.000000,0.000000,-1,-0.464359,0.812421,-0.033788,0.187720,0.003399,-0.094874
"2019-05-05 22:57:46.419 +0000",1557097066.418874,-0.362453,-1.506993,3.138329,-0.022607,0.997965,-0.059618,0.000000,0.000000,0.000000,-1,-0.347101,0.970441,-0.219981,0.210611,0.033834,-0.045866
"2019-05-05 22:57:46.441 +0000",1557097066.441160,-0.443228,-1.508888,3.031834,-0.026533,0.998084,-0.055891,0.000000,0.000000,0.000000,-1,-0.092426,1.215232,-0.250577,0.221128,0.041207,0.011335
"2019-05-05 22:57:46.463 +0000",1557097066.463468,-0.486719,-1.506184,2.962304,-0.030200,0.997913,-0.057068,0.000000,0.000000,0.000000,-1,0.050625,1.081344,-0.214592,0.222750,0.040859,0.023041
"2019-05-05 22:57:46.486 +0000",1557097066.485776,-0.521508,-1.504090,2.908257,-0.033207,0.997776,-0.057796,0.000000,0.000000,0.000000,-1,-0.048498,0.710009,-0.159235,0.186085,0.027493,0.026851
"2019-05-05 22:57:46.508 +0000",1557097066.508084,-0.571828,-1.506000,2.846732,-0.035041,0.997901,-0.054450,0.000000,0.000000,0.000000,-1,-0.230324,0.396498,-0.093263,0.156501,0.042824,0.013007
"2019-05-05 22:57:46.530 +0000",1557097066.530361,-0.668310,-1.510799,2.741644,-0.037155,0.998201,-0.047062,0.000000,0.000000,0.000000,-1,-0.419878,0.402424,-0.130613,0.153412,0.058425,0.018222
"2019-05-05 22:57:46.553 +0000",1557097066.552670,-0.849905,-1.516944,2.547584,-0.040435,0.998550,-0.035528,0.000000,0.000000,0.000000,-1,-0.608149,0.624746,-0.197175,0.175628,0.048920,0.049215
"2019-05-05 22:57:46.575 +0000",1557097066.574978,-1.143302,-1.521531,2.238685,-0.044813,0.998787,-0.020417,0.000000,0.000000,0.000000,-1,-0.753708,0.672577,-0.218751,0.156111,0.042656,0.046585
"2019-05-05 22:57:46.597 +0000",1557097066.597286,-1.462485,-1.520724,1.909385,-0.049758,0.998747,-0.005411,0.000000,0.000000,0.000000,-1,-0.588482,0.199015,-0.224401,0.138549,0.051150,0.039392
"2019-05-05 22:57:46.620 +0000",1557097066.619578,-1.643090,-1.517128,1.735112,-0.053503,0.998560,0.003875,0.000000,0.000000,0.000000,-1,-0.351461,-0.516417,-0.116225,0.202658,-0.173182,-0.123732
"2019-05-05 22:57:46.642 +0000",1557097066.641872,-1.830817,-1.515866,1.565524,-0.053056,0.998492,0.014115,0.000000,0.000000,0.000000,-1,-0.452439,-1.027282,0.122729,0.148515,-0.209673,-0.171403
"2019-05-05 22:57:46.664 +0000",1557097066.664180,-2.042248,-1.514801,1.366123,-0.049861,0.998433,0.025419,0.000000,0.000000,0.000000,-1,-0.520015,-0.143024,0.069409,0.237041,-0.103764,-0.280042
"2019-05-05 22:57:46.686 +0000",1557097066.686486,-2.211347,-1.511658,1.196996,-0.047386,0.998252,0.035322,0.000000,0.000000,0.000000,-1,-0.322786,-0.029559,0.123070,0.129433,-0.134833,-0.256422
"2019-05-05 22:57:46.709 +0000",1557097066.708796,-2.247851,-1.512361,1.160103,-0.045521,0.998293,0.036590,0.000000,0.000000,0.000000,-1,0.086006,0.017210,0.084373,0.190021,-0.000261,-0.179763
"2019-05-05 22:57:46.731 +0000",1557097066.731098,-2.209925,-1.517427,1.200534,-0.042815,0.998576,0.031819,0.000000,0.000000,0.000000,-1,0.267929,-0.181828,0.128396,0.116515,-0.063548,-0.085027
"2019-05-05 22:57:46.753 +0000",1557097066.753404,-2.160227,-1.522938,1.255080,-0.039768,0.998855,0.026594,0.000000,0.000000,0.000000,-1,0.210273,-0.191645,0.140864,0.107929,-0.066177,-0.069578
"2019-05-05 22:57:46.776 +0000",1557097066.775692,-2.149003,-1.527287,1.269387,-0.036425,0.999054,0.023772,0.000000,0.000000,0.000000,-1,0.089893,-0.110523,0.136371,0.215609,0.011170,-0.037962
"2019-05-05 22:57:46.798 +0000",1557097066.797996,-2.156885,-1.528540,1.261639,-0.035194,0.999107,0.023366,0.000000,0.000000,0.000000,-1,-0.012118,0.055010,0.008323,0.234291,0.079353,-0.001561
"2019-05-05 22:57:46.820 +0000",1557097066.820287,-2.086861,-1.528594,1.327649,-0.036694,0.999110,0.020818,0.000000,0.000000,0.000000,-1,0.264750,0.234288,-0.106039,0.257595,0.182867,0.103541
"2019-05-05 22:57:46.843 +0000",1557097066.842602,-1.728650,-1.530299,1.681126,-0.039983,0.999180,0.006364,0.000000,0.000000,0.000000,-1,0.820177,0.208472,-0.162637,0.086552,-0.148564,-0.262788
"2019-05-05 22:57:46.865 +0000",1557097066.864889,-1.329112,-1.527302,2.075521,-0.042216,0.999054,-0.010406,0.000000,0.000000,0.000000,-1,0.586164,0.269132,-0.037981,0.112224,-0.103424,-0.247650
"2019-05-05 22:57:46.887 +0000",1557097066.887197,-1.249024,-1.527159,2.151338,-0.041385,0.999048,-0.013796,0.000000,0.000000,0.000000,-1,-0.121073,0.111679,0.041268,0.133182,0.019675,-0.175352
"2019-05-05 22:57:46.910 +0000",1557097066.909505,-1.323674,-1.529806,2.077802,-0.039733,0.999160,-0.010024,0.000000,0.000000,0.000000,-1,-0.005589,-0.125459,0.101728,0.113372,0.032975,-0.117738
"2019-05-05 22:57:46.932 +0000",1557097066.931790,-1.096307,-1.527376,2.310004,-0.038612,0.999057,-0.019832,0.000000,0.000000,0.000000,-1,0.590993,-0.262126,0.005194,0.155510,-0.000873,0.106090
"2019-05-05 22:57:46.954 +0000",1557097066.954122,-0.962911,-1.523171,2.448657,-0.039078,0.998866,-0.027190,0.000000,0.000000,0.000000,-1,0.115631,-0.160257,-0.003358,0.160126,-0.012523,0.118239
"2019-05-05 22:57:46.976 +0000",1557097066.976398,-1.014255,-1.525338,2.394979,-0.038584,0.998967,-0.024005,0.000000,0.000000,0.000000,-1,-0.202650,0.268960,0.003861,0.140635,-0.048680,0.096713
"2019-05-05 22:57:46.999 +0000",1557097066.998707,-1.023373,-1.525145,2.374662,-0.038966,0.998958,-0.023752,0.000000,0.000000,0.000000,-1,0.067076,0.604728,-0.042423,0.023722,0.004063,-0.037329
"2019-05-05 22:57:47.021 +0000",1557097067.021014,-0.995101,-1.522081,2.387191,-0.040848,0.998814,-0.026512,0.000000,0.000000,0.000000,-1,0.101843,0.735949,-0.151500,-0.037216,0.035458,-0.046380
"2019-05-05 22:57:47.043 +0000",1557097067.043322,-0.991150,-1.516286,2.378186,-0.045584,0.998515,-0.029842,0.000000,0.000000,0.000000,-1,0.150164,0.444044,-0.249372,-0.025522,0.010931,-0.057682
"2019-05-05 22:57:47.066 +0000",1557097067.065625,-0.976225,-1.509333,2.387968,-0.050883,0.998112,-0.034407,0.000000,0.000000,0.000000,-1,0.206446,0.129197,-0.236629,0.151713,-0.006672,-0.017198
"2019-05-05 22:57:47.088 +0000",1557097067.087908,-0.957432,-1.502694,2.405713,-0.055646,0.997682,-0.039171,0.000000,0.000000,0.000000,-1,0.216546,0.019851,-0.202159,0.183728,-0.007676,-0.006132
"2019-05-05 22:57:47.110 +0000",1557097067.110215,-0.926533,-1.496024,2.437786,-0.059728,0.997206,-0.044867,0.000000,0.000000,0.000000,-1,0.293101,-0.112849,-0.169935,0.233678,-0.001799,0.016150
"2019-05-05 22:57:47.133 +0000",1557097067.132523,-0.885467,-1.489583,2.483741,-0.062807,0.996704,-0.051346,0.000000,0.000000,0.000000,-1,0.287004,-0.265127,-0.101596,0.253771,0.012924,0.061172
"2019-05-05 22:57:47.155 +0000",1557097067.154835,-0.855508,-1.486204,2.519279,-0.063783,0.996424,-0.055413,0.000000,0.000000,0.000000,-1,0.140767,-0.186016,0.013009,0.123964,0.018560,0.133416
"2019-05-05 22:57:47.177 +0000",1557097067.177139,-0.842755,-1.486469,2.531284,-0.062874,0.996447,-0.056046,0.000000,0.000000,0.000000,-1,-0.033246,0.168289,0.037081,0.101799,0.012053,0.121628
"2019-05-05 22:57:47.199 +0000",1557097067.199417,-0.863163,-1.488294,2.504778,-0.062623,0.996599,-0.053569,0.000000,0.000000,0.000000,-1,-0.190216,0.318037,-0.031304,0.041016,-0.000444,0.019099
"2019-05-05 22:57:47.222 +0000",1557097067.221725,-0.908613,-1.489613,2.449992,-0.063955,0.996706,-0.049860,0.000000,0.000000,0.000000,-1,-0.141502,0.460468,-0.105740,0.029806,-0.023043,-0.108282
"2019-05-05 22:57:47.244 +0000",1557097067.244037,-0.908646,-1.486022,2.440489,-0.066779,0.996409,-0.052058,0.000000,0.000000,0.000000,-1,0.189311,0.349650,-0.169122,0.096153,0.004934,-0.142964
"2019-05-05 22:57:47.266 +0000",1557097067.266341,-0.877548,-1.479012,2.469451,-0.070499,0.995791,-0.058571,0.000000,0.000000,0.000000,-1,0.309474,-0.073439,-0.160353,0.166370,0.009123,-0.116508
"2019-05-05 22:57:47.289 +0000",1557097067.288620,-0.852964,-1.473849,2.501173,-0.072909,0.995304,-0.063667,0.000000,0.000000,0.000000,-1,0.211906,-0.426049,-0.034451,0.251925,-0.037846,-0.022454
"2019-05-05 22:57:47.311 +0000",1557097067.310927,-0.831928,-1.472293,2.532997,-0.072699,0.995152,-0.066230,0.000000,0.000000,0.000000,-1,0.094416,-0.460125,0.073728,0.232962,-0.034459,0.003684
"2019-05-05 22:57:47.333 +0000",1557097067.333234,-0.822023,-1.473906,2.548470,-0.070863,0.995310,-0.065853,0.000000,0.000000,0.000000,-1,-0.019354,-0.091010,0.103897,0.138917,-0.019266,0.016613
"2019-05-05 22:57:47.356 +0000",1557097067.355528,-0.802236,-1.474346,2.565774,-0.069232,0.995352,-0.066939,0.000000,0.000000,0.000000,-1,0.070872,0.188011,0.035710,0.049685,0.000238,-0.049669
"2019-05-05 22:57:47.378 +0000",1557097067.377850,-0.778511,-1.472875,2.585118,-0.068653,0.995210,-0.069605,0.000000,0.000000,0.000000,-1,0.125922,0.179294,0.002317,0.059833,-0.023240,-0.070440
"2019-05-05 22:57:47.400 +0000",1557097067.400158,-0.756279,-1.470369,2.605999,-0.068800,0.994961,-0.072928,0.000000,0.000000,0.000000,-1,0.144540,-0.013893,-0.013328,0.080442,-0.036496,-0.068796
"2019-05-05 22:57:47.422 +0000",1557097067.422436,-0.744162,-1.468600,2.621198,-0.069103,0.994783,-0.075050,0.000000,0.000000,0.000000,-1,0.088027,-0.188550,-0.000637,0.121730,-0.025529,-0.053795
"2019-05-05 22:57:47.445 +0000",1557097067.444742,-0.739053,-1.467065,2.632342,-0.069747,0.994625,-0.076531,0.000000,0.000000,0.000000,-1,0.082851,-0.293198,-0.022040,0.130889,0.031132,-0.047996
"2019-05-05 22:57:47.467 +0000",1557097067.467050,-0.743646,-1.465060,2.633179,-0.071448,0.994415,-0.077678,0.000000,0.000000,0.000000,-1,0.063876,-0.187632,-0.078810,0.129630,0.029465,-0.038273
"2019-05-05 22:57:47.489 +0000",1557097067.489359,-0.749505,-1.462487,2.628171,-0.073644,0.994140,-0.079130,0.000000,0.000000,0.000000,-1,0.062707,0.052173,-0.098306,0.155111,0.002686,-0.035433
"2019-05-05 22:57:47.512 +0000",1557097067.511641,-0.753198,-1.460547,2.620538,-0.075255,0.993929,-0.080265,0.000000,0.000000,0.000000,-1,0.024037,0.242911,-0.077686,0.211989,-0.006639,-0.045697
"2019-05-05 22:57:47.534 +0000",1557097067.533946,-0.755826,-1.459021,2.611111,-0.076507,0.993760,-0.081171,0.000000,0.000000,0.000000,-1,0.019076,0.321641,-0.077147,0.224959,0.000305,-0.052862
"2019-05-05 22:57:47.556 +0000",1557097067.556252,-0.755402,-1.458113,2.604626,-0.077090,0.993658,-0.081859,0.000000,0.000000,0.000000,-1,-0.008385,0.288565,-0.038408,0.241839,-0.003103,-0.060932
"2019-05-05 22:57:47.579 +0000",1557097067.578556,-0.752884,-1.458163,2.601523,-0.076850,0.993664,-0.082017,0.000000,0.000000,0.000000,-1,-0.012004,0.229690,0.006773,0.230872,-0.022716,-0.075149
"2019-05-05 22:57:47.601 +0000",1557097067.600869,-0.746088,-1.458639,2.603593,-0.075970,0.993717,-0.082191,0.000000,0.000000,0.000000,-1,0.001880,0.197814,0.033113,0.205319,-0.023136,-0.079827
"2019-05-05 22:57:47.623 +0000",1557097067.623146,-0.734135,-1.458777,2.612457,-0.074890,0.993732,-0.082991,0.000000,0.000000,0.000000,-1,0.038214,0.094524,0.040248,0.155456,-0.024677,-0.079836
"2019-05-05 22:57:47.645 +0000",1557097067.645468,-0.721462,-1.458720,2.625214,-0.073870,0.993726,-0.083976,0.000000,0.000000,0.000000,-1,0.050652,-0.060470,0.040389,0.122011,-0.017102,-0.059304
"2019-05-05 22:57:47.668 +0000",1557097067.667770,-0.713511,-1.458243,2.635657,-0.073510,0.993673,-0.084919,0.000000,0.000000,0.000000,-1,0.050570,-0.120863,0.013481,0.080636,0.016337,-0.018291
"2019-05-05 22:57:47.690 +0000",1557097067.690069,-0.708835,-1.456878,2.642403,-0.073995,0.993518,-0.086291,0.000000,0.000000,0.000000,-1,0.079315,-0.064400,-0.021743,0.086523,0.010998,-0.010465
"2019-05-05 22:57:47.712 +0000",1557097067.712378,-0.704863,-1.455158,2.647654,-0.074759,0.993321,-0.087886,0.000000,0.000000,0.000000,-1,0.070511,-0.069343,-0.026665,0.117209,0.000041,-0.002507
"2019-05-05 22:57:47.735 +0000",1557097067.734653,-0.704385,-1.454451,2.650831,-0.075171,0.993240,-0.088456,0.000000,0.000000,0.000000,-1,0.012879,-0.143064,0.002497,0.147879,0.003861,0.002809
"2019-05-05 22:57:47.757 +0000",1557097067.756980,-0.706311,-1.454661,2.651675,-0.075206,0.993264,-0.088153,0.000000,0.000000,0.000000,-1,-0.005890,-0.095083,0.005785,0.144298,-0.002419,-0.025007
"2019-05-05 22:57:47.779 +0000",1557097067.779271,-0.706274,-1.454535,2.652004,-0.075284,0.993249,-0.088251,0.000000,0.000000,0.000000,-1,0.011694,0.018047,-0.007617,0.140149,-0.006479,-0.039160
"2019-05-05 22:57:47.802 +0000",1557097067.801552,-0.706139,-1.454102,2.652474,-0.075551,0.993199,-0.088588,0.000000,0.000000,0.000000,-1,0.016640,-0.053321,-0.013184,0.150976,0.001613,-0.065007
"2019-05-05 22:57:47.824 +0000",1557097067.823887,-0.708687,-1.453628,2.651590,-0.076084,0.993144,-0.088753,0.000000,0.000000,0.000000,-1,0.014103,-0.058267,-0.019344,0.157062,-0.008860,-0.072868
"2019-05-05 22:57:47.846 +0000",1557097067.846164,-0.708554,-1.452910,2.651879,-0.076536,0.993059,-0.089305,0.000000,0.000000,0.000000,-1,0.035479,0.014324,-0.018739,0.173429,-0.025362,-0.080968
"2019-05-05 22:57:47.868 +0000",1557097067.868473,-0.705913,-1.452211,2.654375,-0.076749,0.992977,-0.090034,0.000000,0.000000,0.000000,-1,0.026772,-0.005280,0.002521,0.181470,-0.018337,-0.073388
"2019-05-05 22:57:47.891 +0000",1557097067.890780,-0.704095,-1.451802,2.657348,-0.076849,0.992929,-0.090484,0.000000,0.000000,0.000000,-1,0.022964,-0.074168,0.003131,0.163885,0.004554,-0.053849
"2019-05-05 22:57:47.913 +0000",1557097067.913088,-0.701553,-1.451235,2.661290,-0.076982,0.992861,-0.091109,0.000000,0.000000,0.000000,-1,0.035517,-0.036043,-0.000924,0.151781,0.008177,-0.041429
"2019-05-05 22:57:47.935 +0000",1557097067.935397,-0.699328,-1.450994,2.662931,-0.076933,0.992832,-0.091463,0.000000,0.000000,0.000000,-1,-0.004547,0.064819,0.000645,0.141157,0.000622,-0.029829
"2019-05-05 22:57:47.958 +0000",1557097067.957674,-0.347196,-1.461229,3.010522,-0.037207,0.994004,-0.102823,0.000000,0.000000,0.000000,-1,-0.022083,0.110272,-0.003256,0.100043,-0.014054,-0.028784
"2019-05-05 22:57:47.980 +0000",1557097067.979981,-0.347545,-1.461760,3.008235,-0.037063,0.994061,-0.102314,0.000000,0.000000,0.000000,-1,-0.029643,0.058604,-0.002800,0.100875,-0.016217,-0.032070
"2019-05-05 22:57:48.002 +0000",1557097068.002290,-0.129466,-1.460241,-3.058638,-0.014244,0.993895,-0.109406,0.000000,0.000000,0.000000,-1,-0.038449,0.003225,-0.002176,0.077019,-0.018294,-0.024718
"2019-05-05 22:57:48.025 +0000",1557097068.024597,-0.003131,-1.457353,-2.932974,-0.000354,0.993572,-0.113199,0.000000,0.000000,0.000000,-1,-0.033429,-0.002936,-0.002036,0.060978,-0.004757,-0.020147
"2019-05-05 22:57:48.047 +0000",1557097068.046905,0.086403,-1.453743,-2.844370,0.010078,0.993157,-0.116351,0.000000,0.000000,0.000000,-1,0.006735,0.029055,-0.002240,0.055779,-0.006615,-0.016447
"2019-05-05 22:57:48.069 +0000",1557097068.069179,0.203866,-1.447541,-2.728522,0.024891,0.992414,-0.120397,0.000000,0.000000,0.000000,-1,0.013060,0.036468,0.008949,0.046292,-0.003705,-0.010813
"2019-05-05 22:57:48.091 +0000",1557097068.091491,0.245603,-1.445432,-2.687583,0.030401,0.992152,-0.121283,0.000000,0.000000,0.000000,-1,0.005556,0.016811,0.017834,0.042322,-0.003703,-0.005685
"2019-05-05 22:57:48.114 +0000",1557097068.113799,0.299700,-1.442968,-2.634385,0.037636,0.991841,-0.121798,0.000000,0.000000,0.000000,-1,0.004278,0.031536,0.010298,0.029228,-0.000844,-0.003950
"2019-05-05 22:57:48.136 +0000",1557097068.136107,0.328270,-1.439996,-2.607112,0.042051,0.991458,-0.123463,0.000000,0.000000,0.000000,-1,0.015576,0.056131,0.007629,0.020846,0.002195,-0.011226
"2019-05-05 22:57:48.158 +0000",1557097068.158415,0.336926,-1.438231,-2.599596,0.043696,0.991226,-0.124746,0.000000,0.000000,0.000000,-1,0.009292,0.040131,0.006538,0.019521,-0.006332,-0.015040
"2019-05-05 22:57:48.181 +0000",1557097068.180693,0.354238,-1.436770,-2.582837,0.046351,0.991032,-0.125329,0.000000,0.000000,0.000000,-1,0.009286,0.006930,0.010569,0.013295,-0.004261,-0.000648
"2019-05-05 22:57:48.203 +0000",1557097068.202999,0.358229,-1.436289,-2.578166,0.047018,0.990968,-0.125589,0.000000,0.000000,0.000000,-1,0.002899,-0.044815,-0.008819,0.013513,0.006194,0.002085
"2019-05-05 22:57:48.225 +0000",1557097068.225307,0.368016,-1.436976,-2.568578,0.048000,0.991059,-0.124488,0.000000,0.000000,0.000000,-1,-0.053479,0.022841,-0.003235,0.014805,0.023604,-0.009499
"2019-05-05 22:57:48.248 +0000",1557097068.247612,0.361298,-1.436164,-2.575415,0.047447,0.990951,-0.125560,0.000000,0.000000,0.000000,-1,-0.031027,0.000594,-0.032798,-0.001839,-0.008895,-0.012273
"2019-05-05 22:57:48.270 +0000",1557097068.269923,0.354560,-1.436545,-2.582191,0.046469,0.991002,-0.125523,0.000000,0.000000,0.000000,-1,-0.033621,-0.009325,-0.052559,0.000574,-0.014958,-0.008327
"2019-05-05 22:57:48.292 +0000",1557097068.292201,0.352689,-1.436840,-2.582546,0.046133,0.991041,-0.125335,0.000000,0.000000,0.000000,-1,-0.054934,-0.106446,-0.034332,0.013010,-0.012434,-0.006211
"2019-05-05 22:57:48.315 +0000",1557097068.314510,0.351176,-1.437980,-2.581175,0.045555,0.991193,-0.124344,0.000000,0.000000,0.000000,-1,-0.046017,-0.137046,0.004400,0.025307,0.003863,-0.007355
"2019-05-05 22:57:48.337 +0000",1557097068.336817,0.367433,-1.437566,-2.562700,0.047718,0.991138,-0.123971,0.000000,0.000000,0.000000,-1,-0.037133,-0.071790,0.018725,0.021008,-0.002246,-0.003868
"2019-05-05 22:57:48.359 +0000",1557097068.359125,0.382471,-1.436748,-2.547362,0.049879,0.991029,-0.123990,0.000000,0.000000,0.000000,-1,-0.024488,0.003300,0.030481,0.016115,-0.015214,-0.005847
"2019-05-05 22:57:48.381 +0000",1557097068.381404,0.392924,-1.436361,-2.536139,0.051319,0.990977,-0.123817,0.000000,0.000000,0.000000,-1,-0.020731,-0.077843,0.042373,0.010616,-0.023417,-0.005852
"2019-05-05 22:57:48.404 +0000",1557097068.403729,0.398523,-1.436064,-2.527391,0.052126,0.990937,-0.123798,0.000000,0.000000,0.000000,-1,-0.017055,-0.167669,0.035731,-0.000963,-0.005098,0.000431
"2019-05-05 22:57:48.426 +0000",1557097068.426017,0.397116,-1.436137,-2.524466,0.051923,0.990947,-0.123805,0.000000,0.000000,0.000000,-1,0.007888,-0.200986,0.006264,-0.001463,-0.001216,0.003504
"2019-05-05 22:57:48.448 +0000",1557097068.448327,0.389884,-1.436048,-2.527368,0.051060,0.990935,-0.124259,0.000000,0.000000,0.000000,-1,0.015334,-0.182617,-0.016227,-0.001164,0.007234,0.010734
"2019-05-05 22:57:48.471 +0000",1557097068.470620,0.393317,-1.437275,-2.521106,0.051020,0.991099,-0.122959,0.000000,0.000000,0.000000,-1,-0.016022,-0.102711,-0.026870,0.015020,0.023458,0.013661
"2019-05-05 22:57:48.493 +0000",1557097068.492920,0.394458,-1.438171,-2.518824,0.050820,0.991218,-0.122081,0.000000,0.000000,0.000000,-1,-0.026039,-0.016641,-0.036318,0.021553,0.020485,0.010677
"2019-05-05 22:57:48.515 +0000",1557097068.515219,0.405793,-1.439550,-2.507949,0.051660,0.991400,-0.120242,0.000000,0.000000,0.000000,-1,-0.057393,0.023925,-0.040402,0.027502,0.006373,0.010134
"2019-05-05 22:57:48.538 +0000",1557097068.537527,0.407213,-1.441252,-2.507083,0.051163,0.991621,-0.118619,0.000000,0.000000,0.000000,-1,-0.081157,0.020292,-0.023012,0.033478,-0.008680,0.008451
"2019-05-05 22:57:48.560 +0000",1557097068.559836,0.427117,-1.441587,-2.487561,0.053376,0.991664,-0.117275,0.000000,0.000000,0.000000,-1,-0.056041,0.003119,-0.012907,0.034331,-0.005839,-0.004460
"2019-05-05 22:57:48.582 +0000",1557097068.582122,0.446060,-1.440685,-2.468933,0.055974,0.991547,-0.117049,0.000000,0.000000,0.000000,-1,-0.044733,0.017889,-0.011770,0.025600,-0.010499,-0.010773
"2019-05-05 22:57:48.604 +0000",1557097068.604422,0.445983,-1.441316,-2.469255,0.055695,0.991629,-0.116490,0.000000,0.000000,0.000000,-1,-0.015894,-0.006696,-0.010299,0.020522,-0.010321,-0.014415
"2019-05-05 22:57:48.627 +0000",1557097068.626729,0.451379,-1.440406,-2.462064,0.056716,0.991511,-0.116999,0.000000,0.000000,0.000000,-1,0.002922,-0.117331,0.008068,0.017152,-0.002833,-0.001867
"2019-05-05 22:57:48.649 +0000",1557097068.649038,0.457439,-1.440467,-2.454184,0.057397,0.991519,-0.116599,0.000000,0.000000,0.000000,-1,0.007953,-0.036174,-0.001329,0.010245,-0.007449,0.010825
"2019-05-05 22:57:48.671 +0000",1557097068.671345,0.457140,-1.440310,-2.454130,0.057431,0.991499,-0.116755,0.000000,0.000000,0.000000,-1,0.020337,-0.052139,-0.002297,0.003711,-0.013761,0.010508
"2019-05-05 22:57:48.694 +0000",1557097068.693629,0.461840,-1.441213,-2.447647,0.057581,0.991616,-0.115683,0.000000,0.000000,0.000000,-1,-0.077434,-0.053344,0.015040,0.001898,-0.001717,0.000312
"2019-05-05 22:57:48.716 +0000",1557097068.715930,0.467815,-1.441942,-2.441962,0.057944,0.991710,-0.114691,0.000000,0.000000,0.000000,-1,-0.036027,0.025363,0.004435,0.002313,-0.005168,-0.014642
"2019-05-05 22:57:48.738 +0000",1557097068.738238,0.463885,-1.440855,-2.444746,0.057976,0.991570,-0.115883,0.000000,0.000000,0.000000,-1,-0.012256,-0.097630,0.008020,0.002495,-0.009590,-0.017693
"2019-05-05 22:57:48.761 +0000",1557097068.760547,0.467016,-1.441505,-2.438965,0.058048,0.991654,-0.115125,0.000000,0.000000,0.000000,-1,-0.046099,-0.122208,0.018148,-0.002262,-0.004547,-0.007205
"2019-05-05 22:57:48.783 +0000",1557097068.782854,0.466745,-1.441824,-2.437067,0.057874,0.991695,-0.114858,0.000000,0.000000,0.000000,-1,-0.032323,-0.066905,0.002777,-0.001325,0.007069,-0.008082
"2019-05-05 22:57:48.805 +0000",1557097068.805163,0.463549,-1.442299,-2.440143,0.057296,0.991756,-0.114621,0.000000,0.000000,0.000000,-1,-0.014718,0.014280,-0.000421,-0.005920,-0.002620,-0.001773
"2019-05-05 22:57:48.827 +0000",1557097068.827439,0.462440,-1.442365,-2.441396,0.057140,0.991764,-0.114626,0.000000,0.000000,0.000000,-1,0.006482,-0.007878,-0.007600,-0.001506,-0.002384,-0.001341
"2019-05-05 22:57:48.850 +0000",1557097068.849748,0.471305,-1.442848,-2.432483,0.057936,0.991826,-0.113688,0.000000,0.000000,0.000000,-1,-0.047425,0.011801,-0.002830,0.018815,-0.006001,0.008753
"2019-05-05 22:57:48.872 +0000",1557097068.872056,0.483853,-1.443417,-2.420392,0.059096,0.991898,-0.112453,0.000000,0.000000,0.000000,-1,-0.039886,0.010589,0.000913,0.015672,-0.005219,0.001231
"2019-05-05 22:57:48.894 +0000",1557097068.894359,0.487790,-1.444058,-2.416018,0.059240,0.991979,-0.111658,0.000000,0.000000,0.000000,-1,-0.047446,-0.026327,-0.001242,0.000895,-0.010549,0.002176
"2019-05-05 22:57:48.917 +0000",1557097068.916648,0.491646,-1.444633,-2.412010,0.059401,0.992052,-0.110925,0.000000,0.000000,0.000000,-1,-0.042371,-0.002915,0.008477,-0.003966,0.000471,-0.015341
"2019-05-05 22:57:48.939 +0000",1557097068.938949,0.488010,-1.444160,-2.414962,0.059217,0.991992,-0.111555,0.000000,0.000000,0.000000,-1,0.021535,-0.055817,0.000289,-0.008390,-0.000140,-0.018938
"2019-05-05 22:57:48.961 +0000",1557097068.961256,0.478755,-1.443198,-2.422072,0.058622,0.991870,-0.112945,0.000000,0.000000,0.000000,-1,0.027780,-0.111165,0.002022,-0.003171,-0.006687,-0.004823
"2019-05-05 22:57:48.984 +0000",1557097068.983566,0.477226,-1.442955,-2.421336,0.058559,0.991839,-0.113248,0.000000,0.000000,0.000000,-1,-0.006025,-0.084073,0.012931,0.011494,-0.005191,0.006421
"2019-05-05 22:57:49.006 +0000",1557097069.005859,0.484629,-1.442610,-2.413386,0.059556,0.991795,-0.113115,0.000000,0.000000,0.000000,-1,-0.016154,-0.002936,0.009797,0.005324,0.005336,-0.006575
"2019-05-05 22:57:49.028 +0000",1557097069.028181,0.484427,-1.442307,-2.413344,0.059673,0.991757,-0.113393,0.000000,0.000000,0.000000,-1,0.005118,-0.031253,0.001375,0.005131,0.006992,-0.009471
"2019-05-05 22:57:49.050 +0000",1557097069.050457,0.482996,-1.442234,-2.413578,0.059544,0.991747,-0.113542,0.000000,0.000000,0.000000,-1,-0.004923,-0.048474,0.002764,0.005763,-0.000262,-0.008208
"2019-05-05 22:57:49.073 +0000",1557097069.072764,0.486585,-1.441701,-2.409406,0.060199,0.991679,-0.113795,0.000000,0.000000,0.000000,-1,0.008888,-0.036162,0.003905,0.007962,-0.002619,-0.002782
"2019-05-05 22:57:49.095 +0000",1557097069.095074,0.488058,-1.441653,-2.407543,0.060388,0.991673,-0.113748,0.000000,0.000000,0.000000,-1,-0.022437,0.006884,0.004751,0.002417,-0.008274,-0.000403
"2019-05-05 22:57:49.117 +0000",1557097069.117382,0.489692,-1.441598,-2.406065,0.060600,0.991666,-0.113697,0.000000,0.000000,0.000000,-1,0.008889,-0.014034,-0.000011,0.003975,-0.006528,-0.016353
"2019-05-05 22:57:49.140 +0000",1557097069.139660,0.483487,-1.441198,-2.410482,0.060078,0.991614,-0.114423,0.000000,0.000000,0.000000,-1,0.020137,-0.103813,0.004510,-0.006703,-0.001181,-0.002078
"2019-05-05 22:57:49.162 +0000",1557097069.161967,0.479496,-1.441061,-2.411969,0.059683,0.991596,-0.114782,0.000000,0.000000,0.000000,-1,0.015091,-0.107529,-0.001663,-0.004324,0.000835,0.008001
"2019-05-05 22:57:49.184 +0000",1557097069.184276,0.479179,-1.441615,-2.410607,0.059394,0.991668,-0.114313,0.000000,0.000000,0.000000,-1,0.001165,-0.049709,-0.004594,0.000360,0.002091,0.014795
"2019-05-05 22:57:49.207 +0000",1557097069.206608,0.478923,-1.441913,-2.410549,0.059228,0.991706,-0.114067,0.000000,0.000000,0.000000,-1,-0.026399,-0.000516,-0.005042,0.004630,0.002175,0.010933
"2019-05-05 22:57:49.229 +0000",1557097069.228885,0.479591,-1.441866,-2.409085,0.059326,0.991700,-0.114068,0.000000,0.000000,0.000000,-1,-0.006357,-0.069379,-0.000699,0.004242,-0.004472,-0.006491
"2019-05-05 22:57:49.251 +0000",1557097069.251169,0.476760,-1.441748,-2.409967,0.059056,0.991685,-0.114340,0.000000,0.000000,0.000000,-1,-0.015155,-0.084154,-0.003053,0.000056,-0.003602,-0.005915
"2019-05-05 22:57:49.273 +0000",1557097069.273477,0.475376,-1.441987,-2.409616,0.058790,0.991716,-0.114211,0.000000,0.000000,0.000000,-1,-0.006375,-0.076774,-0.004355,0.000796,-0.002214,-0.005937
"2019-05-05 22:57:49.296 +0000",1557097069.295785,0.473412,-1.441590,-2.409798,0.058745,0.991664,-0.114676,0.000000,0.000000,0.000000,-1,-0.001358,-0.080462,-0.004319,0.005083,-0.002483,-0.006829
"2019-05-05 22:57:49.318 +0000",1557097069.318084,0.474712,-1.441127,-2.407093,0.059104,0.991605,-0.115008,0.000000,0.000000,0.000000,-1,-0.000064,-0.053380,0.000407,0.012628,0.000079,-0.004880
"2019-05-05 22:57:49.340 +0000",1557097069.340413,0.481067,-1.440848,-2.399951,0.059962,0.991569,-0.114876,0.000000,0.000000,0.000000,-1,-0.025122,-0.016481,0.001315,0.017782,0.002633,-0.000679
"2019-05-05 22:57:49.363 +0000",1557097069.362714,0.488703,-1.440828,-2.392280,0.060846,0.991566,-0.114432,0.000000,0.000000,0.000000,-1,-0.012677,-0.004079,0.003773,0.011221,-0.001316,0.001166
"2019-05-05 22:57:49.385 +0000",1557097069.384998,0.493110,-1.441292,-2.387862,0.061132,0.991626,-0.113757,0.000000,0.000000,0.000000,-1,-0.035256,0.010663,0.001153,0.007304,-0.004459,0.001483
"2019-05-05 22:57:49.407 +0000",1557097069.407305,0.496931,-1.441749,-2.384397,0.061351,0.991685,-0.113125,0.000000,0.000000,0.000000,-1,-0.025220,0.020504,-0.000170,0.000097,-0.003953,-0.001667
"2019-05-05 22:57:49.430 +0000",1557097069.429609,0.497224,-1.442095,-2.384418,0.061220,0.991729,-0.112805,0.000000,0.000000,0.000000,-1,-0.012690,0.005743,-0.001275,-0.003572,0.001770,0.004284
"2019-05-05 22:57:49.452 +0000",1557097069.451922,0.498828,-1.442888,-2.382832,0.061024,0.991831,-0.112016,0.000000,0.000000,0.000000,-1,-0.018989,-0.001659,-0.006175,-0.002202,0.003668,0.006944
"2019-05-05 22:57:49.474 +0000",1557097069.474199,0.498940,-1.443358,-2.383028,0.060814,0.991891,-0.111600,0.000000,0.000000,0.000000,-1,-0.007679,0.024183,-0.005160,-0.005211,0.002097,0.006207
"2019-05-05 22:57:49.497 +0000",1557097069.496508,0.500624,-1.443722,-2.382483,0.060828,0.991937,-0.111180,0.000000,0.000000,0.000000,-1,-0.020206,0.057386,-0.006701,-0.001716,-0.005273,0.007039
"2019-05-05 22:57:49.519 +0000",1557097069.518810,0.502019,-1.443700,-2.381901,0.060994,0.991934,-0.111115,0.000000,0.000000,0.000000,-1,-0.013964,0.016790,-0.007577,0.005260,-0.005591,-0.007156
"2019-05-05 22:57:49.541 +0000",1557097069.541123,0.508211,-1.444011,-2.375590,0.061531,0.991974,-0.110465,0.000000,0.000000,0.000000,-1,-0.060421,-0.007729,0.002622,0.010430,-0.007049,-0.006859
"2019-05-05 22:57:49.563 +0000",1557097069.563432,0.512590,-1.444589,-2.370894,0.061732,0.992046,-0.109695,0.000000,0.000000,0.000000,-1,-0.030340,-0.015116,-0.002260,-0.000682,-0.005230,-0.012955
"2019-05-05 22:57:49.586 +0000",1557097069.585705,0.509043,-1.444787,-2.373949,0.061247,0.992071,-0.109741,0.000000,0.000000,0.000000,-1,0.008522,-0.018809,-0.007175,-0.001493,0.001367,0.005783
"2019-05-05 22:57:49.608 +0000",1557097069.608016,0.511706,-1.445241,-2.371493,0.061318,0.992128,-0.109185,0.000000,0.000000,0.000000,-1,-0.019024,0.020568,-0.001333,0.004889,-0.001345,0.007012
"2019-05-05 22:57:49.630 +0000",1557097069.630325,0.515418,-1.445008,-2.368091,0.061837,0.992099,-0.109158,0.000000,0.000000,0.000000,-1,-0.010230,0.008290,0.003745,0.005912,-0.005710,-0.003329
"2019-05-05 22:57:49.653 +0000",1557097069.652618,0.518884,-1.445119,-2.364898,0.062161,0.992113,-0.108848,0.000000,0.000000,0.000000,-1,-0.022747,0.016914,0.008626,0.004062,-0.004152,-0.005059
"2019-05-05 22:57:49.675 +0000",1557097069.674942,0.520452,-1.444977,-2.363849,0.062402,0.992095,-0.108873,0.000000,0.000000,0.000000,-1,-0.013979,0.023049,0.003614,0.001899,-0.006164,-0.010588
"2019-05-05 22:57:49.697 +0000",1557097069.697217,0.516709,-1.444408,-2.367219,0.062272,0.992024,-0.109596,0.000000,0.000000,0.000000,-1,-0.009007,-0.044610,0.002975,-0.003755,-0.006870,-0.011284
"2019-05-05 22:57:49.720 +0000",1557097069.719543,0.519904,-1.444928,-2.363078,0.062366,0.992089,-0.108949,0.000000,0.000000,0.000000,-1,-0.035270,-0.040685,0.010286,0.000226,-0.003350,-0.002669
"2019-05-05 22:57:49.742 +0000",1557097069.741818,0.521748,-1.445177,-2.360123,0.062444,0.992120,-0.108619,0.000000,0.000000,0.000000,-1,-0.011461,-0.055450,0.006706,-0.000157,0.006140,0.000465
"2019-05-05 22:57:49.764 +0000",1557097069.764141,0.523858,-1.445477,-2.357084,0.062524,0.992158,-0.108229,0.000000,0.000000,0.000000,-1,-0.020235,-0.021025,0.002675,0.001395,0.003982,0.003325
"2019-05-05 22:57:49.786 +0000",1557097069.786418,0.527625,-1.446052,-2.353153,0.062644,0.992230,-0.107500,0.000000,0.000000,0.000000,-1,-0.031506,-0.000113,0.003726,0.002237,0.001667,0.003084
"2019-05-05 22:57:49.809 +0000",1557097069.808742,0.527313,-1.446742,-2.353387,0.062266,0.992315,-0.106928,0.000000,0.000000,0.000000,-1,-0.029007,-0.007498,0.002549,-0.010035,-0.005529,-0.001226
"2019-05-05 22:57:49.831 +0000",1557097069.831037,0.525139,-1.447586,-2.354880,0.061613,0.992419,-0.106339,0.000000,0.000000,0.000000,-1,-0.034056,-0.040723,0.000358,-0.011732,-0.006564,-0.001678
"2019-05-05 22:57:49.853 +0000",1557097069.853343,0.523707,-1.448252,-2.355019,0.061130,0.992501,-0.105854,0.000000,0.000000,0.000000,-1,-0.026566,-0.059195,-0.005679,-0.009403,-0.003136,-0.003750
"2019-05-05 22:57:49.876 +0000",1557097069.875632,0.523534,-1.448347,-2.353618,0.061065,0.992513,-0.105783,0.000000,0.000000,0.000000,-1,0.002276,-0.078860,-0.004251,0.004380,0.006129,0.001672
"2019-05-05 22:57:49.898 +0000",1557097069.897928,0.524958,-1.448643,-2.350086,0.061068,0.992549,-0.105442,0.000000,0.000000,0.000000,-1,-0.023976,-0.099455,0.005771,0.005918,0.002065,0.007694
"2019-05-05 22:57:49.920 +0000",1557097069.920235,0.530304,-1.449620,-2.342742,0.061141,0.992667,-0.104278,0.000000,0.000000,0.000000,-1,-0.026480,-0.081009,0.004366,-0.000472,-0.004859,0.010161
"2019-05-05 22:57:49.943 +0000",1557097069.942544,0.530398,-1.449955,-2.341131,0.060982,0.992708,-0.103984,0.000000,0.000000,0.000000,-1,-0.017712,-0.052742,-0.003324,-0.004006,-0.004228,0.004375
"2019-05-05 22:57:49.965 +0000",1557097069.964852,0.529284,-1.450720,-2.342026,0.060483,0.992800,-0.103397,0.000000,0.000000,0.000000,-1,-0.025199,0.006301,-0.003854,-0.006787,-0.006471,-0.002713
"2019-05-05 22:57:49.987 +0000",1557097069.987160,0.524353,-1.450385,-2.345916,0.060139,0.992759,-0.103982,0.000000,0.000000,0.000000,-1,-0.000188,-0.092112,-0.006691,-0.000767,-0.000480,-0.012321
"2019-05-05 22:57:50.009 +0000",1557097070.009436,0.520893,-1.450275,-2.346643,0.059833,0.992746,-0.104284,0.000000,0.000000,0.000000,-1,-0.001442,-0.131453,-0.000140,0.004117,-0.000406,-0.001887
"2019-05-05 22:57:50.032 +0000",1557097070.031745,0.522449,-1.450594,-2.342336,0.059837,0.992784,-0.103917,0.000000,0.000000,0.000000,-1,-0.011443,-0.115441,0.005917,0.001168,-0.001619,0.008488
"2019-05-05 22:57:50.054 +0000",1557097070.054066,0.524434,-1.451177,-2.338222,0.059754,0.992854,-0.103297,0.000000,0.000000,0.000000,-1,-0.012690,-0.085928,0.003174,0.001205,-0.003062,0.004801
"2019-05-05 22:57:50.076 +0000",1557097070.076362,0.524168,-1.451299,-2.336882,0.059666,0.992869,-0.103208,0.000000,0.000000,0.000000,-1,-0.010111,-0.063688,-0.000803,0.000744,-0.003245,0.003889
"2019-05-05 22:57:50.099 +0000",1557097070.098644,0.526063,-1.451667,-2.333843,0.059677,0.992913,-0.102778,0.000000,0.000000,0.000000,-1,-0.026371,-0.047669,0.007732,0.000229,-0.003685,-0.002401
"2019-05-05 22:57:50.121 +0000",1557097070.120946,0.526138,-1.451877,-2.332271,0.059580,0.992938,-0.102593,0.000000,0.000000,0.000000,-1,-0.012603,-0.085802,0.006836,-0.000651,0.002897,-0.005744
"2019-05-05 22:57:50.143 +0000",1557097070.143258,0.522526,-1.451782,-2.333538,0.059257,0.992926,-0.102891,0.000000,0.000000,0.000000,-1,0.004908,-0.110430,-0.001622,-0.001609,0.002725,-0.001876
"2019-05-05 22:57:50.166 +0000",1557097070.165562,0.521419,-1.452017,-2.332629,0.059026,0.992954,-0.102753,0.000000,0.000000,0.000000,-1,-0.002599,-0.079680,-0.001898,0.001307,-0.004032,0.003662
"2019-05-05 22:57:50.188 +0000",1557097070.187870,0.522816,-1.452038,-2.328881,0.059159,0.992956,-0.102653,0.000000,0.000000,0.000000,-1,-0.017587,-0.121424,0.020796,0.000213,-0.009741,0.001792
"2019-05-05 22:57:50.210 +0000",1557097070.210177,0.525535,-1.452171,-2.323237,0.059372,0.992972,-0.102377,0.000000,0.000000,0.000000,-1,-0.015085,-0.131264,0.020884,-0.000794,0.002572,-0.000894
"2019-05-05 22:57:50.232 +0000",1557097070.232455,0.524586,-1.452107,-2.322226,0.059307,0.992965,-0.102488,0.000000,0.000000,0.000000,-1,0.001212,-0.045211,0.004000,-0.003338,0.006227,-0.001775
"2019-05-05 22:57:50.255 +0000",1557097070.254754,0.524737,-1.452106,-2.322331,0.059323,0.992965,-0.102481,0.000000,0.000000,0.000000,-1,-0.012520,0.016619,-0.001559,-0.000485,-0.006743,-0.005506
"2019-05-05 22:57:50.277 +0000",1557097070.277072,0.522086,-1.451922,-2.323828,0.059142,0.992943,-0.102796,0.000000,0.000000,0.000000,-1,0.004984,-0.096530,0.003174,-0.002379,-0.003136,-0.007754
"2019-05-05 22:57:50.299 +0000",1557097070.299380,0.521669,-1.451794,-2.321979,0.059163,0.992928,-0.102931,0.000000,0.000000,0.000000,-1,-0.001261,-0.094048,0.009353,0.007381,-0.000832,0.002559
"2019-05-05 22:57:50.322 +0000",1557097070.321666,0.524533,-1.451968,-2.317135,0.059370,0.992948,-0.102611,0.000000,0.000000,0.000000,-1,0.002525,-0.094022,0.015557,0.001573,-0.001112,0.011180
"2019-05-05 22:57:50.344 +0000",1557097070.343964,0.526100,-1.452238,-2.313212,0.059396,0.992980,-0.102286,0.000000,0.000000,0.000000,-1,-0.008792,-0.102657,0.010667,0.000250,0.003632,0.013175
"2019-05-05 22:57:50.366 +0000",1557097070.366273,0.530595,-1.453417,-2.307621,0.059263,0.993119,-0.101008,0.000000,0.000000,0.000000,-1,-0.035104,0.001858,0.001043,-0.003462,0.000320,0.014704
"2019-05-05 22:57:50.389 +0000",1557097070.388581,0.532113,-1.453760,-2.306596,0.059243,0.993159,-0.100624,0.000000,0.000000,0.000000,-1,-0.012538,0.022756,-0.005335,-0.007531,-0.002360,0.000237
"2019-05-05 22:57:50.411 +0000",1557097070.410888,0.531192,-1.453823,-2.307752,0.059119,0.993166,-0.100625,0.000000,0.000000,0.000000,-1,-0.012544,0.003079,-0.003920,0.003137,0.001249,-0.005240
"2019-05-05 22:57:50.433 +0000",1557097070.433167,0.533943,-1.453571,-2.304833,0.059523,0.993137,-0.100678,0.000000,0.000000,0.000000,-1,-0.011178,-0.012718,-0.001335,0.008317,-0.002796,-0.006287
"2019-05-05 22:57:50.455 +0000",1557097070.455472,0.535786,-1.453356,-2.302639,0.059817,0.993112,-0.100750,0.000000,0.000000,0.000000,-1,0.007648,-0.020076,0.002462,0.010770,-0.002435,-0.005634
"2019-05-05 22:57:50.478 +0000",1557097070.477765,0.536656,-1.452918,-2.301573,0.060127,0.993060,-0.101073,0.000000,0.000000,0.000000,-1,0.006403,0.000831,0.001036,-0.000786,-0.007526,0.001295
"2019-05-05 22:57:50.500 +0000",1557097070.500090,0.537288,-1.452915,-2.301452,0.060193,0.993060,-0.101037,0.000000,0.000000,0.000000,-1,0.001419,0.029136,0.004504,-0.003018,-0.007342,0.000008
"2019-05-05 22:57:50.522 +0000",1557097070.522396,0.535718,-1.452680,-2.303125,0.060153,0.993032,-0.101332,0.000000,0.000000,0.000000,-1,0.013930,-0.013917,0.003651,-0.005313,-0.002783,-0.004762
"2019-05-05 22:57:50.545 +0000",1557097070.544682,0.535388,-1.452653,-2.302345,0.060134,0.993029,-0.101375,0.000000,0.000000,0.000000,-1,0.018901,-0.052068,-0.000970,0.004091,0.003614,0.011059
"2019-05-05 22:57:50.567 +0000",1557097070.566983,0.537632,-1.452684,-2.300328,0.060346,0.993033,-0.101214,0.000000,0.000000,0.000000,-1,0.003907,0.032809,-0.000489,0.009112,-0.001242,0.011859
"2019-05-05 22:57:50.589 +0000",1557097070.589292,0.543682,-1.452962,-2.294989,0.060814,0.993066,-0.100611,0.000000,0.000000,0.000000,-1,-0.002352,0.024215,0.004549,0.004280,-0.004723,0.009028
"2019-05-05 22:57:50.612 +0000",1557097070.611599,0.543046,-1.452805,-2.295867,0.060830,0.993047,-0.100783,0.000000,0.000000,0.000000,-1,0.011543,0.009614,-0.001553,0.003318,-0.004979,0.000563
"2019-05-05 22:57:50.634 +0000",1557097070.633907,0.544473,-1.452809,-2.295251,0.060972,0.993048,-0.100692,0.000000,0.000000,0.000000,-1,-0.004756,0.045267,-0.005597,0.003161,-0.004034,-0.000138
"2019-05-05 22:57:50.656 +0000",1557097070.656205,0.544240,-1.452031,-2.296173,0.061348,0.992956,-0.101367,0.000000,0.000000,0.000000,-1,0.012784,0.016977,-0.006577,0.006080,-0.000509,-0.007321
"2019-05-05 22:57:50.678 +0000",1557097070.678492,0.543542,-1.451822,-2.297107,0.061385,0.992931,-0.101588,0.000000,0.000000,0.000000,-1,0.014057,0.007160,-0.000287,0.005220,0.000325,-0.002645
"2019-05-05 22:57:50.701 +0000",1557097070.700800,0.544670,-1.451781,-2.296304,0.061521,0.992926,-0.101553,0.000000,0.000000,0.000000,-1,0.001489,0.024343,-0.009127,0.005115,-0.002875,0.006094
"2019-05-05 22:57:50.723 +0000",1557097070.723108,0.547249,-1.451753,-2.294555,0.061797,0.992923,-0.101419,0.000000,0.000000,0.000000,-1,-0.002246,0.037893,-0.004286,0.004838,-0.002963,-0.000052
"2019-05-05 22:57:50.745 +0000",1557097070.745416,0.547724,-1.451609,-2.295072,0.061920,0.992906,-0.101511,0.000000,0.000000,0.000000,-1,0.011545,0.042809,-0.006804,0.000947,-0.001893,-0.003393
"2019-05-05 22:57:50.768 +0000",1557097070.767689,0.543114,-1.451482,-2.300511,0.061516,0.992891,-0.101903,0.000000,0.000000,0.000000,-1,0.001506,0.034194,-0.006733,-0.007240,-0.005098,-0.007670
"2019-05-05 22:57:50.790 +0000",1557097070.790002,0.538516,-1.451306,-2.305220,0.061137,0.992870,-0.102335,0.000000,0.000000,0.000000,-1,0.016671,-0.014770,-0.008805,-0.007471,-0.003078,-0.004720
"2019-05-05 22:57:50.812 +0000",1557097070.812309,0.531223,-1.451200,-2.311487,0.060442,0.992857,-0.102869,0.000000,0.000000,0.000000,-1,0.024150,-0.063986,-0.012088,-0.005251,0.001436,0.002482
"2019-05-05 22:57:50.835 +0000",1557097070.834619,0.528541,-1.451127,-2.313594,0.060202,0.992848,-0.103093,0.000000,0.000000,0.000000,-1,0.001637,0.006140,-0.007758,0.001199,-0.000539,0.010168
"2019-05-05 22:57:50.857 +0000",1557097070.856925,0.530759,-1.451200,-2.312263,0.060394,0.992857,-0.102897,0.000000,0.000000,0.000000,-1,0.021738,0.049208,-0.006890,0.004090,0.003786,0.001746
"2019-05-05 22:57:50.879 +0000",1557097070.879203,0.527927,-1.449945,-2.316212,0.060730,0.992706,-0.104144,0.000000,0.000000,0.000000,-1,0.033024,0.046748,-0.008102,0.007736,-0.005707,-0.010694
"2019-05-05 22:57:50.902 +0000",1557097070.901510,0.526100,-1.449356,-2.317894,0.060833,0.992635,-0.104760,0.000000,0.000000,0.000000,-1,0.025531,-0.049113,0.016316,0.004947,-0.008657,-0.012763
"2019-05-05 22:57:50.924 +0000",1557097070.923819,0.519453,-1.448325,-2.323078,0.060644,0.992510,-0.106051,0.000000,0.000000,0.000000,-1,0.029237,-0.049169,0.001431,-0.007268,-0.005175,-0.010176
"2019-05-05 22:57:50.946 +0000",1557097070.946127,0.509116,-1.447448,-2.333571,0.059968,0.992402,-0.107432,0.000000,0.000000,0.000000,-1,0.066872,0.019695,-0.009091,-0.010255,0.004638,-0.003637
"2019-05-05 22:57:50.968 +0000",1557097070.968432,0.500654,-1.446489,-2.342241,0.059514,0.992284,-0.108770,0.000000,0.000000,0.000000,-1,0.046946,0.002759,-0.008977,-0.003240,0.001399,0.006079
"2019-05-05 22:57:50.991 +0000",1557097070.990706,0.505131,-1.446025,-2.338196,0.060223,0.992226,-0.108906,0.000000,0.000000,0.000000,-1,0.024438,0.021260,0.005738,0.009921,-0.001351,0.005955
"2019-05-05 22:57:51.013 +0000",1557097071.013021,0.504822,-1.445308,-2.338969,0.060534,0.992137,-0.109547,0.000000,0.000000,0.000000,-1,0.040737,0.017572,0.004537,0.005201,0.001867,0.006016
"2019-05-05 22:57:51.035 +0000",1557097071.035328,0.500394,-1.444860,-2.344043,0.060261,0.992081,-0.110204,0.000000,0.000000,0.000000,-1,0.041930,0.027351,-0.011677,-0.005467,0.002655,0.005498
"2019-05-05 22:57:51.058 +0000",1557097071.057636,0.497992,-1.444507,-2.347805,0.060164,0.992036,-0.110656,0.000000,0.000000,0.000000,-1,0.013113,0.085149,-0.013443,-0.005812,-0.006227,0.007477
"2019-05-05 22:57:51.080 +0000",1557097071.079914,0.492900,-1.443410,-2.355055,0.060114,0.991897,-0.111919,0.000000,0.000000,0.000000,-1,0.016925,0.082734,-0.002255,-0.003458,-0.003555,-0.022450
"2019-05-05 22:57:51.102 +0000",1557097071.102221,0.486854,-1.442362,-2.361449,0.059923,0.991764,-0.113200,0.000000,0.000000,0.000000,-1,0.044428,-0.024299,-0.007497,-0.003298,-0.000293,-0.018758
"2019-05-05 22:57:51.125 +0000",1557097071.124530,0.478339,-1.441095,-2.368600,0.059535,0.991601,-0.114821,0.000000,0.000000,0.000000,-1,0.056927,-0.072282,-0.010787,0.003469,-0.001137,-0.004884
"2019-05-05 22:57:51.147 +0000",1557097071.146837,0.483490,-1.441023,-2.363022,0.060159,0.991591,-0.114576,0.000000,0.000000,0.000000,-1,0.008271,0.017938,-0.000470,0.014625,-0.005812,0.018400
"2019-05-05 22:57:51.169 +0000",1557097071.169146,0.490758,-1.441049,-2.356524,0.060978,0.991595,-0.114113,0.000000,0.000000,0.000000,-1,0.013298,0.029017,0.000677,0.007656,-0.000338,0.009453
"2019-05-05 22:57:51.191 +0000",1557097071.191422,0.489142,-1.440895,-2.358802,0.060865,0.991575,-0.114346,0.000000,0.000000,0.000000,-1,0.022037,0.027753,-0.009232,-0.007871,-0.000181,0.004818
"2019-05-05 22:57:51.214 +0000",1557097071.213731,0.483151,-1.440522,-2.365306,0.060351,0.991526,-0.115037,0.000000,0.000000,0.000000,-1,0.029551,0.024056,-0.011679,-0.005144,0.001287,-0.003204
"2019-05-05 22:57:51.236 +0000",1557097071.236038,0.480231,-1.439969,-2.368590,0.060268,0.991454,-0.115699,0.000000,0.000000,0.000000,-1,0.025790,0.003157,-0.007773,0.002217,-0.000533,-0.004281
"2019-05-05 22:57:51.258 +0000",1557097071.258346,0.478345,-1.439161,-2.370196,0.060418,0.991349,-0.116523,0.000000,0.000000,0.000000,-1,0.042087,-0.018973,-0.006328,0.006187,0.000061,0.001929
"2019-05-05 22:57:51.281 +0000",1557097071.280655,0.474509,-1.438639,-2.373887,0.060207,0.991280,-0.117214,0.000000,0.000000,0.000000,-1,0.023269,0.008062,-0.011538,0.006382,-0.002373,0.008129
"2019-05-05 22:57:51.303 +0000",1557097071.302928,0.476341,-1.438423,-2.373146,0.060520,0.991251,-0.117294,0.000000,0.000000,0.000000,-1,0.013284,0.060967,-0.008288,0.003612,0.002035,-0.005157
"2019-05-05 22:57:51.325 +0000",1557097071.325239,0.473367,-1.437732,-2.377279,0.060483,0.991160,-0.118083,0.000000,0.000000,0.000000,-1,0.027229,0.039493,-0.010601,0.002963,0.002431,-0.012044
"2019-05-05 22:57:51.348 +0000",1557097071.347548,0.470218,-1.437262,-2.380868,0.060322,0.991098,-0.118688,0.000000,0.000000,0.000000,-1,0.028473,0.008751,-0.007847,0.003307,-0.003228,-0.008906
"2019-05-05 22:57:51.370 +0000",1557097071.369856,0.467210,-1.436288,-2.383761,0.060400,0.990967,-0.119732,0.000000,0.000000,0.000000,-1,0.037237,-0.010932,-0.008908,0.004221,-0.006882,-0.001118
"2019-05-05 22:57:51.392 +0000",1557097071.392156,0.466589,-1.435848,-2.384747,0.060521,0.990908,-0.120158,0.000000,0.000000,0.000000,-1,0.014705,0.038278,-0.005632,0.002772,-0.004550,0.003642
"2019-05-05 22:57:51.414 +0000",1557097071.414442,0.465735,-1.435286,-2.386917,0.060669,0.990833,-0.120708,0.000000,0.000000,0.000000,-1,0.022242,0.054272,-0.005770,0.000732,-0.001193,-0.007634
"2019-05-05 22:57:51.437 +0000",1557097071.436760,0.461202,-1.434206,-2.392075,0.060597,0.990686,-0.121939,0.000000,0.000000,0.000000,-1,0.028495,0.012456,-0.004156,-0.001271,-0.003534,-0.009302
"2019-05-05 22:57:51.459 +0000",1557097071.459056,0.457457,-1.433341,-2.395450,0.060518,0.990568,-0.122934,0.000000,0.000000,0.000000,-1,0.036001,-0.034276,-0.001257,-0.000078,-0.003004,-0.007132
"2019-05-05 22:57:51.481 +0000",1557097071.481366,0.453283,-1.432513,-2.398987,0.060364,0.990454,-0.123923,0.000000,0.000000,0.000000,-1,0.037254,-0.013378,-0.005163,-0.000824,0.000009,0.002081
"2019-05-05 22:57:51.504 +0000",1557097071.503654,0.451402,-1.432068,-2.401510,0.060323,0.990393,-0.124432,0.000000,0.000000,0.000000,-1,0.024888,0.046087,-0.005720,-0.003789,-0.000387,-0.004108
"2019-05-05 22:57:51.526 +0000",1557097071.525950,0.447776,-1.431134,-2.406247,0.060272,0.990263,-0.125484,0.000000,0.000000,0.000000,-1,0.031167,0.046095,-0.004477,-0.000381,0.000551,-0.008061
"2019-05-05 22:57:51.548 +0000",1557097071.548258,0.444905,-1.430296,-2.409980,0.060269,0.990146,-0.126406,0.000000,0.000000,0.000000,-1,0.033673,0.033799,-0.003127,-0.001217,-0.001010,-0.008069
"2019-05-05 22:57:51.571 +0000",1557097071.570566,0.442624,-1.429621,-2.413031,0.060266,0.990051,-0.127147,0.000000,0.000000,0.000000,-1,0.033667,0.031334,-0.004345,0.000845,-0.005356,-0.005238
"2019-05-05 22:57:51.593 +0000",1557097071.592875,0.440517,-1.428658,-2.415828,0.060405,0.989915,-0.128136,0.000000,0.000000,0.000000,-1,0.023627,0.028865,-0.005567,0.005498,-0.002870,-0.008598
"2019-05-05 22:57:51.615 +0000",1557097071.615152,0.439899,-1.427660,-2.417141,0.060746,0.989773,-0.129067,0.000000,0.000000,0.000000,-1,0.021120,0.028864,-0.005567,0.004607,-0.004407,-0.008567
"2019-05-05 22:57:51.637 +0000",1557097071.637458,0.438379,-1.427225,-2.419086,0.060733,0.989711,-0.129549,0.000000,0.000000,0.000000,-1,0.013582,0.009179,-0.005395,0.001279,-0.004253,-0.001585
"2019-05-05 22:57:51.660 +0000",1557097071.659752,0.438791,-1.427652,-2.418823,0.060607,0.989772,-0.129142,0.000000,0.000000,0.000000,-1,0.004813,0.006730,-0.001656,-0.001891,0.006016,0.010322
"2019-05-05 22:57:51.682 +0000",1557097071.682076,0.438406,-1.428040,-2.419770,0.060394,0.989828,-0.128817,0.000000,0.000000,0.000000,-1,-0.005094,0.041745,-0.008195,-0.005096,0.002406,0.010379
"2019-05-05 22:57:51.704 +0000",1557097071.704378,0.438105,-1.429005,-2.421431,0.059950,0.989964,-0.127971,0.000000,0.000000,0.000000,-1,-0.013872,0.065104,-0.010888,-0.008116,0.000819,0.008616
"2019-05-05 22:57:51.727 +0000",1557097071.726685,0.437574,-1.429679,-2.423199,0.059599,0.990059,-0.127397,0.000000,0.000000,0.000000,-1,-0.013909,0.047859,-0.016939,-0.005247,0.000816,0.007341
"2019-05-05 22:57:51.749 +0000",1557097071.748968,0.438862,-1.430459,-2.422999,0.059435,0.990169,-0.126622,0.000000,0.000000,0.000000,-1,-0.018901,0.049111,-0.010749,0.000532,-0.000728,0.003361
"2019-05-05 22:57:51.771 +0000",1557097071.771277,0.438955,-1.430821,-2.424081,0.059295,0.990219,-0.126292,0.000000,0.000000,0.000000,-1,-0.016406,0.051558,-0.014491,0.000764,-0.010224,-0.003606
"2019-05-05 22:57:51.794 +0000",1557097071.793585,0.439103,-1.431324,-2.424879,0.059102,0.990289,-0.125832,0.000000,0.000000,0.000000,-1,-0.020181,0.033104,-0.014329,-0.000294,-0.010523,-0.009513
"2019-05-05 22:57:51.816 +0000",1557097071.815878,0.437186,-1.431131,-2.427136,0.058941,0.990263,-0.126119,0.000000,0.000000,0.000000,-1,-0.011420,0.007271,-0.015336,0.003284,0.000750,-0.010142
"2019-05-05 22:57:51.838 +0000",1557097071.838169,0.436538,-1.430996,-2.428005,0.058916,0.990244,-0.126278,0.000000,0.000000,0.000000,-1,0.002381,0.009737,-0.015351,0.010863,0.001532,-0.009495
"2019-05-05 22:57:51.860 +0000",1557097071.860477,0.436699,-1.430766,-2.428010,0.059033,0.990212,-0.126475,0.000000,0.000000,0.000000,-1,0.001220,0.005302,-0.011602,0.015110,-0.002236,0.001292
"2019-05-05 22:57:51.883 +0000",1557097071.882798,0.440978,-1.431380,-2.423945,0.059314,0.990297,-0.125671,0.000000,0.000000,0.000000,-1,-0.016325,0.008999,-0.007918,0.005963,-0.001574,0.009353
"2019-05-05 22:57:51.905 +0000",1557097071.905093,0.441786,-1.432045,-2.423490,0.059133,0.990390,-0.125027,0.000000,0.000000,0.000000,-1,-0.021366,0.021270,-0.015473,0.000544,-0.000247,0.006650
"2019-05-05 22:57:51.927 +0000",1557097071.927402,0.441184,-1.432524,-2.424575,0.058856,0.990456,-0.124634,0.000000,0.000000,0.000000,-1,-0.001298,0.020048,-0.015453,-0.001010,0.002998,0.001038
"2019-05-05 22:57:51.950 +0000",1557097071.949691,0.440163,-1.432748,-2.426107,0.058634,0.990487,-0.124493,0.000000,0.000000,0.000000,-1,0.002457,0.023731,-0.017965,0.004355,0.003761,0.003934
"2019-05-05 22:57:51.972 +0000",1557097071.971987,0.441925,-1.433120,-2.425382,0.058696,0.990538,-0.124057,0.000000,0.000000,0.000000,-1,-0.007558,0.055710,-0.018252,0.005254,-0.000273,0.006412
"2019-05-05 22:57:51.994 +0000",1557097071.994295,0.444148,-1.433436,-2.424757,0.058837,0.990581,-0.123643,0.000000,0.000000,0.000000,-1,-0.010030,0.074185,-0.012213,0.005266,-0.003963,0.000993
"2019-05-05 22:57:52.017 +0000",1557097072.016604,0.443921,-1.433594,-2.426457,0.058742,0.990602,-0.123516,0.000000,0.000000,0.000000,-1,0.003749,0.052044,-0.013251,0.003209,-0.004534,-0.006992
"2019-05-05 22:57:52.039 +0000",1557097072.038880,0.443123,-1.432765,-2.428212,0.058995,0.990489,-0.124305,0.000000,0.000000,0.000000,-1,0.013828,0.036500,-0.011873,0.008189,0.000219,-0.010232
"2019-05-05 22:57:52.061 +0000",1557097072.061188,0.442055,-1.431823,-2.430458,0.059261,0.990359,-0.125210,0.000000,0.000000,0.000000,-1,0.018846,0.057400,-0.015776,0.007725,-0.002795,-0.009830
"2019-05-05 22:57:52.083 +0000",1557097072.083495,0.442031,-1.431433,-2.431880,0.059423,0.990305,-0.125560,0.000000,0.000000,0.000000,-1,0.010098,0.059885,-0.008358,0.010126,-0.007517,-0.005650
"2019-05-05 22:57:52.106 +0000",1557097072.105806,0.446288,-1.431430,-2.428997,0.059959,0.990304,-0.125310,0.000000,0.000000,0.000000,-1,-0.008694,0.066048,-0.003457,0.004464,-0.003320,0.000844
"2019-05-05 22:57:52.128 +0000",1557097072.128106,0.444920,-1.431495,-2.432189,0.059760,0.990313,-0.125333,0.000000,0.000000,0.000000,-1,0.002586,0.089400,-0.009863,-0.006751,0.003415,-0.005907
"2019-05-05 22:57:52.150 +0000",1557097072.150390,0.443239,-1.431466,-2.435731,0.059561,0.990309,-0.125460,0.000000,0.000000,0.000000,-1,0.005076,0.075861,-0.012224,-0.006094,0.001726,-0.005232
"2019-05-05 22:57:52.173 +0000",1557097072.172703,0.441699,-1.431322,-2.438562,0.059429,0.990289,-0.125680,0.000000,0.000000,0.000000,-1,0.013849,0.047581,-0.009488,-0.000560,0.000937,-0.000617
"2019-05-05 22:57:52.195 +0000",1557097072.195005,0.441846,-1.431379,-2.439611,0.059423,0.990297,-0.125620,0.000000,0.000000,0.000000,-1,0.006335,0.059884,-0.008360,0.001032,-0.004930,0.003199
"2019-05-05 22:57:52.217 +0000",1557097072.217293,0.442636,-1.431414,-2.440485,0.059508,0.990302,-0.125543,0.000000,0.000000,0.000000,-1,0.008864,0.075024,-0.007250,-0.001509,-0.007804,0.003015
"2019-05-05 22:57:52.240 +0000",1557097072.239622,0.441463,-1.431353,-2.443166,0.059386,0.990294,-0.125666,0.000000,0.000000,0.000000,-1,0.003824,0.062707,-0.010865,-0.004363,-0.004179,-0.002142
"2019-05-05 22:57:52.262 +0000",1557097072.261899,0.439124,-1.431252,-2.446690,0.059134,0.990279,-0.125896,0.000000,0.000000,0.000000,-1,0.011348,0.050414,-0.009512,-0.003531,-0.004989,-0.000508
"2019-05-05 22:57:52.284 +0000",1557097072.284207,0.438844,-1.431385,-2.448150,0.059043,0.990298,-0.125793,0.000000,0.000000,0.000000,-1,0.000074,0.051653,-0.005807,-0.001808,-0.004336,0.005767
"2019-05-05 22:57:52.307 +0000",1557097072.306516,0.438598,-1.431711,-2.449411,0.058875,0.990343,-0.125515,0.000000,0.000000,0.000000,-1,0.005064,0.041795,-0.010680,-0.005759,-0.000277,0.008389
"2019-05-05 22:57:52.329 +0000",1557097072.328821,0.434615,-1.431974,-2.454537,0.058265,0.990380,-0.125513,0.000000,0.000000,0.000000,-1,0.005046,0.054073,-0.016993,-0.007240,-0.000069,0.000360
"2019-05-05 22:57:52.351 +0000",1557097072.351131,0.432412,-1.432034,-2.457960,0.057963,0.990388,-0.125586,0.000000,0.000000,0.000000,-1,0.002553,0.045480,-0.011956,-0.006282,-0.002137,-0.002710
"2019-05-05 22:57:52.373 +0000",1557097072.373409,0.428074,-1.432021,-2.462857,0.057423,0.990386,-0.125848,0.000000,0.000000,0.000000,-1,0.006288,0.017179,-0.014186,-0.006352,0.000718,-0.004309
"2019-05-05 22:57:52.396 +0000",1557097072.395728,0.424771,-1.432061,-2.466681,0.056991,0.990392,-0.126001,0.000000,0.000000,0.000000,-1,0.011273,0.029777,-0.016766,-0.004684,-0.001607,0.000802
"2019-05-05 22:57:52.418 +0000",1557097072.418026,0.422202,-1.432335,-2.469931,0.056556,0.990430,-0.125899,0.000000,0.000000,0.000000,-1,0.005002,0.024858,-0.015486,-0.001777,-0.002789,0.005202
"2019-05-05 22:57:52.440 +0000",1557097072.440331,0.422641,-1.432774,-2.470200,0.056433,0.990490,-0.125478,0.000000,0.000000,0.000000,-1,-0.008764,0.037178,-0.009398,0.002176,-0.004177,0.007253
"2019-05-05 22:57:52.463 +0000",1557097072.462641,0.422256,-1.432904,-2.471446,0.056332,0.990508,-0.125382,0.000000,0.000000,0.000000,-1,0.002529,0.034727,-0.008131,-0.002774,-0.001494,0.003861
"2019-05-05 22:57:52.485 +0000",1557097072.484917,0.419503,-1.432997,-2.474512,0.055949,0.990521,-0.125453,0.000000,0.000000,0.000000,-1,0.007530,0.002751,-0.006605,-0.006434,-0.003308,0.003108
"2019-05-05 22:57:52.507 +0000",1557097072.507226,0.416434,-1.433257,-2.477571,0.055460,0.990556,-0.125389,0.000000,0.000000,0.000000,-1,0.008777,0.000287,-0.007824,-0.005380,-0.002306,0.006172
"2019-05-05 22:57:52.530 +0000",1557097072.529533,0.414800,-1.433278,-2.479417,0.055246,0.990559,-0.125460,0.000000,0.000000,0.000000,-1,0.003779,0.015056,-0.005477,-0.004526,0.000514,0.004916
"2019-05-05 22:57:52.552 +0000",1557097072.551819,0.412810,-1.433307,-2.481764,0.054985,0.990563,-0.125543,0.000000,0.000000,0.000000,-1,0.010043,0.011363,-0.006683,-0.006493,-0.004510,0.002664
"2019-05-05 22:57:52.574 +0000",1557097072.574119,0.410738,-1.433306,-2.483494,0.054725,0.990563,-0.125658,0.000000,0.000000,0.000000,-1,0.007462,-0.036362,-0.003758,-0.004921,-0.004845,0.003985
"2019-05-05 22:57:52.596 +0000",1557097072.596428,0.406655,-1.433401,-2.486323,0.054174,0.990576,-0.125794,0.000000,0.000000,0.000000,-1,0.009967,-0.057264,-0.001092,-0.005972,0.001413,0.002152
"2019-05-05 22:57:52.619 +0000",1557097072.618729,0.404055,-1.433415,-2.488526,0.053842,0.990578,-0.125922,0.000000,0.000000,0.000000,-1,0.004958,0.002981,-0.009072,-0.000955,-0.001869,0.000067
"2019-05-05 22:57:52.641 +0000",1557097072.641043,0.402811,-1.433241,-2.490079,0.053753,0.990554,-0.126147,0.000000,0.000000,0.000000,-1,0.009988,0.014059,-0.007928,0.001316,-0.004684,-0.001554
"2019-05-05 22:57:52.663 +0000",1557097072.663352,0.402770,-1.432874,-2.489900,0.053890,0.990504,-0.126484,0.000000,0.000000,0.000000,-1,0.011246,-0.026505,-0.000123,0.003712,-0.005686,-0.000210
"2019-05-05 22:57:52.686 +0000",1557097072.685628,0.401157,-1.432633,-2.490703,0.053779,0.990471,-0.126790,0.000000,0.000000,0.000000,-1,0.012505,-0.035106,0.002435,-0.002220,-0.004707,-0.001399
"2019-05-05 22:57:52.708 +0000",1557097072.707936,0.397592,-1.432260,-2.493529,0.053470,0.990419,-0.127322,0.000000,0.000000,0.000000,-1,0.023791,-0.041252,0.002494,-0.003253,-0.004854,-0.000257
"2019-05-05 22:57:52.730 +0000",1557097072.730247,0.394102,-1.431880,-2.495905,0.053169,0.990367,-0.127855,0.000000,0.000000,0.000000,-1,0.018749,-0.056029,-0.001099,-0.002632,-0.000819,0.000230
"2019-05-05 22:57:52.753 +0000",1557097072.752553,0.391096,-1.431731,-2.497735,0.052841,0.990346,-0.128151,0.000000,0.000000,0.000000,-1,0.014882,-0.049777,-0.002272,-0.001709,0.002879,0.006905
"2019-05-05 22:57:52.775 +0000",1557097072.774860,0.390746,-1.432162,-2.497003,0.052634,0.990406,-0.127775,0.000000,0.000000,0.000000,-1,0.006087,-0.046104,-0.006030,0.001138,0.004330,0.010526
"2019-05-05 22:57:52.797 +0000",1557097072.797138,0.390187,-1.432395,-2.496689,0.052474,0.990438,-0.127590,0.000000,0.000000,0.000000,-1,-0.003916,-0.033783,0.000059,-0.000183,0.002024,0.010067
"2019-05-05 22:57:52.819 +0000",1557097072.819445,0.390457,-1.432949,-2.495953,0.052300,0.990514,-0.127069,0.000000,0.000000,0.000000,-1,-0.008921,-0.012873,-0.000129,-0.000603,-0.002919,0.008035
"2019-05-05 22:57:52.842 +0000",1557097072.841748,0.389466,-1.433073,-2.496814,0.052128,0.990531,-0.127007,0.000000,0.000000,0.000000,-1,-0.008939,-0.001826,-0.006430,-0.000889,-0.003638,-0.003181
"2019-05-05 22:57:52.864 +0000",1557097072.864061,0.389059,-1.433282,-2.496836,0.051997,0.990560,-0.126837,0.000000,0.000000,0.000000,-1,-0.012723,-0.035041,-0.006137,0.000752,-0.005178,-0.002954
"2019-05-05 22:57:52.886 +0000",1557097072.886368,0.388353,-1.433174,-2.496356,0.051948,0.990545,-0.126972,0.000000,0.000000,0.000000,-1,0.001070,-0.058398,-0.003442,0.005394,-0.001928,-0.003628
"2019-05-05 22:57:52.909 +0000",1557097072.908646,0.386687,-1.433104,-2.496910,0.051763,0.990535,-0.127123,0.000000,0.000000,0.000000,-1,0.006106,-0.037479,-0.002385,0.005106,-0.004863,-0.001005
"2019-05-05 22:57:52.931 +0000",1557097072.930949,0.387806,-1.432886,-2.495602,0.051987,0.990505,-0.127266,0.000000,0.000000,0.000000,-1,-0.002758,-0.001719,-0.002573,0.004577,-0.004803,-0.002022
"2019-05-05 22:57:52.953 +0000",1557097072.953254,0.388823,-1.432044,-2.494513,0.052432,0.990389,-0.127984,0.000000,0.000000,0.000000,-1,0.004774,-0.012777,0.000011,0.005154,-0.003573,-0.010353
"2019-05-05 22:57:52.976 +0000",1557097072.975572,0.387314,-1.431871,-2.495084,0.052304,0.990365,-0.128221,0.000000,0.000000,0.000000,-1,0.008501,-0.052149,-0.002119,0.006595,-0.004083,-0.008238
"2019-05-05 22:57:52.998 +0000",1557097072.997848,0.387344,-1.431670,-2.494033,0.052383,0.990338,-0.128404,0.000000,0.000000,0.000000,-1,0.006009,-0.033693,-0.001043,0.005814,-0.002911,0.001589
"2019-05-05 22:57:53.020 +0000",1557097073.020155,0.387433,-1.431538,-2.493534,0.052444,0.990319,-0.128520,0.000000,0.000000,0.000000,-1,0.001023,-0.009078,0.002459,0.003358,-0.001077,-0.001149
"2019-05-05 22:57:53.042 +0000",1557097073.042464,0.388162,-1.431475,-2.492548,0.052561,0.990310,-0.128540,0.000000,0.000000,0.000000,-1,-0.002756,-0.018930,0.000064,0.002844,0.000412,0.000580
"2019-05-05 22:57:53.065 +0000",1557097073.064768,0.389974,-1.431607,-2.490303,0.052744,0.990329,-0.128324,0.000000,0.000000,0.000000,-1,-0.007754,-0.018913,0.005024,0.001837,-0.000690,0.004331
"2019-05-05 22:57:53.087 +0000",1557097073.087079,0.391210,-1.431738,-2.488927,0.052853,0.990347,-0.128139,0.000000,0.000000,0.000000,-1,-0.003999,0.000751,-0.000111,0.002765,-0.000387,0.001918
"2019-05-05 22:57:53.109 +0000",1557097073.109358,0.392352,-1.431920,-2.487985,0.052931,0.990372,-0.127911,0.000000,0.000000,0.000000,-1,-0.007853,0.011839,0.002406,0.001177,-0.003373,0.001660
"2019-05-05 22:57:53.132 +0000",1557097073.131665,0.393845,-1.432138,-2.486633,0.053039,0.990402,-0.127633,0.000000,0.000000,0.000000,-1,-0.014126,0.003230,0.003720,-0.000197,-0.004517,-0.002113
"2019-05-05 22:57:53.154 +0000",1557097073.153969,0.393377,-1.432096,-2.486759,0.052995,0.990397,-0.127696,0.000000,0.000000,0.000000,-1,-0.011658,-0.030001,-0.000946,0.000533,-0.002726,-0.003850
"2019-05-05 22:57:53.176 +0000",1557097073.176281,0.393572,-1.432329,-2.485690,0.052931,0.990429,-0.127472,0.000000,0.000000,0.000000,-1,-0.012916,-0.036152,-0.000892,0.001146,-0.003338,0.002350
"2019-05-05 22:57:53.199 +0000",1557097073.198588,0.394174,-1.432741,-2.484792,0.052851,0.990485,-0.127064,0.000000,0.000000,0.000000,-1,-0.016656,-0.000480,-0.001210,-0.000025,-0.001350,0.005391
"2019-05-05 22:57:53.221 +0000",1557097073.220889,0.394210,-1.432840,-2.484951,0.052819,0.990499,-0.126972,0.000000,0.000000,0.000000,-1,-0.007871,0.014280,-0.002578,0.000770,-0.000921,-0.005718
"2019-05-05 22:57:53.243 +0000",1557097073.243169,0.394643,-1.432642,-2.484684,0.052949,0.990472,-0.127130,0.000000,0.000000,0.000000,-1,-0.012890,0.000752,-0.001219,0.003371,-0.001443,-0.009055
"2019-05-05 22:57:53.265 +0000",1557097073.265482,0.394886,-1.432854,-2.484007,0.052899,0.990501,-0.126923,0.000000,0.000000,0.000000,-1,-0.009137,-0.037366,0.002843,0.003299,-0.002204,-0.008468
"2019-05-05 22:57:53.288 +0000",1557097073.287764,0.396630,-1.432744,-2.481529,0.053162,0.990486,-0.126931,0.000000,0.000000,0.000000,-1,-0.009200,-0.022624,0.011534,0.002426,-0.003853,-0.000312
"2019-05-05 22:57:53.310 +0000",1557097073.310098,0.397871,-1.432854,-2.480245,0.053278,0.990501,-0.126765,0.000000,0.000000,0.000000,-1,-0.010456,0.005649,0.006321,0.000906,-0.003303,-0.001134
"2019-05-05 22:57:53.332 +0000",1557097073.332376,0.398923,-1.432552,-2.479437,0.053527,0.990459,-0.126984,0.000000,0.000000,0.000000,-1,-0.006709,0.010552,0.001317,0.000825,-0.005016,-0.008148
"2019-05-05 22:57:53.355 +0000",1557097073.354684,0.400100,-1.432463,-2.478382,0.053711,0.990447,-0.127002,0.000000,0.000000,0.000000,-1,0.002097,-0.004172,0.010135,0.003128,-0.004897,-0.010449
"2019-05-05 22:57:53.377 +0000",1557097073.376990,0.401806,-1.431851,-2.476437,0.054164,0.990363,-0.127468,0.000000,0.000000,0.000000,-1,0.000831,-0.016478,0.009004,0.001897,-0.002600,-0.000767
"2019-05-05 22:57:53.399 +0000",1557097073.399300,0.403655,-1.431775,-2.474389,0.054430,0.990352,-0.127437,0.000000,0.000000,0.000000,-1,-0.002920,-0.005404,0.010145,0.002059,-0.000789,0.001201
"2019-05-05 22:57:53.422 +0000",1557097073.421575,0.405157,-1.431772,-2.472924,0.054622,0.990352,-0.127358,0.000000,0.000000,0.000000,-1,-0.000400,0.004443,0.011299,-0.002315,-0.001231,0.005685
"2019-05-05 22:57:53.444 +0000",1557097073.443885,0.405934,-1.432018,-2.472354,0.054625,0.990386,-0.127091,0.000000,0.000000,0.000000,-1,-0.000420,0.013030,0.005020,-0.003721,-0.001479,0.004731
"2019-05-05 22:57:53.466 +0000",1557097073.466192,0.406966,-1.432357,-2.471522,0.054623,0.990433,-0.126727,0.000000,0.000000,0.000000,-1,-0.011814,0.008084,0.007678,-0.003277,0.000473,0.001833
"2019-05-05 22:57:53.488 +0000",1557097073.488500,0.406652,-1.432732,-2.472071,0.054436,0.990484,-0.126402,0.000000,0.000000,0.000000,-1,-0.005567,0.017899,0.000150,-0.004616,-0.003653,0.001189
"2019-05-05 22:57:53.511 +0000",1557097073.510791,0.406036,-1.432323,-2.473093,0.054518,0.990428,-0.126808,0.000000,0.000000,0.000000,-1,0.008228,0.011755,0.000210,0.002245,-0.001491,-0.006111
"2019-05-05 22:57:53.533 +0000",1557097073.533087,0.406899,-1.432068,-2.471799,0.054728,0.990393,-0.126994,0.000000,0.000000,0.000000,-1,0.004469,-0.044794,0.010635,0.003942,-0.001242,-0.001913
"2019-05-05 22:57:53.555 +0000",1557097073.555394,0.409742,-1.431865,-2.467847,0.055169,0.990364,-0.127022,0.000000,0.000000,0.000000,-1,0.003199,-0.044808,0.006914,0.007469,-0.000451,0.003731
"2019-05-05 22:57:53.578 +0000",1557097073.577689,0.412262,-1.431831,-2.465222,0.055502,0.990360,-0.126913,0.000000,0.000000,0.000000,-1,-0.003035,0.014235,0.006388,0.005548,-0.001239,-0.003961
"2019-05-05 22:57:53.600 +0000",1557097073.600009,0.415729,-1.431394,-2.462244,0.056116,0.990299,-0.127115,0.000000,0.000000,0.000000,-1,-0.005532,0.021619,0.007563,0.006399,-0.004124,-0.007025
"2019-05-05 22:57:53.622 +0000",1557097073.622318,0.416817,-1.431156,-2.461324,0.056350,0.990266,-0.127271,0.000000,0.000000,0.000000,-1,-0.005554,0.003158,0.005246,0.000718,-0.004869,-0.009799
"2019-05-05 22:57:53.645 +0000",1557097073.644595,0.417694,-1.430904,-2.460334,0.056563,0.990231,-0.127449,0.000000,0.000000,0.000000,-1,0.005618,-0.007992,0.005485,-0.001159,-0.004467,-0.004005
"2019-05-05 22:57:53.667 +0000",1557097073.666903,0.417807,-1.430809,-2.460068,0.056616,0.990218,-0.127529,0.000000,0.000000,0.000000,-1,0.006862,-0.008001,0.003005,-0.000677,-0.003462,0.002956
"2019-05-05 22:57:53.689 +0000",1557097073.689211,0.418212,-1.430764,-2.459190,0.056685,0.990211,-0.127546,0.000000,0.000000,0.000000,-1,0.006846,-0.031373,0.003212,0.001161,-0.001839,0.003248
"2019-05-05 22:57:53.712 +0000",1557097073.711518,0.418078,-1.430759,-2.458252,0.056670,0.990211,-0.127558,0.000000,0.000000,0.000000,-1,-0.000683,-0.051049,0.005865,0.001023,0.001260,0.005335
"2019-05-05 22:57:53.734 +0000",1557097073.733803,0.418745,-1.431539,-2.456663,0.056441,0.990319,-0.126814,0.000000,0.000000,0.000000,-1,-0.009455,-0.027685,0.004412,-0.004622,0.003287,0.012114
"2019-05-05 22:57:53.756 +0000",1557097073.756103,0.419794,-1.432029,-2.455420,0.056376,0.990387,-0.126312,0.000000,0.000000,0.000000,-1,-0.008197,-0.004322,0.001724,-0.003550,-0.000260,0.010010
"2019-05-05 22:57:53.778 +0000",1557097073.778412,0.421310,-1.432715,-2.453862,0.056290,0.990482,-0.125607,0.000000,0.000000,0.000000,-1,-0.017001,-0.006805,-0.003220,-0.000840,-0.000232,0.009167
"2019-05-05 22:57:53.801 +0000",1557097073.800720,0.421396,-1.433021,-2.453069,0.056177,0.990524,-0.125326,0.000000,0.000000,0.000000,-1,-0.015766,-0.044933,-0.001640,-0.000894,-0.002822,0.003561
"2019-05-05 22:57:53.823 +0000",1557097073.823029,0.419938,-1.433071,-2.453330,0.055974,0.990531,-0.125362,0.000000,0.000000,0.000000,-1,-0.010856,-0.056067,-0.000169,0.000026,-0.004294,-0.003437
"2019-05-05 22:57:53.845 +0000",1557097073.845336,0.419278,-1.432944,-2.452660,0.055943,0.990513,-0.125514,0.000000,0.000000,0.000000,-1,-0.004575,-0.058515,0.002337,0.003628,-0.001347,-0.002858
"2019-05-05 22:57:53.868 +0000",1557097073.867614,0.418927,-1.432787,-2.452086,0.055961,0.990492,-0.125675,0.000000,0.000000,0.000000,-1,0.001710,-0.030224,0.000848,0.006844,-0.000944,-0.000591
"2019-05-05 22:57:53.890 +0000",1557097073.889922,0.421360,-1.432370,-2.449588,0.056436,0.990434,-0.125915,0.000000,0.000000,0.000000,-1,0.002997,0.002999,0.003036,0.007590,-0.003221,-0.003113
"2019-05-05 22:57:53.912 +0000",1557097073.912229,0.424688,-1.431883,-2.446205,0.057053,0.990367,-0.126166,0.000000,0.000000,0.000000,-1,-0.000775,-0.011764,0.003167,0.009796,-0.004649,-0.004617
"2019-05-05 22:57:53.935 +0000",1557097073.934537,0.427319,-1.431696,-2.443222,0.057462,0.990341,-0.126184,0.000000,0.000000,0.000000,-1,-0.009542,-0.014213,0.006908,0.013110,-0.003571,-0.003531
"2019-05-05 22:57:53.957 +0000",1557097073.956810,0.429636,-1.431680,-2.440862,0.057761,0.990339,-0.126066,0.000000,0.000000,0.000000,-1,-0.004526,0.005457,0.003015,0.003045,0.000536,-0.000689
"2019-05-05 22:57:53.979 +0000",1557097073.979124,0.430232,-1.431533,-2.440574,0.057897,0.990318,-0.126163,0.000000,0.000000,0.000000,-1,0.006769,0.014072,0.002943,0.000758,-0.001442,-0.003399
"2019-05-05 22:57:54.001 +0000",1557097074.001431,0.428825,-1.431229,-2.442363,0.057844,0.990276,-0.126519,0.000000,0.000000,0.000000,-1,-0.002105,0.017704,0.003029,-0.004362,-0.003628,-0.002876
"2019-05-05 22:57:54.024 +0000",1557097074.023738,0.429224,-1.431128,-2.442144,0.057936,0.990262,-0.126586,0.000000,0.000000,0.000000,-1,0.007913,-0.000749,0.001957,-0.003371,-0.003537,-0.002061
"2019-05-05 22:57:54.046 +0000",1557097074.046047,0.429300,-1.431027,-2.441929,0.057988,0.990248,-0.126674,0.000000,0.000000,0.000000,-1,0.006669,-0.008115,0.005743,0.000148,-0.000899,0.001780
"2019-05-05 22:57:54.068 +0000",1557097074.068324,0.431188,-1.431134,-2.439991,0.058182,0.990263,-0.126467,0.000000,0.000000,0.000000,-1,0.005420,0.001725,0.005656,0.000793,-0.000288,0.007616
"2019-05-05 22:57:54.091 +0000",1557097074.090633,0.432098,-1.431045,-2.439243,0.058334,0.990251,-0.126494,0.000000,0.000000,0.000000,-1,-0.002086,0.010347,0.009298,-0.001343,-0.003388,0.006178
"2019-05-05 22:57:54.113 +0000",1557097074.112940,0.432082,-1.431124,-2.439375,0.058299,0.990262,-0.126424,0.000000,0.000000,0.000000,-1,-0.000856,0.002948,0.004401,-0.004466,-0.002682,0.000371
"2019-05-05 22:57:54.135 +0000",1557097074.135247,0.431298,-1.431010,-2.439838,0.058248,0.990246,-0.126572,0.000000,0.000000,0.000000,-1,0.004152,-0.026563,0.007146,-0.003423,-0.002590,-0.001113
"2019-05-05 22:57:54.158 +0000",1557097074.157556,0.430947,-1.431093,-2.439630,0.058169,0.990257,-0.126518,0.000000,0.000000,0.000000,-1,0.002892,-0.011816,0.003293,-0.001406,0.000465,0.005546
"2019-05-05 22:57:54.180 +0000",1557097074.179828,0.432205,-1.431361,-2.438565,0.058217,0.990295,-0.126204,0.000000,0.000000,0.000000,-1,0.001559,0.015194,0.000677,0.000896,-0.002303,0.006117
"2019-05-05 22:57:54.202 +0000",1557097074.202142,0.433059,-1.431345,-2.438018,0.058331,0.990292,-0.126168,0.000000,0.000000,0.000000,-1,-0.003472,0.010262,-0.001762,0.002002,-0.002744,0.000192
"2019-05-05 22:57:54.224 +0000",1557097074.224450,0.434256,-1.431295,-2.436835,0.058503,0.990285,-0.126143,0.000000,0.000000,0.000000,-1,-0.002211,-0.003255,0.002081,0.001327,-0.002279,-0.000245
"2019-05-05 22:57:54.247 +0000",1557097074.246759,0.434337,-1.431282,-2.436618,0.058519,0.990284,-0.126151,0.000000,0.000000,0.000000,-1,0.001535,-0.005728,-0.001618,0.001570,-0.003070,0.000159
"2019-05-05 22:57:54.269 +0000",1557097074.269034,0.433391,-1.431438,-2.437439,0.058334,0.990305,-0.126065,0.000000,0.000000,0.000000,-1,-0.002216,-0.003259,0.000839,-0.003693,-0.003718,0.002088
"2019-05-05 22:57:54.291 +0000",1557097074.291342,0.432952,-1.431668,-2.437834,0.058184,0.990337,-0.125884,0.000000,0.000000,0.000000,-1,-0.004741,-0.004505,-0.002872,-0.002642,-0.003475,0.003494
"2019-05-05 22:57:54.314 +0000",1557097074.313639,0.432806,-1.431769,-2.437957,0.058123,0.990351,-0.125802,0.000000,0.000000,0.000000,-1,-0.004749,-0.000824,-0.005386,-0.001361,0.000921,0.003884
"2019-05-05 22:57:54.336 +0000",1557097074.335953,0.430709,-1.431980,-2.440016,0.057772,0.990381,-0.125733,0.000000,0.000000,0.000000,-1,-0.001006,0.000389,-0.010358,-0.004793,-0.003274,0.000413
"2019-05-05 22:57:54.358 +0000",1557097074.358254,0.429710,-1.431963,-2.441070,0.057653,0.990378,-0.125806,0.000000,0.000000,0.000000,-1,0.001453,0.004072,-0.004128,-0.000830,-0.004050,-0.001406
"2019-05-05 22:57:54.381 +0000",1557097074.380532,0.429323,-1.431738,-2.441464,0.057697,0.990347,-0.126031,0.000000,0.000000,0.000000,-1,0.010242,-0.005751,-0.000315,0.002651,0.000437,-0.002189
"2019-05-05 22:57:54.403 +0000",1557097074.402861,0.430332,-1.431599,-2.440285,0.057882,0.990328,-0.126099,0.000000,0.000000,0.000000,-1,0.007717,-0.015602,-0.002710,0.002863,-0.002901,0.003204
"2019-05-05 22:57:54.425 +0000",1557097074.425148,0.430894,-1.431627,-2.439502,0.057941,0.990332,-0.126040,0.000000,0.000000,0.000000,-1,0.003968,-0.008213,-0.000296,0.001782,-0.002951,0.002657
"2019-05-05 22:57:54.447 +0000",1557097074.447455,0.431385,-1.431581,-2.439081,0.058022,0.990325,-0.126053,0.000000,0.000000,0.000000,-1,0.003985,0.010243,0.000781,0.001197,-0.002456,-0.000121
"2019-05-05 22:57:54.470 +0000",1557097074.469742,0.430666,-1.431436,-2.439988,0.057992,0.990305,-0.126226,0.000000,0.000000,0.000000,-1,0.007713,0.002836,-0.006594,0.000602,-0.005015,-0.002299
"2019-05-05 22:57:54.492 +0000",1557097074.492042,0.430143,-1.431477,-2.440551,0.057908,0.990311,-0.126219,0.000000,0.000000,0.000000,-1,0.001442,0.002833,-0.006597,0.001814,-0.001129,0.002455
"2019-05-05 22:57:54.514 +0000",1557097074.514350,0.431208,-1.431526,-2.439799,0.058023,0.990318,-0.126113,0.000000,0.000000,0.000000,-1,-0.001046,0.020063,-0.004270,0.003562,0.002480,0.001876
"2019-05-05 22:57:54.537 +0000",1557097074.536659,0.431534,-1.431561,-2.440047,0.058049,0.990322,-0.126063,0.000000,0.000000,0.000000,-1,0.001418,0.024988,-0.000503,0.004634,-0.001232,-0.002279
"2019-05-05 22:57:54.559 +0000",1557097074.558966,0.433859,-1.431198,-2.438112,0.058493,0.990272,-0.126254,0.000000,0.000000,0.000000,-1,-0.001082,0.015160,0.003306,0.005288,-0.003730,-0.002088
"2019-05-05 22:57:54.581 +0000",1557097074.581273,0.433209,-1.430970,-2.439097,0.058506,0.990240,-0.126497,0.000000,0.000000,0.000000,-1,0.003903,0.018819,-0.005408,-0.001453,-0.005163,-0.004744
"2019-05-05 22:57:54.604 +0000",1557097074.603551,0.431861,-1.430969,-2.440733,0.058336,0.990240,-0.126577,0.000000,0.000000,0.000000,-1,-0.003614,0.008990,-0.001603,-0.006151,-0.006811,-0.002070
"2019-05-05 22:57:54.626 +0000",1557097074.625855,0.429476,-1.431095,-2.443245,0.057982,0.990258,-0.126601,0.000000,0.000000,0.000000,-1,0.001386,0.005287,-0.005290,-0.004820,-0.000817,0.001113
"2019-05-05 22:57:54.648 +0000",1557097074.648166,0.427455,-1.431143,-2.445312,0.057706,0.990264,-0.126675,0.000000,0.000000,0.000000,-1,0.003886,-0.000867,-0.006475,-0.004438,-0.000091,0.000912
"2019-05-05 22:57:54.670 +0000",1557097074.670474,0.426966,-1.431537,-2.445770,0.057483,0.990319,-0.126348,0.000000,0.000000,0.000000,-1,-0.004896,-0.002101,-0.006468,-0.001285,0.001640,0.006338
"2019-05-05 22:57:54.693 +0000",1557097074.692779,0.427281,-1.431908,-2.445487,0.057370,0.990371,-0.125996,0.000000,0.000000,0.000000,-1,-0.006144,0.001594,-0.005261,-0.001553,0.002488,0.006809
"2019-05-05 22:57:54.715 +0000",1557097074.715060,0.426365,-1.432276,-2.446428,0.057104,0.990421,-0.125717,0.000000,0.000000,0.000000,-1,0.001336,0.001611,-0.002699,-0.003927,-0.002644,0.002792
"2019-05-05 22:57:54.737 +0000",1557097074.737368,0.425916,-1.432311,-2.446827,0.057033,0.990426,-0.125710,0.000000,0.000000,0.000000,-1,-0.003687,-0.007002,-0.002624,-0.000423,-0.000695,-0.002265
"2019-05-05 22:57:54.760 +0000",1557097074.759676,0.425140,-1.432471,-2.447072,0.056870,0.990448,-0.125610,0.000000,0.000000,0.000000,-1,-0.006232,-0.031625,-0.007369,-0.000596,-0.003281,-0.004135
"2019-05-05 22:57:54.782 +0000",1557097074.781985,0.422512,-1.432474,-2.449145,0.056539,0.990449,-0.125756,0.000000,0.000000,0.000000,-1,0.001305,-0.024236,-0.006191,-0.000341,-0.006104,-0.002311
"2019-05-05 22:57:54.804 +0000",1557097074.804262,0.422297,-1.432397,-2.449141,0.056543,0.990438,-0.125838,0.000000,0.000000,0.000000,-1,0.000065,-0.009470,-0.005082,0.004233,-0.000189,-0.001314
"2019-05-05 22:57:54.827 +0000",1557097074.826574,0.423719,-1.432420,-2.447676,0.056712,0.990441,-0.125737,0.000000,0.000000,0.000000,-1,-0.008709,0.000367,-0.005172,0.005513,0.002311,-0.000194
"2019-05-05 22:57:54.849 +0000",1557097074.848883,0.424556,-1.432120,-2.447074,0.056940,0.990400,-0.125960,0.000000,0.000000,0.000000,-1,-0.008692,0.016364,-0.004072,0.006567,-0.005643,-0.005433
"2019-05-05 22:57:54.871 +0000",1557097074.871185,0.425822,-1.431954,-2.446298,0.057167,0.990377,-0.126037,0.000000,0.000000,0.000000,-1,-0.008658,0.021313,0.003328,0.007393,-0.009832,-0.010468
"2019-05-05 22:57:54.893 +0000",1557097074.893494,0.425844,-1.431087,-2.446494,0.057525,0.990256,-0.126819,0.000000,0.000000,0.000000,-1,0.003811,0.000414,-0.000135,0.005265,-0.011771,-0.014630
"2019-05-05 22:57:54.916 +0000",1557097074.915760,0.424310,-1.430736,-2.447708,0.057473,0.990207,-0.127224,0.000000,0.000000,0.000000,-1,0.020111,-0.025401,0.002582,-0.000879,0.000713,0.002178
"2019-05-05 22:57:54.938 +0000",1557097074.938078,0.423720,-1.430563,-2.447564,0.057469,0.990183,-0.127414,0.000000,0.000000,0.000000,-1,0.013847,-0.035230,0.006389,-0.000187,0.004491,0.008731
"2019-05-05 22:57:54.960 +0000",1557097074.960386,0.426898,-1.431122,-2.444152,0.057644,0.990261,-0.126726,0.000000,0.000000,0.000000,-1,0.005084,0.002895,0.004806,0.001560,0.004017,0.019670
"2019-05-05 22:57:54.983 +0000",1557097074.982695,0.427385,-1.431005,-2.444154,0.057754,0.990245,-0.126803,0.000000,0.000000,0.000000,-1,0.006334,0.027479,-0.000374,-0.006148,0.001713,0.020556
"2019-05-05 22:57:55.005 +0000",1557097075.005003,0.426322,-1.431673,-2.445610,0.057346,0.990338,-0.126262,0.000000,0.000000,0.000000,-1,-0.001223,0.006549,-0.003914,-0.008243,-0.003293,0.010036
"2019-05-05 22:57:55.027 +0000",1557097075.027273,0.422092,-1.432209,-2.449211,0.056594,0.990412,-0.126020,0.000000,0.000000,0.000000,-1,-0.005069,-0.051311,-0.014568,-0.007613,0.000539,0.003110
"2019-05-05 22:57:55.050 +0000",1557097075.049587,0.418669,-1.432720,-2.451700,0.055956,0.990483,-0.125751,0.000000,0.000000,0.000000,-1,-0.008814,-0.021790,-0.014833,-0.007067,0.002987,0.008075
"2019-05-05 22:57:55.072 +0000",1557097075.071894,0.416404,-1.433174,-2.454164,0.055489,0.990545,-0.125466,0.000000,0.000000,0.000000,-1,-0.015096,0.018837,-0.013898,-0.001229,-0.002905,-0.002342
"2019-05-05 22:57:55.094 +0000",1557097075.094204,0.414866,-1.433411,-2.456088,0.055201,0.990578,-0.125335,0.000000,0.000000,0.000000,-1,-0.012582,0.011467,-0.011350,-0.001201,-0.005989,-0.008621
"2019-05-05 22:57:55.116 +0000",1557097075.116481,0.413177,-1.432950,-2.457673,0.055173,0.990514,-0.125847,0.000000,0.000000,0.000000,-1,-0.007568,-0.014354,-0.008637,0.005450,-0.007177,-0.013847
"2019-05-05 22:57:55.139 +0000",1557097075.138780,0.412667,-1.432267,-2.457941,0.055380,0.990420,-0.126495,0.000000,0.000000,0.000000,-1,0.002467,-0.008203,-0.009927,0.009485,-0.002810,-0.011399
"2019-05-05 22:57:55.161 +0000",1557097075.161096,0.413041,-1.432036,-2.457766,0.055519,0.990388,-0.126684,0.000000,0.000000,0.000000,-1,-0.003753,0.022576,-0.002759,0.009895,-0.004426,-0.009120
"2019-05-05 22:57:55.183 +0000",1557097075.183406,0.416372,-1.431377,-2.455280,0.056205,0.990297,-0.127095,0.000000,0.000000,0.000000,-1,-0.007487,0.042271,0.000789,0.012109,-0.006853,-0.012050
"2019-05-05 22:57:55.206 +0000",1557097075.205713,0.417807,-1.431510,-2.454477,0.056334,0.990315,-0.126893,0.000000,0.000000,0.000000,-1,-0.004982,0.020139,0.003467,0.006349,-0.003087,-0.015456
"2019-05-05 22:57:55.228 +0000",1557097075.227990,0.416251,-1.430943,-2.456408,0.056363,0.990236,-0.127495,0.000000,0.000000,0.000000,-1,0.006291,0.016439,-0.000217,-0.000440,-0.000216,-0.005760
"2019-05-05 22:57:55.250 +0000",1557097075.250316,0.417392,-1.431097,-2.455676,0.056447,0.990258,-0.127291,0.000000,0.000000,0.000000,-1,-0.000006,0.023862,0.002248,0.002192,-0.003152,0.009066
"2019-05-05 22:57:55.273 +0000",1557097075.272606,0.419246,-1.431192,-2.454735,0.056645,0.990271,-0.127101,0.000000,0.000000,0.000000,-1,-0.007513,0.052152,0.001993,-0.002095,-0.005209,0.008113
"2019-05-05 22:57:55.295 +0000",1557097075.294914,0.417925,-1.431140,-2.457069,0.056498,0.990264,-0.127222,0.000000,0.000000,0.000000,-1,0.003773,0.039860,0.003347,-0.004953,-0.002746,-0.003118
"2019-05-05 22:57:55.317 +0000",1557097075.317222,0.416914,-1.431040,-2.458605,0.056409,0.990250,-0.127369,0.000000,0.000000,0.000000,-1,0.009987,0.012762,-0.006335,-0.002911,-0.001450,-0.002071
"2019-05-05 22:57:55.340 +0000",1557097075.339501,0.415670,-1.430899,-2.460040,0.056307,0.990230,-0.127567,0.000000,0.000000,0.000000,-1,0.005010,0.011568,0.003598,0.000120,-0.000026,0.003574
"2019-05-05 22:57:55.362 +0000",1557097075.361801,0.418061,-1.431233,-2.458118,0.056477,0.990277,-0.127130,0.000000,0.000000,0.000000,-1,-0.000005,0.026323,0.002225,-0.001240,0.001178,0.008920
"2019-05-05 22:57:55.384 +0000",1557097075.384115,0.419861,-1.431607,-2.456898,0.056555,0.990329,-0.126690,0.000000,0.000000,0.000000,-1,-0.011286,0.023867,0.004723,-0.001654,0.001187,0.007000
"2019-05-05 22:57:55.406 +0000",1557097075.406424,0.420992,-1.432154,-2.456311,0.056477,0.990404,-0.126132,0.000000,0.000000,0.000000,-1,-0.011295,0.026318,0.002219,-0.002140,-0.001467,0.005419
"2019-05-05 22:57:55.429 +0000",1557097075.428733,0.421869,-1.432409,-2.456074,0.056484,0.990440,-0.125852,0.000000,0.000000,0.000000,-1,-0.010111,0.034924,-0.007733,-0.002132,0.000710,0.005170
"2019-05-05 22:57:55.451 +0000",1557097075.451017,0.422213,-1.432768,-2.456726,0.056382,0.990489,-0.125507,0.000000,0.000000,0.000000,-1,-0.013848,0.052159,-0.004166,-0.002579,-0.005199,-0.001202
"2019-05-05 22:57:55.473 +0000",1557097075.473317,0.422032,-1.432847,-2.457690,0.056327,0.990500,-0.125446,0.000000,0.000000,0.000000,-1,-0.021383,0.021412,-0.001416,-0.001609,-0.008139,-0.006725
"2019-05-05 22:57:55.496 +0000",1557097075.495625,0.422317,-1.432903,-2.457484,0.056340,0.990508,-0.125380,0.000000,0.000000,0.000000,-1,-0.008838,-0.001940,0.002518,-0.002171,-0.004454,-0.003343
"2019-05-05 22:57:55.518 +0000",1557097075.517917,0.422845,-1.433410,-2.457066,0.056200,0.990577,-0.124892,0.000000,0.000000,0.000000,-1,-0.000060,0.012815,-0.000090,-0.001833,-0.000312,0.008147
"2019-05-05 22:57:55.540 +0000",1557097075.540210,0.424702,-1.433718,-2.455991,0.056306,0.990619,-0.124510,0.000000,0.000000,0.000000,-1,-0.010061,0.042348,0.003365,0.000014,0.001675,0.007094
"2019-05-05 22:57:55.563 +0000",1557097075.562519,0.427543,-1.433951,-2.454064,0.056564,0.990651,-0.124140,0.000000,0.000000,0.000000,-1,-0.011319,0.037428,0.003408,0.002289,0.001628,0.002313
"2019-05-05 22:57:55.585 +0000",1557097075.584813,0.428488,-1.434290,-2.453685,0.056542,0.990698,-0.123780,0.000000,0.000000,0.000000,-1,-0.016340,0.015293,0.006083,-0.004845,-0.005926,0.001847
"2019-05-05 22:57:55.607 +0000",1557097075.607134,0.428870,-1.434771,-2.453398,0.056391,0.990763,-0.123325,0.000000,0.000000,0.000000,-1,-0.013913,0.002991,-0.003683,-0.005823,-0.004892,0.002949
"2019-05-05 22:57:55.629 +0000",1557097075.629441,0.427178,-1.435406,-2.455277,0.055921,0.990849,-0.122848,0.000000,0.000000,0.000000,-1,-0.008901,0.011594,-0.006239,-0.007795,-0.002583,0.004150
"2019-05-05 22:57:55.652 +0000",1557097075.651743,0.425810,-1.435847,-2.456884,0.055573,0.990908,-0.122527,0.000000,0.000000,0.000000,-1,-0.010169,0.006664,-0.008678,-0.005753,0.000166,0.005492
"2019-05-05 22:57:55.674 +0000",1557097075.674028,0.425044,-1.436318,-2.457673,0.055287,0.990971,-0.122144,0.000000,0.000000,0.000000,-1,-0.012680,-0.003174,-0.007351,-0.004948,0.000713,0.004743
"2019-05-05 22:57:55.696 +0000",1557097075.696335,0.423772,-1.436912,-2.458837,0.054889,0.991051,-0.121677,0.000000,0.000000,0.000000,-1,-0.016429,-0.004391,-0.003621,-0.005527,-0.000038,0.003010
"2019-05-05 22:57:55.719 +0000",1557097075.718644,0.422832,-1.437237,-2.459481,0.054642,0.991094,-0.121435,0.000000,0.000000,0.000000,-1,-0.007659,-0.013003,-0.004782,-0.002045,-0.001608,-0.001139
"2019-05-05 22:57:55.741 +0000",1557097075.740952,0.423319,-1.437355,-2.458735,0.054654,0.991110,-0.121302,0.000000,0.000000,0.000000,-1,-0.012659,-0.010530,-0.001084,0.002201,-0.005194,-0.001165
"2019-05-05 22:57:55.763 +0000",1557097075.763229,0.423726,-1.437251,-2.457972,0.054745,0.991096,-0.121373,0.000000,0.000000,0.000000,-1,-0.006382,-0.019129,0.001476,0.002536,-0.002555,-0.007304
"2019-05-05 22:57:55.786 +0000",1557097075.785537,0.423222,-1.437144,-2.458160,0.054728,0.991082,-0.121497,0.000000,0.000000,0.000000,-1,-0.001412,-0.012975,-0.004737,0.001715,-0.001366,-0.008675
"2019-05-05 22:57:55.808 +0000",1557097075.807832,0.423897,-1.436704,-2.456959,0.054989,0.991023,-0.121858,0.000000,0.000000,0.000000,-1,0.004851,-0.036339,-0.003286,0.007267,-0.003047,-0.001937
"2019-05-05 22:57:55.830 +0000",1557097075.830153,0.424799,-1.436624,-2.455220,0.055131,0.991012,-0.121880,0.000000,0.000000,0.000000,-1,-0.008921,-0.035091,0.002901,0.006590,-0.001465,0.000344
"2019-05-05 22:57:55.852 +0000",1557097075.852438,0.426348,-1.436576,-2.453312,0.055340,0.991006,-0.121838,0.000000,0.000000,0.000000,-1,-0.007651,-0.010488,0.002683,0.000995,-0.004113,-0.001666
"2019-05-05 22:57:55.875 +0000",1557097075.874738,0.426410,-1.436588,-2.453069,0.055343,0.991008,-0.121825,0.000000,0.000000,0.000000,-1,-0.001388,-0.009265,0.000194,-0.003539,-0.001033,-0.000398
"2019-05-05 22:57:55.897 +0000",1557097075.897045,0.424790,-1.436588,-2.454365,0.055145,0.991008,-0.121914,0.000000,0.000000,0.000000,-1,0.006141,-0.012947,0.001470,-0.003372,0.001241,-0.002201
"2019-05-05 22:57:55.919 +0000",1557097075.919354,0.423755,-1.436511,-2.455307,0.055051,0.990997,-0.122040,0.000000,0.000000,0.000000,-1,0.002378,-0.004343,0.000151,-0.001248,0.002152,-0.001403
"2019-05-05 22:57:55.942 +0000",1557097075.941661,0.423689,-1.436366,-2.455251,0.055102,0.990978,-0.122175,0.000000,0.000000,0.000000,-1,0.002392,-0.008018,0.003906,0.000303,-0.000652,-0.002871
"2019-05-05 22:57:55.964 +0000",1557097075.963944,0.423817,-1.435895,-2.454362,0.055309,0.990915,-0.122593,0.000000,0.000000,0.000000,-1,-0.001415,-0.041201,0.004244,0.004322,-0.005914,-0.005672
"2019-05-05 22:57:55.986 +0000",1557097075.986247,0.424560,-1.435706,-2.453143,0.055477,0.990889,-0.122723,0.000000,0.000000,0.000000,-1,-0.002646,-0.005528,0.003927,0.003254,-0.001937,-0.001850
"2019-05-05 22:57:56.009 +0000",1557097076.008555,0.425599,-1.435624,-2.452335,0.055638,0.990878,-0.122739,0.000000,0.000000,0.000000,-1,0.003626,0.017833,0.000001,0.002406,-0.000781,-0.000857
"2019-05-05 22:57:56.031 +0000",1557097076.030838,0.426001,-1.435310,-2.452390,0.055816,0.990836,-0.123000,0.000000,0.000000,0.000000,-1,-0.007645,0.020303,0.003696,0.001038,-0.005423,-0.007630
"2019-05-05 22:57:56.053 +0000",1557097076.053171,0.426256,-1.435057,-2.452321,0.055951,0.990802,-0.123215,0.000000,0.000000,0.000000,-1,0.001121,-0.001836,0.003896,0.001528,-0.003604,-0.007309
"2019-05-05 22:57:56.075 +0000",1557097076.075461,0.426746,-1.434924,-2.451619,0.056066,0.990784,-0.123307,0.000000,0.000000,0.000000,-1,-0.007674,-0.010460,0.001488,0.001078,-0.000137,-0.000137
"2019-05-05 22:57:56.098 +0000",1557097076.097756,0.427195,-1.435081,-2.451359,0.056057,0.990805,-0.123140,0.000000,0.000000,0.000000,-1,-0.010182,0.021503,-0.003759,0.000065,0.001032,0.003405
"2019-05-05 22:57:56.120 +0000",1557097076.120065,0.429562,-1.435586,-2.449902,0.056140,0.990873,-0.122552,0.000000,0.000000,0.000000,-1,-0.020186,0.046116,-0.000260,-0.000888,-0.001844,0.000283
"2019-05-05 22:57:56.142 +0000",1557097076.142373,0.430259,-1.435717,-2.450040,0.056171,0.990891,-0.122395,0.000000,0.000000,0.000000,-1,-0.011435,0.030144,-0.000071,-0.000690,-0.003159,-0.004802
"2019-05-05 22:57:56.165 +0000",1557097076.164680,0.430833,-1.435719,-2.449942,0.056241,0.990891,-0.122361,0.000000,0.000000,0.000000,-1,-0.008935,0.022760,-0.001245,-0.000134,-0.004486,-0.005538
"2019-05-05 22:57:56.187 +0000",1557097076.186957,0.431705,-1.435670,-2.449497,0.056368,0.990884,-0.122356,0.000000,0.000000,0.000000,-1,0.002357,0.019079,0.000033,0.000822,-0.002542,0.000530
"2019-05-05 22:57:56.209 +0000",1557097076.209265,0.432983,-1.435884,-2.448673,0.056435,0.990913,-0.122091,0.000000,0.000000,0.000000,-1,-0.007661,0.030156,0.002411,-0.001351,-0.001808,0.003759
"2019-05-05 22:57:56.232 +0000",1557097076.231573,0.434738,-1.436054,-2.447915,0.056578,0.990936,-0.121839,0.000000,0.000000,0.000000,-1,-0.000130,0.046146,0.001032,-0.001387,-0.001861,0.000119
"2019-05-05 22:57:56.254 +0000",1557097076.253855,0.435238,-1.436045,-2.448049,0.056643,0.990935,-0.121819,0.000000,0.000000,0.000000,-1,-0.005160,0.017856,0.002522,0.000394,-0.001860,-0.000801
"2019-05-05 22:57:56.276 +0000",1557097076.276173,0.436347,-1.436236,-2.447178,0.056698,0.990960,-0.121584,0.000000,0.000000,0.000000,-1,-0.003918,0.006781,0.001380,0.000324,0.000510,0.003008
"2019-05-05 22:57:56.298 +0000",1557097076.298468,0.437863,-1.436729,-2.445955,0.056675,0.991026,-0.121056,0.000000,0.000000,0.000000,-1,-0.007669,0.019085,0.002509,-0.001515,0.000993,0.007683
"2019-05-05 22:57:56.321 +0000",1557097076.320774,0.438976,-1.436765,-2.445364,0.056795,0.991031,-0.120961,0.000000,0.000000,0.000000,-1,-0.001408,0.027689,0.001236,-0.004060,0.000180,0.010945
"2019-05-05 22:57:56.343 +0000",1557097076.343077,0.440744,-1.437683,-2.444771,0.056620,0.991153,-0.120037,0.000000,0.000000,0.000000,-1,-0.005154,0.073192,-0.001651,-0.006602,-0.001148,0.013027
