timestamp,timeIntervalSince1970,attitude.roll,attitude.pitch,attitude.yaw,gravity.x,gravity.y,gravity.z,magneticField.x,magneticField.y,magneticField.z,magneticField.accuracy,rotationRate.x,rotationRate.y,rotationRate.z,userAcceleration.x,userAcceleration.y,userAcceleration.z
"2019-10-08 08:53:49.898 +0000",1570524829.898499,0.045453,0.736476,-0.011846,0.033662,-0.671681,-0.740075,0.000000,0.000000,0.000000,-1,0.127643,-1.278002,1.517050,-0.126100,0.336919,-0.061332
"2019-10-08 08:53:49.921 +0000",1570524829.920803,-0.044832,0.740467,0.049879,-0.033082,-0.674632,-0.737412,0.000000,0.000000,0.000000,-1,0.240439,-2.980885,2.371862,-0.319121,0.372753,-0.228179
"2019-10-08 08:53:49.943 +0000",1570524829.943085,-0.166946,0.745310,0.138181,-0.122116,-0.678200,-0.724661,0.000000,0.000000,0.000000,-1,0.685534,-2.585155,3.179854,-0.201569,0.339119,-0.169687
"2019-10-08 08:53:49.965 +0000",1570524829.965394,-0.307278,0.746807,0.246779,-0.221967,-0.679299,-0.699488,0.000000,0.000000,0.000000,-1,1.031751,-3.515657,3.648503,-0.251238,0.523278,0.172922
"2019-10-08 08:53:49.988 +0000",1570524829.987700,-0.516583,0.738583,0.384655,-0.365210,-0.673241,-0.642937,0.000000,0.000000,0.000000,-1,1.868509,-6.214952,4.744649,-0.080438,0.493248,0.117593
"2019-10-08 08:53:50.010 +0000",1570524830.009978,-0.722348,0.719877,0.531684,-0.497108,-0.659292,-0.564107,0.000000,0.000000,0.000000,-1,2.057071,-3.170595,4.333138,0.200264,0.642096,0.058294
"2019-10-08 08:53:50.032 +0000",1570524830.032274,-0.876355,0.663607,0.679032,-0.605336,-0.615962,-0.504142,0.000000,0.000000,0.000000,-1,1.869042,-3.018326,5.876180,0.218846,0.746425,0.293098
"2019-10-08 08:53:50.055 +0000",1570524830.054594,-1.027907,0.573491,0.815944,-0.719235,-0.542568,-0.433960,0.000000,0.000000,0.000000,-1,1.564665,-3.212328,6.321885,0.301587,0.858409,0.276475
"2019-10-08 08:53:50.077 +0000",1570524830.076872,-1.145097,0.459349,0.909476,-0.816343,-0.443365,-0.370151,0.000000,0.000000,0.000000,-1,0.352957,-3.038239,5.982393,0.001585,0.744497,0.168003
"2019-10-08 08:53:50.099 +0000",1570524830.099181,-1.219379,0.352346,0.955706,-0.881206,-0.345100,-0.323081,0.000000,0.000000,0.000000,-1,-0.025163,-2.314715,4.799776,-0.086384,0.564583,0.114723
"2019-10-08 08:53:50.121 +0000",1570524830.121465,-1.291654,0.256819,1.002162,-0.929764,-0.254005,-0.266495,0.000000,0.000000,0.000000,-1,0.980000,-2.828940,4.684439,-0.219589,0.501365,-0.410385
"2019-10-08 08:53:50.144 +0000",1570524830.143765,-1.368011,0.163600,1.064182,-0.966430,-0.162871,-0.198709,0.000000,0.000000,0.000000,-1,2.003401,-2.689728,4.625337,-0.201584,0.536955,-0.633078
"2019-10-08 08:53:50.166 +0000",1570524830.166074,-1.418805,0.078674,1.128614,-0.985414,-0.078593,-0.150938,0.000000,0.000000,0.000000,-1,2.079241,-1.510110,3.953689,-0.352522,0.444194,-0.576326
"2019-10-08 08:53:50.188 +0000",1570524830.188361,-1.445759,0.008664,1.175022,-0.992156,-0.008664,-0.124707,0.000000,0.000000,0.000000,-1,1.298317,-0.836123,3.047980,-0.632295,0.267530,0.067929
"2019-10-08 08:53:50.211 +0000",1570524830.210688,-1.444250,-0.043181,1.195918,-0.991079,0.043168,-0.126092,0.000000,0.000000,0.000000,-1,0.290645,0.672776,2.072735,-0.658762,0.199935,0.135552
"2019-10-08 08:53:50.233 +0000",1570524830.232966,-1.413399,-0.082280,1.201322,-0.984297,0.082187,-0.156218,0.000000,0.000000,0.000000,-1,-0.076628,1.612128,1.668507,-0.547960,0.138730,0.134276
"2019-10-08 08:53:50.255 +0000",1570524830.255267,-1.379630,-0.115929,1.211791,-0.975193,0.115669,-0.188729,0.000000,0.000000,0.000000,-1,0.425305,1.240071,1.471057,-0.247051,0.181145,-0.304114
"2019-10-08 08:53:50.278 +0000",1570524830.277583,-1.362507,-0.135789,1.235935,-0.969380,0.135372,-0.204883,0.000000,0.000000,0.000000,-1,1.191070,0.298184,0.856994,-0.340724,0.113453,-0.427472
"2019-10-08 08:53:50.300 +0000",1570524830.299859,-1.354130,-0.143153,1.274465,-0.966630,0.142665,-0.212776,0.000000,0.000000,0.000000,-1,1.730626,0.140044,0.621686,-0.398177,0.136525,-0.409004
"2019-10-08 08:53:50.322 +0000",1570524830.322168,-1.338081,-0.147264,1.312131,-0.962512,0.146732,-0.228124,0.000000,0.000000,0.000000,-1,1.418230,0.658641,0.518946,-0.275235,0.099377,-0.194071
"2019-10-08 08:53:50.344 +0000",1570524830.344455,-1.319553,-0.151308,1.334950,-0.957538,0.150731,-0.245768,0.000000,0.000000,0.000000,-1,0.561691,0.539242,0.275252,-0.070416,-0.015264,0.359964
"2019-10-08 08:53:50.367 +0000",1570524830.366753,-1.324183,-0.149842,1.323794,-0.958878,0.149282,-0.241385,0.000000,0.000000,0.000000,-1,-1.037453,-0.491370,-0.438279,-0.142058,-0.050558,0.447364
"2019-10-08 08:53:50.389 +0000",1570524830.389061,-1.336317,-0.144567,1.290760,-0.962489,0.144064,-0.229913,0.000000,0.000000,0.000000,-1,-1.447022,-0.140565,-0.657423,-0.325017,-0.138952,0.833901
"2019-10-08 08:53:50.411 +0000",1570524830.411367,-1.347924,-0.132734,1.260459,-0.966688,0.132345,-0.219088,0.000000,0.000000,0.000000,-1,-0.965126,-0.469572,-0.854023,-0.007494,0.113841,-0.211408
"2019-10-08 08:53:50.434 +0000",1570524830.433646,-1.366789,-0.117397,1.244293,-0.972522,0.117127,-0.201201,0.000000,0.000000,0.000000,-1,-0.284266,-1.012898,-0.824098,0.100788,0.125945,-0.351320
"2019-10-08 08:53:50.456 +0000",1570524830.455955,-1.408314,-0.097186,1.244041,-0.982172,0.097033,-0.161005,0.000000,0.000000,0.000000,-1,0.350369,-2.398134,-0.914495,0.127360,0.159040,-0.516074
"2019-10-08 08:53:50.478 +0000",1570524830.478263,-1.469004,-0.076345,1.250905,-0.991926,0.076270,-0.101321,0.000000,0.000000,0.000000,-1,0.371679,-2.691954,-0.868458,0.029020,0.166268,-0.479337
"2019-10-08 08:53:50.501 +0000",1570524830.500539,-1.517915,-0.058015,1.252443,-0.996922,0.057982,-0.052767,0.000000,0.000000,0.000000,-1,0.031365,-1.930303,-0.783565,-0.024455,0.321824,-0.065031
"2019-10-08 08:53:50.523 +0000",1570524830.522846,-1.545922,-0.037630,1.252474,-0.998983,0.037621,-0.024854,0.000000,0.000000,0.000000,-1,0.012396,-0.734293,-1.022449,-0.027827,0.444801,0.142118
"2019-10-08 08:53:50.545 +0000",1570524830.545153,-1.549818,-0.013515,1.247612,-0.999689,0.013515,-0.020974,0.000000,0.000000,0.000000,-1,-0.293299,0.101887,-1.073422,-0.052206,0.607182,-0.102454
"2019-10-08 08:53:50.567 +0000",1570524830.567433,-1.537368,0.005875,1.238460,-0.999424,-0.005875,-0.033422,0.000000,0.000000,0.000000,-1,-0.444517,0.774769,-0.742033,0.373463,0.527985,0.068471
"2019-10-08 08:53:50.590 +0000",1570524830.589741,-1.516088,0.021165,1.227045,-0.998280,-0.021164,-0.054668,0.000000,0.000000,0.000000,-1,-0.509466,1.052838,-0.720958,0.411870,0.544296,0.039867
"2019-10-08 08:53:50.612 +0000",1570524830.612048,-1.486761,0.028168,1.212056,-0.996076,-0.028164,-0.083903,0.000000,0.000000,0.000000,-1,-0.706220,1.445005,-0.127824,0.084195,0.397686,-0.021200
"2019-10-08 08:53:50.634 +0000",1570524830.634348,-1.460211,0.024946,1.198571,-0.993582,-0.024944,-0.110326,0.000000,0.000000,0.000000,-1,-0.434571,0.833574,0.149398,-0.128549,0.272533,0.070394
"2019-10-08 08:53:50.657 +0000",1570524830.656633,-1.446377,0.022056,1.198644,-0.992029,-0.022054,-0.124068,0.000000,0.000000,0.000000,-1,0.031701,0.339242,0.147784,-0.105582,0.340139,0.119674
"2019-10-08 08:53:50.679 +0000",1570524830.678942,-1.449109,0.011412,1.192495,-0.992541,-0.011412,-0.121379,0.000000,0.000000,0.000000,-1,-0.527634,-0.316185,0.591273,-0.064390,0.358198,-0.042394
"2019-10-08 08:53:50.701 +0000",1570524830.701250,-1.459100,-0.002188,1.181832,-0.993766,0.002188,-0.111464,0.000000,0.000000,0.000000,-1,-0.447966,-0.469169,0.467370,0.091056,0.395441,-0.022142
"2019-10-08 08:53:50.724 +0000",1570524830.723527,-1.471876,-0.009848,1.172438,-0.995063,0.009848,-0.098755,0.000000,0.000000,0.000000,-1,-0.434164,-0.642457,0.189793,0.115913,0.301874,-0.299973
"2019-10-08 08:53:50.746 +0000",1570524830.745832,-1.498152,-0.005654,1.170496,-0.997347,0.005654,-0.072580,0.000000,0.000000,0.000000,-1,0.207206,-1.635004,-0.468533,-0.089339,0.240531,-0.291205
"2019-10-08 08:53:50.768 +0000",1570524830.768144,-1.536992,0.014686,1.189110,-0.999321,-0.014686,-0.033795,0.000000,0.000000,0.000000,-1,0.515461,-1.520799,-0.872591,-0.199806,0.235358,-0.392978
"2019-10-08 08:53:50.790 +0000",1570524830.790420,-1.565536,0.034719,1.174311,-0.999384,-0.034712,-0.005258,0.000000,0.000000,0.000000,-1,-0.890850,-0.678233,-1.060551,-0.128287,0.047819,0.107797
"2019-10-08 08:53:50.813 +0000",1570524830.812729,-1.569259,0.054632,1.153657,-0.998507,-0.054605,-0.001535,0.000000,0.000000,0.000000,-1,-0.891586,-0.136867,-0.716765,-0.079389,0.236154,0.154062
"2019-10-08 08:53:50.835 +0000",1570524830.835037,-1.587827,0.062730,1.138383,-0.997888,-0.062689,0.016997,0.000000,0.000000,0.000000,-1,-0.532556,-1.401494,-0.126053,0.481027,0.346685,0.032762
"2019-10-08 08:53:50.857 +0000",1570524830.857319,-1.631310,0.057647,1.130337,-0.996511,-0.057615,0.060376,0.000000,0.000000,0.000000,-1,-0.299671,-2.208337,0.521328,0.504522,0.223540,-0.234540
"2019-10-08 08:53:50.880 +0000",1570524830.879622,-1.684279,0.039157,1.125357,-0.992806,-0.039147,0.113153,0.000000,0.000000,0.000000,-1,0.047311,-2.391854,0.743922,0.483834,0.140832,-0.216485
"2019-10-08 08:53:50.902 +0000",1570524830.901929,-1.714447,0.031688,1.129009,-0.989203,-0.031682,0.143086,0.000000,0.000000,0.000000,-1,0.096011,-0.572550,0.076510,0.022391,0.287740,-0.365971
"2019-10-08 08:53:50.924 +0000",1570524830.924208,-1.710505,0.034325,1.131692,-0.989673,-0.034318,0.139172,0.000000,0.000000,0.000000,-1,0.126195,0.224669,-0.219883,-0.231991,0.252763,0.004596
"2019-10-08 08:53:50.947 +0000",1570524830.946533,-1.725193,0.043907,1.135527,-0.987152,-0.043892,0.153636,0.000000,0.000000,0.000000,-1,0.162018,-1.141614,-0.433518,-0.183502,0.345070,0.004278
"2019-10-08 08:53:50.969 +0000",1570524830.968822,-1.751692,0.051669,1.137993,-0.982370,-0.051646,0.179670,0.000000,0.000000,0.000000,-1,-0.004363,-1.153554,-0.321834,-0.091803,0.429484,-0.141554
"2019-10-08 08:53:50.991 +0000",1570524830.991131,-1.777035,0.055025,1.137612,-0.977327,-0.054998,0.204470,0.000000,0.000000,0.000000,-1,-0.083389,-1.125356,-0.019427,-0.049544,0.255056,-0.042177
"2019-10-08 08:53:51.013 +0000",1570524831.013407,-1.806959,0.041734,1.139299,-0.971396,-0.041722,0.233770,0.000000,0.000000,0.000000,-1,0.487438,-1.635329,1.013753,0.336310,0.266392,-0.099767
"2019-10-08 08:53:51.036 +0000",1570524831.035717,-1.870360,-0.004031,1.144616,-0.955458,0.004031,0.295101,0.000000,0.000000,0.000000,-1,0.618919,-3.452601,2.187365,0.579130,0.191281,-0.202709
"2019-10-08 08:53:51.058 +0000",1570524831.058023,-1.921400,-0.048593,1.133182,-0.938057,0.048574,0.343060,0.000000,0.000000,0.000000,-1,0.070882,-1.705768,1.613381,0.678474,0.151988,0.202381
"2019-10-08 08:53:51.080 +0000",1570524831.080300,-1.927781,-0.072745,1.113247,-0.934477,0.072681,0.348526,0.000000,0.000000,0.000000,-1,-0.791839,0.135741,1.061992,-0.355791,0.803769,-0.151810
"2019-10-08 08:53:51.103 +0000",1570524831.102609,-1.936679,-0.082172,1.088365,-0.930657,0.082080,0.356567,0.000000,0.000000,0.000000,-1,-0.897885,-0.679971,0.724317,-0.169929,0.471006,-0.211669
"2019-10-08 08:53:51.125 +0000",1570524831.124918,-1.957816,-0.086842,1.065557,-0.922549,0.086733,0.376007,0.000000,0.000000,0.000000,-1,-0.864239,-0.927225,0.403986,0.017412,0.337888,-0.072541
"2019-10-08 08:53:51.147 +0000",1570524831.147194,-1.987038,-0.084033,1.047026,-0.911388,0.083934,0.402900,0.000000,0.000000,0.000000,-1,-0.790555,-1.346669,0.087681,0.031581,0.397054,-0.102744
"2019-10-08 08:53:51.170 +0000",1570524831.169506,-2.016654,-0.076143,1.028279,-0.899627,0.076069,0.429982,0.000000,0.000000,0.000000,-1,-0.985022,-1.170993,0.047581,0.101303,0.295131,-0.081197
"2019-10-08 08:53:51.192 +0000",1570524831.191811,-2.041262,-0.067912,1.004231,-0.889302,0.067860,0.452257,0.000000,0.000000,0.000000,-1,-1.167500,-0.922118,0.166867,0.030965,0.291256,-0.125810
"2019-10-08 08:53:51.214 +0000",1570524831.214089,-2.056440,-0.059175,0.976775,-0.882827,0.059141,0.465961,0.000000,0.000000,0.000000,-1,-1.363650,-0.255149,0.246460,-0.025239,0.299578,-0.077549
"2019-10-08 08:53:51.236 +0000",1570524831.236389,-2.055895,-0.052303,0.946330,-0.883419,0.052279,0.465658,0.000000,0.000000,0.000000,-1,-1.344584,0.185165,0.541530,0.037396,0.191709,-0.073461
"2019-10-08 08:53:51.259 +0000",1570524831.258703,-2.040486,-0.058376,0.912870,-0.890190,0.058343,0.451838,0.000000,0.000000,0.000000,-1,-1.063069,1.120025,1.132533,0.258156,0.132773,0.039190
"2019-10-08 08:53:51.281 +0000",1570524831.281013,-2.009895,-0.078476,0.891306,-0.902350,0.078395,0.423815,0.000000,0.000000,0.000000,-1,-0.055971,1.437449,1.352203,0.095709,-0.016048,-0.021823
"2019-10-08 08:53:51.303 +0000",1570524831.303297,-1.985187,-0.111738,0.881987,-0.909653,0.111505,0.400121,0.000000,0.000000,0.000000,-1,0.530363,0.980901,1.564918,-0.032119,-0.131159,-0.159246
"2019-10-08 08:53:51.326 +0000",1570524831.325598,-1.966707,-0.151130,0.886197,-0.912129,0.150556,0.381253,0.000000,0.000000,0.000000,-1,1.051998,0.612151,1.584542,-0.128536,0.224215,-0.063229
"2019-10-08 08:53:51.348 +0000",1570524831.347905,-1.955159,-0.196392,0.878410,-0.909217,0.195132,0.367760,0.000000,0.000000,0.000000,-1,-0.112102,0.700026,2.168798,0.183616,0.532407,0.028114
"2019-10-08 08:53:51.370 +0000",1570524831.370196,-1.948428,-0.236128,0.857722,-0.903747,0.233939,0.358488,0.000000,0.000000,0.000000,-1,-0.221004,0.112644,1.707522,0.223251,0.733315,0.070482
"2019-10-08 08:53:51.392 +0000",1570524831.392490,-1.961464,-0.254762,0.836220,-0.894810,0.252016,0.368515,0.000000,0.000000,0.000000,-1,-0.780733,-0.614292,0.835432,0.048970,0.484145,-0.247528
"2019-10-08 08:53:51.415 +0000",1570524831.414799,-1.985222,-0.253394,0.810418,-0.886118,0.250691,0.389806,0.000000,0.000000,0.000000,-1,-1.130239,-0.860984,0.065856,0.090098,0.546032,-0.194509
"2019-10-08 08:53:51.437 +0000",1570524831.437076,-2.008376,-0.238399,0.789922,-0.880162,0.236147,0.411764,0.000000,0.000000,0.000000,-1,-0.972523,-0.695226,-0.351129,0.109120,0.669843,-0.144796
"2019-10-08 08:53:51.459 +0000",1570524831.459392,-2.016164,-0.225492,0.785159,-0.879606,0.223586,0.419884,0.000000,0.000000,0.000000,-1,-0.075789,-0.055699,-0.489160,-0.063677,0.672425,-0.025047
"2019-10-08 08:53:51.482 +0000",1570524831.481693,-2.006037,-0.217315,0.798319,-0.885441,0.215608,0.411712,0.000000,0.000000,0.000000,-1,0.547279,0.506057,-0.667555,-0.049144,0.556090,0.054673
"2019-10-08 08:53:51.504 +0000",1570524831.503969,-1.984829,-0.199538,0.815799,-0.897341,0.198216,0.394323,0.000000,0.000000,0.000000,-1,0.107694,0.853287,-1.172004,0.014192,0.444514,0.074565
"2019-10-08 08:53:51.526 +0000",1570524831.526277,-1.958526,-0.166373,0.832064,-0.912987,0.165607,0.372867,0.000000,0.000000,0.000000,-1,0.196075,1.273206,-2.024224,-0.027107,0.567960,-0.006458
"2019-10-08 08:53:51.549 +0000",1570524831.548579,-1.936221,-0.142837,0.846873,-0.924461,0.142352,0.353707,0.000000,0.000000,0.000000,-1,-0.212879,0.122029,0.314315,-0.051675,0.626660,-0.013390
"2019-10-08 08:53:51.571 +0000",1570524831.570893,-1.955256,-0.173100,0.809744,-0.913148,0.172237,0.369453,0.000000,0.000000,0.000000,-1,-0.921495,-0.453691,1.663868,0.562119,-0.560817,-0.438026
"2019-10-08 08:53:51.593 +0000",1570524831.593170,-1.967277,-0.180896,0.794408,-0.907374,0.179911,0.379873,0.000000,0.000000,0.000000,-1,-0.248340,-0.564288,0.346443,0.300548,0.273671,-0.006551
"2019-10-08 08:53:51.615 +0000",1570524831.615478,-1.979262,-0.182272,0.789218,-0.902528,0.181265,0.390622,0.000000,0.000000,0.000000,-1,-0.159351,-0.376183,-0.009983,0.110796,0.341776,0.049136
"2019-10-08 08:53:51.638 +0000",1570524831.637787,-1.987237,-0.176731,0.786253,-0.900289,0.175812,0.398208,0.000000,0.000000,0.000000,-1,-0.271931,-0.318115,-0.251212,0.059042,0.405502,0.018922
"2019-10-08 08:53:51.660 +0000",1570524831.660065,-1.996606,-0.163319,0.780424,-0.898586,0.162594,0.407562,0.000000,0.000000,0.000000,-1,-0.662255,-0.472118,-0.587439,0.098247,0.401920,-0.019363
"2019-10-08 08:53:51.682 +0000",1570524831.682369,-2.012412,-0.144531,0.769236,-0.894636,0.144028,0.422944,0.000000,0.000000,0.000000,-1,-0.867467,-0.649987,-0.434602,0.072508,0.304595,-0.056962
"2019-10-08 08:53:51.705 +0000",1570524831.704681,-2.022736,-0.137754,0.754390,-0.891080,0.137319,0.432575,0.000000,0.000000,0.000000,-1,-0.415675,-0.075555,0.139825,0.035062,0.304011,-0.031406
"2019-10-08 08:53:51.727 +0000",1570524831.726957,-2.015416,-0.146196,0.755910,-0.893144,0.145675,0.425526,0.000000,0.000000,0.000000,-1,0.527532,0.497625,0.336109,0.028551,0.236328,0.078273
"2019-10-08 08:53:51.749 +0000",1570524831.749266,-2.007198,-0.153661,0.757463,-0.895600,0.153058,0.417701,0.000000,0.000000,0.000000,-1,0.052506,0.127781,0.181639,0.041520,0.153064,0.107156
"2019-10-08 08:53:51.772 +0000",1570524831.771573,-2.007688,-0.155818,0.758231,-0.895094,0.155188,0.417999,0.000000,0.000000,0.000000,-1,0.079515,-0.097735,0.075726,0.152769,0.184747,-0.088944
"2019-10-08 08:53:51.794 +0000",1570524831.793851,-2.010208,-0.157962,0.759220,-0.893735,0.157306,0.420111,0.000000,0.000000,0.000000,-1,0.098163,-0.153207,0.043972,0.107724,0.304395,-0.080755
"2019-10-08 08:53:51.816 +0000",1570524831.816158,-2.015633,-0.158319,0.761446,-0.891392,0.157658,0.424929,0.000000,0.000000,0.000000,-1,0.071349,-0.328235,-0.042564,0.092121,0.329891,-0.054552
"2019-10-08 08:53:51.838 +0000",1570524831.838470,-2.025843,-0.154643,0.759482,-0.887522,0.154027,0.434259,0.000000,0.000000,0.000000,-1,-0.574885,-0.510686,-0.072235,0.101847,0.330470,-0.011697
"2019-10-08 08:53:51.861 +0000",1570524831.860769,-2.041827,-0.154967,0.753054,-0.880423,0.154348,0.448367,0.000000,0.000000,0.000000,-1,-0.244884,-0.391196,-0.065711,0.096380,-0.473348,-0.196673
"2019-10-08 08:53:51.883 +0000",1570524831.883046,-2.049283,-0.152284,0.741837,-0.877420,0.151696,0.455108,0.000000,0.000000,0.000000,-1,-0.623371,-0.277988,0.302803,0.159250,0.486656,0.003739
"2019-10-08 08:53:51.905 +0000",1570524831.905349,-2.056624,-0.156430,0.729169,-0.873491,0.155793,0.461239,0.000000,0.000000,0.000000,-1,-0.142377,-0.181346,0.428686,0.013369,0.350738,-0.029568
"2019-10-08 08:53:51.928 +0000",1570524831.927669,-2.059781,-0.161800,0.731145,-0.871280,0.161095,0.463595,0.000000,0.000000,0.000000,-1,0.198698,-0.193588,0.085211,0.037692,0.319053,0.043699
"2019-10-08 08:53:51.950 +0000",1570524831.949945,-2.064254,-0.164207,0.733177,-0.868854,0.163470,0.467302,0.000000,0.000000,0.000000,-1,0.083404,-0.216894,0.115141,0.093005,0.264600,0.019866
"2019-10-08 08:53:51.972 +0000",1570524831.972254,-2.069758,-0.173064,0.731966,-0.864963,0.172201,0.471366,0.000000,0.000000,0.000000,-1,0.216699,-0.247297,0.509960,0.131412,0.222772,0.005059
"2019-10-08 08:53:51.995 +0000",1570524831.994538,-2.078301,-0.183906,0.731961,-0.859222,0.182871,0.477802,0.000000,0.000000,0.000000,-1,0.160575,-0.530955,0.328854,0.159790,0.093084,-0.014469
"2019-10-08 08:53:52.017 +0000",1570524832.016839,-2.093775,-0.182646,0.730811,-0.851925,0.181632,0.491155,0.000000,0.000000,0.000000,-1,-0.180441,-0.672235,-0.222079,0.165310,-0.024711,-0.051122
"2019-10-08 08:53:52.039 +0000",1570524832.039146,-2.106460,-0.182319,0.729958,-0.845678,0.181311,0.501952,0.000000,0.000000,0.000000,-1,0.007219,-0.495678,0.242878,0.081136,0.128565,-0.089125
"2019-10-08 08:53:52.061 +0000",1570524832.061455,-2.119416,-0.194798,0.723410,-0.837108,0.193568,0.511647,0.000000,0.000000,0.000000,-1,0.054650,-0.574641,0.814248,0.032832,0.321126,-0.059910
"2019-10-08 08:53:52.084 +0000",1570524832.083745,-2.137470,-0.216933,0.714829,-0.823917,0.215236,0.524247,0.000000,0.000000,0.000000,-1,0.275258,-0.856261,1.130699,-0.035626,0.279180,-0.041138
"2019-10-08 08:53:52.106 +0000",1570524832.106039,-2.156472,-0.243504,0.696093,-0.808755,0.241105,0.536455,0.000000,0.000000,0.000000,-1,-0.308200,-0.417887,1.626495,0.071023,-0.018189,-0.082857
"2019-10-08 08:53:52.128 +0000",1570524832.128348,-2.172700,-0.267596,0.668609,-0.794923,0.264414,0.546060,0.000000,0.000000,0.000000,-1,-0.345181,-0.391429,1.473658,0.014055,0.576604,-0.060419
"2019-10-08 08:53:52.151 +0000",1570524832.150655,-2.185286,-0.290188,0.647510,-0.782906,0.286133,0.552437,0.000000,0.000000,0.000000,-1,-0.065942,-0.267601,1.334978,0.049736,0.441467,-0.024239
"2019-10-08 08:53:52.173 +0000",1570524832.172933,-2.198077,-0.316030,0.630263,-0.769531,0.310796,0.557878,0.000000,0.000000,0.000000,-1,0.075692,-0.378285,1.327338,0.144303,0.229899,-0.030549
"2019-10-08 08:53:52.195 +0000",1570524832.195222,-2.215304,-0.338926,0.613589,-0.753920,0.332474,0.566627,0.000000,0.000000,0.000000,-1,-0.047756,-0.605032,1.237498,0.132429,0.180923,-0.055030
"2019-10-08 08:53:52.218 +0000",1570524832.217520,-2.235736,-0.363274,0.593847,-0.735596,0.355337,0.576744,0.000000,0.000000,0.000000,-1,0.057074,-0.572344,1.408447,0.177506,0.311182,-0.046425
"2019-10-08 08:53:52.240 +0000",1570524832.239826,-2.255990,-0.385380,0.568917,-0.717506,0.375912,0.586409,0.000000,0.000000,0.000000,-1,-0.418051,-0.410012,1.447740,0.094551,0.143971,-0.063002
"2019-10-08 08:53:52.262 +0000",1570524832.262134,-2.276033,-0.405536,0.535503,-0.699697,0.394511,0.595638,0.000000,0.000000,0.000000,-1,-0.374411,-0.361109,1.683028,0.074896,0.125432,-0.012722
"2019-10-08 08:53:52.284 +0000",1570524832.284440,-2.301961,-0.420439,0.500208,-0.679568,0.408161,0.609584,0.000000,0.000000,0.000000,-1,-1.032617,-0.317968,1.140246,0.055605,0.736217,0.131643
"2019-10-08 08:53:52.307 +0000",1570524832.306720,-2.317631,-0.423702,0.473070,-0.668951,0.411138,0.619249,0.000000,0.000000,0.000000,-1,-0.513909,-0.335478,0.690308,-0.169641,1.251719,-0.043413
"2019-10-08 08:53:52.329 +0000",1570524832.329028,-2.337433,-0.426156,0.458166,-0.655830,0.413374,0.631672,0.000000,0.000000,0.000000,-1,-0.287030,-0.780517,0.418955,0.255623,0.410647,-0.099750
"2019-10-08 08:53:52.351 +0000",1570524832.351335,-2.366866,-0.435850,0.450379,-0.634124,0.422181,0.647804,0.000000,0.000000,0.000000,-1,0.480004,-1.373378,0.672655,0.157043,0.280044,-0.125633
"2019-10-08 08:53:52.374 +0000",1570524832.373613,-2.393419,-0.450393,0.444868,-0.612459,0.435319,0.659842,0.000000,0.000000,0.000000,-1,0.220005,-0.734552,0.479551,0.341463,-0.420091,-0.306738
"2019-10-08 08:53:52.396 +0000",1570524832.395921,-2.400776,-0.459825,0.443582,-0.604790,0.443792,0.661270,0.000000,0.000000,0.000000,-1,0.249657,-0.099390,0.261793,0.102394,0.405055,0.036514
"2019-10-08 08:53:52.418 +0000",1570524832.418229,-2.398712,-0.466161,0.441642,-0.604239,0.449460,0.657936,0.000000,0.000000,0.000000,-1,0.069371,0.237700,0.288496,0.292197,0.203463,-0.024697
"2019-10-08 08:53:52.441 +0000",1570524832.440506,-2.399786,-0.473226,0.433368,-0.601372,0.455760,0.656228,0.000000,0.000000,0.000000,-1,0.083164,-0.011901,0.636829,0.150337,0.258275,-0.117287
"2019-10-08 08:53:52.463 +0000",1570524832.463288,-2.412240,-0.491423,0.417986,-0.587528,0.471881,0.657372,0.000000,0.000000,0.000000,-1,0.282414,-0.375970,1.266619,0.219868,-0.094592,-0.105065
"2019-10-08 08:53:52.486 +0000",1570524832.485596,-2.426666,-0.521399,0.400238,-0.568453,0.498093,0.654801,0.000000,0.000000,0.000000,-1,0.559540,-0.350116,1.241697,0.269518,-0.205415,-0.067536
"2019-10-08 08:53:52.508 +0000",1570524832.507880,-2.441429,-0.543353,0.392587,-0.551545,0.517009,0.654599,0.000000,0.000000,0.000000,-1,0.512077,-0.537953,0.707431,0.293183,0.122776,0.004657
"2019-10-08 08:53:52.530 +0000",1570524832.530181,-2.451333,-0.550912,0.384597,-0.542530,0.523465,0.656998,0.000000,0.000000,0.000000,-1,-0.214257,0.037057,0.286434,0.233586,0.287647,-0.076141
"2019-10-08 08:53:52.552 +0000",1570524832.552490,-2.448842,-0.543389,0.376577,-0.546665,0.517040,0.658655,0.000000,0.000000,0.000000,-1,-0.381254,0.500335,-0.140774,0.250400,0.451923,-0.127085
"2019-10-08 08:53:52.575 +0000",1570524832.574798,-2.445035,-0.541496,0.379217,-0.549795,0.515418,0.657319,0.000000,0.000000,0.000000,-1,0.144008,-0.132854,-0.110118,0.268942,0.838601,-0.223573
"2019-10-08 08:53:52.597 +0000",1570524832.597075,-2.450856,-0.547881,0.384349,-0.543852,0.520879,0.657959,0.000000,0.000000,0.000000,-1,0.448161,-0.499734,0.099199,0.324110,0.197092,-0.133575
"2019-10-08 08:53:52.619 +0000",1570524832.619386,-2.461775,-0.555426,0.391765,-0.534150,0.527305,0.660782,0.000000,0.000000,0.000000,-1,0.374208,-0.752920,-0.152896,0.232041,0.243111,-0.077790
"2019-10-08 08:53:52.642 +0000",1570524832.641692,-2.474928,-0.551192,0.406198,-0.526788,0.523703,0.669499,0.000000,0.000000,0.000000,-1,0.020099,-0.907020,-0.836459,0.223764,0.364068,-0.116414
"2019-10-08 08:53:52.664 +0000",1570524832.663968,-2.477328,-0.537534,0.430911,-0.529540,0.512019,0.676331,0.000000,0.000000,0.000000,-1,0.303686,-0.365842,-1.209582,0.166961,0.697728,-0.144379
"2019-10-08 08:53:52.686 +0000",1570524832.686276,-2.454855,-0.530328,0.464290,-0.546930,0.505816,0.667096,0.000000,0.000000,0.000000,-1,0.649365,0.413182,-1.160524,0.196390,0.211728,0.136325
"2019-10-08 08:53:52.709 +0000",1570524832.708583,-2.432830,-0.539727,0.481221,-0.558369,0.513902,0.651251,0.000000,0.000000,0.000000,-1,0.619184,0.748504,0.302805,0.158696,0.075408,0.050348
"2019-10-08 08:53:52.731 +0000",1570524832.730878,-2.415743,-0.551545,0.487703,-0.565345,0.524004,0.637028,0.000000,0.000000,0.000000,-1,0.566666,0.457322,0.084551,0.206275,-0.072710,-0.002400
"2019-10-08 08:53:52.753 +0000",1570524832.753169,-2.401927,-0.559857,0.496334,-0.571136,0.531065,0.625918,0.000000,0.000000,0.000000,-1,0.441830,0.381657,-0.063696,0.114334,0.135592,0.015271
"2019-10-08 08:53:52.775 +0000",1570524832.775478,-2.392124,-0.562522,0.504078,-0.576278,0.533321,0.619251,0.000000,0.000000,0.000000,-1,0.205399,0.169527,-0.178525,0.088531,0.270420,-0.022388
"2019-10-08 08:53:52.798 +0000",1570524832.797785,-2.388219,-0.561028,0.509579,-0.579236,0.532057,0.617577,0.000000,0.000000,0.000000,-1,0.030860,0.002085,-0.195721,0.097959,0.312517,-0.056877
"2019-10-08 08:53:52.820 +0000",1570524832.820063,-2.387587,-0.557612,0.511700,-0.580868,0.529161,0.618532,0.000000,0.000000,0.000000,-1,-0.093144,-0.022387,-0.148417,0.160274,0.254271,-0.097795
"2019-10-08 08:53:52.842 +0000",1570524832.842370,-2.387004,-0.554457,0.512628,-0.582369,0.526481,0.619406,0.000000,0.000000,0.000000,-1,-0.045224,0.050406,-0.098180,0.178056,0.228951,-0.113379
"2019-10-08 08:53:52.865 +0000",1570524832.864678,-2.382242,-0.552954,0.515571,-0.585855,0.525203,0.617199,0.000000,0.000000,0.000000,-1,0.059985,0.168322,-0.156247,0.226877,0.219090,-0.093991
"2019-10-08 08:53:52.887 +0000",1570524832.886976,-2.376279,-0.551610,0.520282,-0.590014,0.524060,0.614203,0.000000,0.000000,0.000000,-1,0.081237,0.158428,-0.172277,0.186907,0.218433,-0.099036
"2019-10-08 08:53:52.909 +0000",1570524832.909264,-2.370378,-0.549897,0.525148,-0.594253,0.522599,0.611354,0.000000,0.000000,0.000000,-1,0.068612,0.149740,-0.190813,0.181182,0.219405,-0.099375
"2019-10-08 08:53:52.932 +0000",1570524832.931573,-2.364433,-0.548462,0.529860,-0.598402,0.521376,0.608344,0.000000,0.000000,0.000000,-1,0.085078,0.169581,-0.155011,0.168104,0.234377,-0.091742
"2019-10-08 08:53:52.954 +0000",1570524832.953850,-2.359986,-0.547875,0.532815,-0.601317,0.520875,0.605894,0.000000,0.000000,0.000000,-1,0.076430,0.169702,-0.122762,0.125136,0.199081,-0.056517
"2019-10-08 08:53:52.976 +0000",1570524832.976157,-2.354842,-0.547377,0.536253,-0.604609,0.520449,0.602976,0.000000,0.000000,0.000000,-1,0.082764,0.126737,-0.100048,0.118953,0.195524,-0.049677
"2019-10-08 08:53:52.998 +0000",1570524832.998463,-2.350993,-0.547631,0.539836,-0.606831,0.520667,0.600551,0.000000,0.000000,0.000000,-1,0.121664,0.064071,-0.085829,0.133931,0.204217,-0.061168
"2019-10-08 08:53:53.021 +0000",1570524833.020750,-2.348089,-0.548562,0.543665,-0.608227,0.521461,0.598446,0.000000,0.000000,0.000000,-1,0.133016,0.035860,-0.065725,0.151684,0.212243,-0.069485
"2019-10-08 08:53:53.043 +0000",1570524833.043051,-2.345841,-0.549761,0.546726,-0.609124,0.522484,0.596640,0.000000,0.000000,0.000000,-1,0.110582,0.024923,-0.028422,0.152825,0.204720,-0.074728
"2019-10-08 08:53:53.065 +0000",1570524833.065358,-2.344391,-0.551185,0.548798,-0.609456,0.523697,0.595236,0.000000,0.000000,0.000000,-1,0.094384,0.012726,0.000212,0.160023,0.210800,-0.085363
"2019-10-08 08:53:53.088 +0000",1570524833.087666,-2.343481,-0.552607,0.550176,-0.609463,0.524908,0.594160,0.000000,0.000000,0.000000,-1,0.079398,-0.003200,0.018955,0.174481,0.216165,-0.096601
"2019-10-08 08:53:53.110 +0000",1570524833.109944,-2.343057,-0.554483,0.550080,-0.609008,0.526504,0.593214,0.000000,0.000000,0.000000,-1,0.047047,0.051127,0.074283,0.201553,0.206727,-0.094282
"2019-10-08 08:53:53.132 +0000",1570524833.132252,-2.341873,-0.555904,0.550193,-0.609173,0.527712,0.591970,0.000000,0.000000,0.000000,-1,0.040636,0.046074,0.040831,0.157726,0.264998,-0.088064
"2019-10-08 08:53:53.155 +0000",1570524833.154545,-2.341299,-0.556472,0.550236,-0.609298,0.528194,0.591411,0.000000,0.000000,0.000000,-1,0.010406,0.007832,0.016346,0.165252,0.258534,-0.081768
"2019-10-08 08:53:53.177 +0000",1570524833.176838,-2.341225,-0.556950,0.550905,-0.609161,0.528599,0.591190,0.000000,0.000000,0.000000,-1,0.060402,-0.015672,-0.023121,0.205642,0.243434,-0.095264
"2019-10-08 08:53:53.199 +0000",1570524833.199144,-2.339061,-0.557590,0.553872,-0.610195,0.529143,0.589636,0.000000,0.000000,0.000000,-1,0.117939,0.067794,-0.077181,0.212413,0.231004,-0.108953
"2019-10-08 08:53:53.221 +0000",1570524833.221451,-2.333891,-0.557916,0.558872,-0.613111,0.529420,0.586353,0.000000,0.000000,0.000000,-1,0.162862,0.127830,-0.144684,0.207593,0.231414,-0.093891
"2019-10-08 08:53:53.244 +0000",1570524833.243730,-2.327433,-0.557880,0.565429,-0.616898,0.529389,0.582395,0.000000,0.000000,0.000000,-1,0.189025,0.142425,-0.190702,0.188645,0.233581,-0.078916
"2019-10-08 08:53:53.266 +0000",1570524833.266038,-2.320282,-0.557323,0.573166,-0.621263,0.528917,0.578169,0.000000,0.000000,0.000000,-1,0.196370,0.127504,-0.232745,0.171358,0.237777,-0.074751
"2019-10-08 08:53:53.288 +0000",1570524833.288347,-2.313652,-0.556495,0.581172,-0.625405,0.528213,0.574334,0.000000,0.000000,0.000000,-1,0.201376,0.094303,-0.229967,0.159905,0.222168,-0.074807
"2019-10-08 08:53:53.311 +0000",1570524833.310625,-2.307650,-0.555870,0.589271,-0.629085,0.527683,0.570792,0.000000,0.000000,0.000000,-1,0.212673,0.067270,-0.223519,0.146510,0.201199,-0.076361
"2019-10-08 08:53:53.333 +0000",1570524833.332931,-2.301728,-0.555502,0.597613,-0.632599,0.527370,0.567186,0.000000,0.000000,0.000000,-1,0.231459,0.068479,-0.230965,0.123260,0.203968,-0.057726
"2019-10-08 08:53:53.355 +0000",1570524833.355240,-2.295933,-0.555324,0.606094,-0.635945,0.527219,0.563573,0.000000,0.000000,0.000000,-1,0.234012,0.059917,-0.218483,0.127751,0.211017,-0.057363
"2019-10-08 08:53:53.378 +0000",1570524833.377526,-2.290282,-0.555038,0.613823,-0.639233,0.526975,0.560070,0.000000,0.000000,0.000000,-1,0.199009,0.078455,-0.192611,0.147397,0.228365,-0.065547
"2019-10-08 08:53:53.400 +0000",1570524833.399825,-2.284877,-0.554875,0.620223,-0.642316,0.526837,0.556662,0.000000,0.000000,0.000000,-1,0.164075,0.095829,-0.149361,0.164350,0.236606,-0.077430
"2019-10-08 08:53:53.422 +0000",1570524833.422132,-2.280205,-0.554890,0.625148,-0.644904,0.526850,0.553650,0.000000,0.000000,0.000000,-1,0.130390,0.088612,-0.103412,0.163809,0.230444,-0.097595
"2019-10-08 08:53:53.444 +0000",1570524833.444434,-2.277214,-0.554954,0.628410,-0.646531,0.526904,0.551697,0.000000,0.000000,0.000000,-1,0.069047,0.039525,-0.065786,0.146088,0.222257,-0.104096
"2019-10-08 08:53:53.467 +0000",1570524833.466718,-2.277091,-0.554392,0.629808,-0.646824,0.526427,0.551810,0.000000,0.000000,0.000000,-1,0.003810,-0.078531,-0.048639,0.126240,0.220964,-0.117392
"2019-10-08 08:53:53.489 +0000",1570524833.489026,-2.279737,-0.553529,0.630427,-0.645706,0.525693,0.553815,0.000000,0.000000,0.000000,-1,-0.006245,-0.156004,-0.040513,0.112732,0.232898,-0.131421
"2019-10-08 08:53:53.511 +0000",1570524833.511334,-2.283048,-0.552272,0.631144,-0.644369,0.524622,0.556381,0.000000,0.000000,0.000000,-1,-0.012665,-0.174587,-0.073845,0.142767,0.239278,-0.130890
"2019-10-08 08:53:53.534 +0000",1570524833.533612,-2.285971,-0.551076,0.632973,-0.643213,0.523605,0.558673,0.000000,0.000000,0.000000,-1,0.042477,-0.164776,-0.087554,0.143152,0.229066,-0.111133
"2019-10-08 08:53:53.556 +0000",1570524833.555919,-2.287318,-0.550579,0.635782,-0.642656,0.523181,0.559710,0.000000,0.000000,0.000000,-1,0.077643,-0.104480,-0.086834,0.165971,0.236661,-0.106737
"2019-10-08 08:53:53.578 +0000",1570524833.578228,-2.287947,-0.550298,0.638863,-0.642414,0.522941,0.560211,0.000000,0.000000,0.000000,-1,0.083910,-0.104482,-0.088072,0.168873,0.251595,-0.115173
"2019-10-08 08:53:53.601 +0000",1570524833.600510,-2.289061,-0.549809,0.641939,-0.641982,0.522524,0.561094,0.000000,0.000000,0.000000,-1,0.062529,-0.130362,-0.097776,0.167403,0.257688,-0.125303
"2019-10-08 08:53:53.623 +0000",1570524833.622813,-2.290970,-0.548736,0.644722,-0.641331,0.521609,0.562688,0.000000,0.000000,0.000000,-1,0.034868,-0.161169,-0.108679,0.167058,0.245252,-0.125859
"2019-10-08 08:53:53.645 +0000",1570524833.645120,-2.293704,-0.547199,0.646702,-0.640391,0.520297,0.564969,0.000000,0.000000,0.000000,-1,0.002295,-0.177127,-0.096146,0.175044,0.226331,-0.116254
"2019-10-08 08:53:53.667 +0000",1570524833.667429,-2.297041,-0.545787,0.647854,-0.639051,0.519091,0.567590,0.000000,0.000000,0.000000,-1,-0.022659,-0.174552,-0.063925,0.159528,0.224546,-0.109857
"2019-10-08 08:53:53.690 +0000",1570524833.689706,-2.311239,-0.655284,0.641825,-0.585277,0.609384,0.534885,0.000000,0.000000,0.000000,-1,-0.048676,-0.158425,-0.036278,0.112849,0.141257,-0.060764
"2019-10-08 08:53:53.712 +0000",1570524833.712015,-2.328633,-0.703680,0.632214,-0.553798,0.647028,0.524083,0.000000,0.000000,0.000000,-1,-0.060986,-0.110353,-0.006694,0.079143,0.105428,-0.029560
"2019-10-08 08:53:53.734 +0000",1570524833.734322,-2.339204,-0.729449,0.625441,-0.536058,0.666459,0.518145,0.000000,0.000000,0.000000,-1,-0.048270,-0.036471,0.012635,0.066987,0.070952,-0.025820
"2019-10-08 08:53:53.757 +0000",1570524833.756600,-2.339112,-0.729493,0.625163,-0.536084,0.666492,0.518075,0.000000,0.000000,0.000000,-1,0.022000,0.043492,0.005753,0.080198,0.053708,-0.032907
"2019-10-08 08:53:53.779 +0000",1570524833.778907,-2.336061,-0.730361,0.626597,-0.537245,0.667139,0.516036,0.000000,0.000000,0.000000,-1,0.079678,0.117257,-0.012245,0.060286,0.053732,-0.032470
"2019-10-08 08:53:53.801 +0000",1570524833.801215,-2.330765,-0.747012,0.629653,-0.531844,0.679449,0.505461,0.000000,0.000000,0.000000,-1,0.127315,0.159026,-0.034856,0.025710,0.058862,-0.032469
"2019-10-08 08:53:53.823 +0000",1570524833.823494,-2.324260,-0.748860,0.633325,-0.534205,0.680804,0.501130,0.000000,0.000000,0.000000,-1,0.150000,0.183724,-0.012736,0.013880,0.071851,-0.050019
"2019-10-08 08:53:53.846 +0000",1570524833.845801,-2.318521,-0.751020,0.636264,-0.535992,0.682385,0.497055,0.000000,0.000000,0.000000,-1,0.119980,0.156745,0.012302,0.009792,0.070468,-0.063827
"2019-10-08 08:53:53.868 +0000",1570524833.868109,-2.305472,-0.766846,0.644169,-0.534351,0.693867,0.482718,0.000000,0.000000,0.000000,-1,0.057419,0.073259,0.051519,0.016682,0.070201,-0.061606
"2019-10-08 08:53:53.890 +0000",1570524833.890386,-2.305805,-0.768221,0.643191,-0.533482,0.694857,0.482256,0.000000,0.000000,0.000000,-1,-0.007793,-0.014039,0.069634,0.033436,0.080564,-0.075548
"2019-10-08 08:53:53.913 +0000",1570524833.912694,-2.309175,-0.768458,0.640463,-0.531732,0.695028,0.483940,0.000000,0.000000,0.000000,-1,-0.083113,-0.081742,0.066481,0.046762,0.079753,-0.063637
"2019-10-08 08:53:53.935 +0000",1570524833.935002,-2.315440,-0.781996,0.635626,-0.521723,0.704697,0.480841,0.000000,0.000000,0.000000,-1,-0.096754,-0.083016,0.062072,0.052393,0.058761,-0.036856
"2019-10-08 08:53:53.957 +0000",1570524833.957310,-2.319529,-0.781405,0.631905,-0.520057,0.704277,0.483253,0.000000,0.000000,0.000000,-1,-0.105540,-0.053521,0.055604,0.052482,0.052742,-0.018105
"2019-10-08 08:53:53.980 +0000",1570524833.979600,-2.328252,-0.789281,0.624246,-0.511775,0.709847,0.483945,0.000000,0.000000,0.000000,-1,-0.115470,-0.030084,0.075281,0.046337,0.046073,-0.008695
"2019-10-08 08:53:54.002 +0000",1570524834.001896,-2.332440,-0.788382,0.619173,-0.510206,0.709213,0.486524,0.000000,0.000000,0.000000,-1,-0.159305,-0.020204,0.090061,0.041731,0.053375,-0.019651
"2019-10-08 08:53:54.024 +0000",1570524834.024203,-2.337463,-0.787060,0.612594,-0.508431,0.708281,0.489731,0.000000,0.000000,0.000000,-1,-0.206922,-0.023867,0.102478,0.039986,0.047869,-0.028718
"2019-10-08 08:53:54.046 +0000",1570524834.046474,-2.343261,-0.791419,0.605642,-0.503366,0.711352,0.490511,0.000000,0.000000,0.000000,-1,-0.204397,-0.052135,0.107715,0.020517,0.037489,-0.021899
"2019-10-08 08:53:54.069 +0000",1570524834.068789,-2.348324,-0.789963,0.599540,-0.501614,0.710328,0.493780,0.000000,0.000000,0.000000,-1,-0.164364,-0.012879,0.075130,0.018048,0.026092,-0.011541
"2019-10-08 08:53:54.091 +0000",1570524834.091097,-2.350418,-0.789135,0.595799,-0.500997,0.709744,0.495242,0.000000,0.000000,0.000000,-1,-0.070350,0.054717,0.048518,0.013067,0.025882,0.009595
"2019-10-08 08:53:54.113 +0000",1570524834.113373,-2.352965,-0.793981,0.591355,-0.497288,0.713150,0.494087,0.000000,0.000000,0.000000,-1,0.019967,0.181371,0.027611,0.040425,0.026825,0.002007
"2019-10-08 08:53:54.136 +0000",1570524834.135682,-2.350865,-0.799209,0.589219,-0.495668,0.716805,0.490412,0.000000,0.000000,0.000000,-1,0.067726,0.282278,0.032961,0.034181,0.025154,-0.003001
"2019-10-08 08:53:54.158 +0000",1570524834.157989,-2.340364,-0.803962,0.592435,-0.498337,0.720111,0.482804,0.000000,0.000000,0.000000,-1,0.099079,0.314244,0.022773,0.007310,0.015775,-0.029466
"2019-10-08 08:53:54.180 +0000",1570524834.180267,-2.328950,-0.808988,0.597173,-0.501182,0.723589,0.474591,0.000000,0.000000,0.000000,-1,0.109054,0.252719,0.014645,0.004310,0.021574,-0.048641
"2019-10-08 08:53:54.203 +0000",1570524834.202577,-2.323248,-0.810546,0.599149,-0.503056,0.724663,0.470954,0.000000,0.000000,0.000000,-1,0.081371,0.156735,0.009282,0.000782,0.033103,-0.048392
"2019-10-08 08:53:54.225 +0000",1570524834.224884,-2.320506,-0.811693,0.600142,-0.503736,0.725454,0.469006,0.000000,0.000000,0.000000,-1,0.043711,0.041131,0.021457,-0.010332,0.033503,-0.048031
"2019-10-08 08:53:54.247 +0000",1570524834.247160,-2.315431,-0.815554,0.603873,-0.504047,0.728105,0.464542,0.000000,0.000000,0.000000,-1,-0.007656,-0.055957,0.047109,-0.025540,0.024306,-0.042728
"2019-10-08 08:53:54.269 +0000",1570524834.269471,-2.318485,-0.816010,0.602043,-0.502382,0.728418,0.465853,0.000000,0.000000,0.000000,-1,-0.033985,-0.083002,0.054781,-0.028715,0.018134,-0.034625
"2019-10-08 08:53:54.292 +0000",1570524834.291777,-2.322059,-0.816352,0.599621,-0.500532,0.728652,0.467476,0.000000,0.000000,0.000000,-1,-0.046484,-0.076818,0.064645,-0.024569,0.009476,-0.026436
"2019-10-08 08:53:54.314 +0000",1570524834.314085,-2.324954,-0.816839,0.597398,-0.498918,0.728986,0.468680,0.000000,0.000000,0.000000,-1,-0.026414,-0.044846,0.059407,-0.008483,0.020617,-0.010397
"2019-10-08 08:53:54.336 +0000",1570524834.336362,-2.325931,-0.819698,0.596175,-0.496940,0.730940,0.467736,0.000000,0.000000,0.000000,-1,-0.008838,-0.003031,0.054090,0.004997,0.026598,-0.010171
"2019-10-08 08:53:54.359 +0000",1570524834.358663,-2.326707,-0.823035,0.595003,-0.494800,0.733213,0.466447,0.000000,0.000000,0.000000,-1,-0.006348,0.000634,0.046627,0.017627,0.035113,-0.013550
"2019-10-08 08:53:54.381 +0000",1570524834.380972,-2.328016,-0.823423,0.593611,-0.493982,0.733477,0.466899,0.000000,0.000000,0.000000,-1,-0.026469,-0.024011,0.038153,0.028467,0.032118,-0.013346
"2019-10-08 08:53:54.403 +0000",1570524834.403255,-2.330033,-0.823432,0.591919,-0.493034,0.733483,0.467889,0.000000,0.000000,0.000000,-1,-0.044059,-0.038799,0.033315,0.035102,0.028053,-0.007989
"2019-10-08 08:53:54.426 +0000",1570524834.425572,-2.334392,-0.825934,0.588859,-0.489663,0.735181,0.468764,0.000000,0.000000,0.000000,-1,-0.044086,-0.072025,0.031146,0.028283,0.020907,-0.006941
"2019-10-08 08:53:54.448 +0000",1570524834.447871,-2.337677,-0.825618,0.587109,-0.488288,0.734967,0.470531,0.000000,0.000000,0.000000,-1,-0.049138,-0.092958,0.026367,0.021460,0.021945,-0.006923
"2019-10-08 08:53:54.470 +0000",1570524834.470148,-2.341452,-0.826212,0.584986,-0.486194,0.735370,0.472066,0.000000,0.000000,0.000000,-1,-0.046644,-0.080680,0.020063,0.006290,0.014828,-0.000172
"2019-10-08 08:53:54.492 +0000",1570524834.492456,-2.344175,-0.826989,0.583369,-0.484498,0.735896,0.472989,0.000000,0.000000,0.000000,-1,-0.040376,-0.061015,0.014935,0.002412,0.007253,-0.001538
"2019-10-08 08:53:54.515 +0000",1570524834.514764,-2.345627,-0.827381,0.582487,-0.483605,0.736162,0.473490,0.000000,0.000000,0.000000,-1,-0.015236,-0.021616,0.020800,-0.000633,0.008437,-0.006067
"2019-10-08 08:53:54.537 +0000",1570524834.537040,-2.344741,-0.828560,0.582936,-0.483403,0.736959,0.472455,0.000000,0.000000,0.000000,-1,0.003578,0.011580,0.013073,-0.004313,0.012645,-0.005139
"2019-10-08 08:53:54.559 +0000",1570524834.559349,-2.342680,-0.829820,0.584141,-0.483710,0.737810,0.470809,0.000000,0.000000,0.000000,-1,0.011101,0.026331,0.007983,-0.006555,0.011183,-0.008895
"2019-10-08 08:53:54.582 +0000",1570524834.581658,-2.341198,-0.830813,0.584852,-0.483881,0.738480,0.469581,0.000000,0.000000,0.000000,-1,0.018636,0.023881,0.009250,-0.006262,0.010009,-0.010841
"2019-10-08 08:53:54.604 +0000",1570524834.603965,-2.339733,-0.831982,0.585604,-0.483948,0.739267,0.468272,0.000000,0.000000,0.000000,-1,0.017382,0.023879,0.008011,-0.001221,0.013403,-0.012278
"2019-10-08 08:53:54.626 +0000",1570524834.626243,-2.338174,-0.833932,0.586577,-0.483639,0.740579,0.466514,0.000000,0.000000,0.000000,-1,0.011110,0.012812,0.006381,0.003002,0.014334,-0.011833
"2019-10-08 08:53:54.649 +0000",1570524834.648533,-2.337349,-0.835853,0.587185,-0.482998,0.741869,0.465128,0.000000,0.000000,0.000000,-1,0.003586,-0.004406,0.007777,0.004055,0.017943,-0.013269
"2019-10-08 08:53:54.671 +0000",1570524834.670860,-2.337329,-0.836741,0.587228,-0.482532,0.742464,0.464661,0.000000,0.000000,0.000000,-1,-0.013990,-0.010576,0.004106,0.006519,0.020124,-0.013397
"2019-10-08 08:53:54.693 +0000",1570524834.693138,-2.338387,-0.837955,0.586345,-0.481392,0.743277,0.464545,0.000000,0.000000,0.000000,-1,-0.027790,-0.013047,0.002889,0.007103,0.019296,-0.001364
"2019-10-08 08:53:54.715 +0000",1570524834.715445,-2.339603,-0.838551,0.585159,-0.480508,0.743675,0.464822,0.000000,0.000000,0.000000,-1,-0.029075,0.005360,-0.008433,0.007424,0.017678,0.002509
"2019-10-08 08:53:54.738 +0000",1570524834.737752,-2.339975,-0.838485,0.584688,-0.480370,0.743631,0.465035,0.000000,0.000000,0.000000,-1,-0.019085,0.004090,-0.019579,0.007348,0.016440,0.000114
"2019-10-08 08:53:54.760 +0000",1570524834.760029,-2.339876,-0.838253,0.584865,-0.480540,0.743476,0.465107,0.000000,0.000000,0.000000,-1,-0.012788,-0.013094,-0.010740,-0.007527,0.002664,-0.005879
"2019-10-08 08:53:54.782 +0000",1570524834.782338,-2.338785,-0.837895,0.586152,-0.481239,0.743237,0.464768,0.000000,0.000000,0.000000,-1,-0.010275,-0.036446,-0.006815,-0.014611,-0.002087,-0.011337
"2019-10-08 08:53:54.805 +0000",1570524834.804646,-2.338867,-0.837619,0.586636,-0.481348,0.743052,0.464950,0.000000,0.000000,0.000000,-1,-0.009084,-0.039995,0.000390,-0.018530,0.000296,-0.008956
"2019-10-08 08:53:54.827 +0000",1570524834.826923,-2.338998,-0.837713,0.586914,-0.481237,0.743114,0.464964,0.000000,0.000000,0.000000,-1,0.002229,-0.012922,0.001394,-0.009013,0.008122,-0.003294
"2019-10-08 08:53:54.849 +0000",1570524834.849231,-2.338480,-0.837858,0.587457,-0.481400,0.743212,0.464640,0.000000,0.000000,0.000000,-1,0.010988,0.005501,-0.007450,-0.006103,0.008360,0.001867
"2019-10-08 08:53:54.872 +0000",1570524834.871536,-2.337432,-0.838213,0.588402,-0.481697,0.743449,0.463952,0.000000,0.000000,0.000000,-1,0.022304,0.005531,-0.001243,-0.006798,0.007009,-0.000741
"2019-10-08 08:53:54.894 +0000",1570524834.893816,-2.337073,-0.838524,0.588986,-0.481697,0.743657,0.463619,0.000000,0.000000,0.000000,-1,0.023553,-0.009225,0.000129,-0.006127,0.008418,-0.006023
"2019-10-08 08:53:54.916 +0000",1570524834.916125,-2.336146,-0.839293,0.590044,-0.481714,0.744171,0.462775,0.000000,0.000000,0.000000,-1,0.011003,-0.011697,-0.002335,-0.002966,0.008652,-0.009223
"2019-10-08 08:53:54.938 +0000",1570524834.938432,-2.336085,-0.839997,0.590355,-0.481364,0.744641,0.462383,0.000000,0.000000,0.000000,-1,0.004745,-0.010459,0.000135,0.003550,0.008487,-0.004345
"2019-10-08 08:53:54.961 +0000",1570524834.960740,-2.336058,-0.840610,0.590662,-0.481047,0.745050,0.462054,0.000000,0.000000,0.000000,-1,0.010995,-0.009250,-0.006073,0.003966,0.009833,-0.002017
"2019-10-08 08:53:54.983 +0000",1570524834.983018,-2.336117,-0.840900,0.590779,-0.480864,0.745244,0.461932,0.000000,0.000000,0.000000,-1,0.005734,-0.001844,-0.006185,0.005049,0.012599,0.002469
"2019-10-08 08:53:55.005 +0000",1570524835.005327,-2.336241,-0.841348,0.590779,-0.480566,0.745542,0.461761,0.000000,0.000000,0.000000,-1,0.001984,0.001854,-0.003736,0.001761,0.009982,0.001008
"2019-10-08 08:53:55.028 +0000",1570524835.027609,-2.335982,-0.841657,0.591084,-0.480519,0.745748,0.461477,0.000000,0.000000,0.000000,-1,0.001990,-0.007977,-0.001167,-0.004039,0.008005,-0.003484
"2019-10-08 08:53:55.050 +0000",1570524835.049911,-2.336149,-0.841636,0.591062,-0.480454,0.745734,0.461568,0.000000,0.000000,0.000000,-1,-0.001772,-0.006748,-0.001179,-0.005371,0.007104,-0.005498
"2019-10-08 08:53:55.072 +0000",1570524835.072219,-2.335824,-0.841762,0.591344,-0.480536,0.745818,0.461347,0.000000,0.000000,0.000000,-1,-0.003001,-0.003037,0.003749,-0.006540,0.007096,-0.002316
"2019-10-08 08:53:55.094 +0000",1570524835.094496,-2.335337,-0.841828,0.591726,-0.480725,0.745862,0.461079,0.000000,0.000000,0.000000,-1,0.000754,-0.001813,0.001258,-0.007694,0.007846,-0.001301
"2019-10-08 08:53:55.117 +0000",1570524835.116804,-2.335428,-0.841860,0.591685,-0.480666,0.745883,0.461106,0.000000,0.000000,0.000000,-1,0.003266,-0.004268,0.002521,-0.010011,0.006787,-0.001282
"2019-10-08 08:53:55.139 +0000",1570524835.139112,-2.334866,-0.841939,0.592282,-0.480882,0.745936,0.460794,0.000000,0.000000,0.000000,-1,0.002014,-0.011642,0.003825,-0.009016,0.006475,-0.002146
"2019-10-08 08:53:55.161 +0000",1570524835.161421,-2.334423,-0.842097,0.592770,-0.481001,0.746041,0.460500,0.000000,0.000000,0.000000,-1,0.001802,-0.014081,0.006201,-0.008013,0.006309,-0.004400
"2019-10-08 08:53:55.184 +0000",1570524835.183697,-2.334310,-0.842282,0.593007,-0.480954,0.746164,0.460350,0.000000,0.000000,0.000000,-1,0.004303,-0.011628,0.003699,-0.005176,0.003805,-0.003014
"2019-10-08 08:53:55.206 +0000",1570524835.205994,-2.334298,-0.842519,0.593120,-0.480831,0.746322,0.460222,0.000000,0.000000,0.000000,-1,0.003055,-0.003018,0.003623,-0.003849,0.007096,0.000334
"2019-10-08 08:53:55.228 +0000",1570524835.228312,-2.334406,-0.842801,0.593048,-0.480629,0.746510,0.460129,0.000000,0.000000,0.000000,-1,-0.000698,-0.004240,0.006114,0.000420,0.007091,-0.000275
"2019-10-08 08:53:55.251 +0000",1570524835.250619,-2.334757,-0.843124,0.592752,-0.480294,0.746724,0.460131,0.000000,0.000000,0.000000,-1,-0.000691,-0.001775,0.007334,0.001825,0.006480,0.001219
"2019-10-08 08:53:55.273 +0000",1570524835.272899,-2.334978,-0.843242,0.592463,-0.480129,0.746803,0.460176,0.000000,0.000000,0.000000,-1,-0.004443,-0.000537,0.009802,0.001323,0.005852,0.004256
"2019-10-08 08:53:55.295 +0000",1570524835.295207,-2.335404,-0.843554,0.591972,-0.479765,0.747011,0.460219,0.000000,0.000000,0.000000,-1,-0.009434,-0.000515,0.016003,-0.001894,0.006789,0.001085
"2019-10-08 08:53:55.317 +0000",1570524835.317494,-2.335376,-0.843757,0.591754,-0.479668,0.747146,0.460100,0.000000,0.000000,0.000000,-1,-0.006955,0.006834,0.007256,-0.004051,0.005540,0.000441
"2019-10-08 08:53:55.340 +0000",1570524835.339792,-2.335393,-0.843802,0.591360,-0.479636,0.747175,0.460085,0.000000,0.000000,0.000000,-1,-0.004613,0.016705,0.009476,-0.003488,0.005419,0.002973
"2019-10-08 08:53:55.362 +0000",1570524835.362101,-2.334801,-0.843984,0.591575,-0.479809,0.747297,0.459707,0.000000,0.000000,0.000000,-1,-0.000883,0.010528,0.002089,-0.004566,0.007983,-0.001852
"2019-10-08 08:53:55.384 +0000",1570524835.384408,-2.334318,-0.844284,0.591834,-0.479870,0.747495,0.459321,0.000000,0.000000,0.000000,-1,-0.003396,0.000688,0.002175,-0.002766,0.007906,-0.004548
"2019-10-08 08:53:55.407 +0000",1570524835.406685,-2.334284,-0.844392,0.591830,-0.479827,0.747567,0.459248,0.000000,0.000000,0.000000,-1,-0.002133,-0.004222,0.004701,-0.006242,0.003775,-0.002949
"2019-10-08 08:53:55.429 +0000",1570524835.428993,-2.334443,-0.844305,0.591709,-0.479801,0.747510,0.459370,0.000000,0.000000,0.000000,-1,-0.007153,-0.007914,0.004730,-0.006374,0.002841,-0.000690
"2019-10-08 08:53:55.451 +0000",1570524835.451299,-2.334450,-0.844197,0.591684,-0.479856,0.747438,0.459429,0.000000,0.000000,0.000000,-1,-0.008400,-0.005448,0.005948,-0.007052,0.005263,0.001722
"2019-10-08 08:53:55.474 +0000",1570524835.473597,-2.334702,-0.844211,0.591404,-0.479733,0.747447,0.459542,0.000000,0.000000,0.000000,-1,-0.008399,-0.004218,0.005937,-0.001926,0.003712,0.000083
"2019-10-08 08:53:55.496 +0000",1570524835.495887,-2.334929,-0.844290,0.591163,-0.479586,0.747499,0.459611,0.000000,0.000000,0.000000,-1,-0.002123,0.000705,0.005896,-0.000913,0.003843,0.002914
"2019-10-08 08:53:55.518 +0000",1570524835.518196,-2.334959,-0.844306,0.591043,-0.479563,0.747511,0.459616,0.000000,0.000000,0.000000,-1,-0.002275,0.003170,0.003202,-0.003439,0.003268,0.001352
"2019-10-08 08:53:55.540 +0000",1570524835.540472,-2.334932,-0.844299,0.590946,-0.479579,0.747506,0.459607,0.000000,0.000000,0.000000,-1,-0.003509,0.001959,0.008174,-0.006123,0.004340,0.002048
"2019-10-08 08:53:55.563 +0000",1570524835.562780,-2.334977,-0.844293,0.590740,-0.479562,0.747501,0.459632,0.000000,0.000000,0.000000,-1,-0.004772,0.005640,0.005659,-0.006537,0.004894,0.001656
"2019-10-08 08:53:55.585 +0000",1570524835.585087,-2.334912,-0.844248,0.590583,-0.479616,0.747472,0.459624,0.000000,0.000000,0.000000,-1,-0.003516,0.008101,0.005637,-0.005155,0.005229,0.004595
"2019-10-08 08:53:55.607 +0000",1570524835.607396,-2.334626,-0.844296,0.590567,-0.479722,0.747504,0.459461,0.000000,0.000000,0.000000,-1,-0.001015,0.011783,0.003124,-0.002959,0.005792,0.003124
"2019-10-08 08:53:55.630 +0000",1570524835.629689,-2.334297,-0.844357,0.590574,-0.479840,0.747544,0.459272,0.000000,0.000000,0.000000,-1,0.002740,0.013005,0.000634,-0.004108,0.006469,0.000506
"2019-10-08 08:53:55.652 +0000",1570524835.651981,-2.334156,-0.844385,0.590507,-0.479890,0.747563,0.459190,0.000000,0.000000,0.000000,-1,-0.003507,0.004421,0.008151,-0.003631,0.001659,0.001228
"2019-10-08 08:53:55.674 +0000",1570524835.674289,-2.333967,-0.844376,0.590516,-0.479982,0.747557,0.459105,0.000000,0.000000,0.000000,-1,-0.003521,-0.001738,0.005723,-0.005400,0.002230,0.000399
"2019-10-08 08:53:55.697 +0000",1570524835.696578,-2.333910,-0.844328,0.590379,-0.480033,0.747525,0.459101,0.000000,0.000000,0.000000,-1,-0.009898,0.003230,0.007969,-0.007622,0.006488,0.002324
"2019-10-08 08:53:55.719 +0000",1570524835.718876,-2.334049,-0.844386,0.590142,-0.479938,0.747563,0.459139,0.000000,0.000000,0.000000,-1,-0.001128,0.001994,0.005503,-0.005093,0.004298,0.004057
"2019-10-08 08:53:55.741 +0000",1570524835.741185,-2.333938,-0.844415,0.590071,-0.479973,0.747583,0.459070,0.000000,0.000000,0.000000,-1,-0.001112,0.004469,0.009202,-0.004325,0.002798,0.001776
"2019-10-08 08:53:55.763 +0000",1570524835.763460,-2.333931,-0.844451,0.589909,-0.479957,0.747607,0.459048,0.000000,0.000000,0.000000,-1,-0.003622,0.002008,0.009222,-0.003212,0.003461,0.002210
"2019-10-08 08:53:55.786 +0000",1570524835.785767,-2.333890,-0.844571,0.589803,-0.479911,0.747686,0.458966,0.000000,0.000000,0.000000,-1,-0.001123,0.002000,0.006742,-0.001870,0.005091,0.001910
"2019-10-08 08:53:55.808 +0000",1570524835.808076,-2.333944,-0.844656,0.589665,-0.479841,0.747743,0.458949,0.000000,0.000000,0.000000,-1,-0.003622,0.000778,0.009232,-0.004031,0.003783,0.002477
"2019-10-08 08:53:55.830 +0000",1570524835.830353,-2.333951,-0.844777,0.589511,-0.479772,0.747823,0.458889,0.000000,0.000000,0.000000,-1,-0.002366,0.003240,0.009211,-0.003794,0.005152,0.000812
"2019-10-08 08:53:55.853 +0000",1570524835.852661,-2.333946,-0.844900,0.589362,-0.479707,0.747905,0.458823,0.000000,0.000000,0.000000,-1,-0.002374,0.005690,0.006708,-0.004042,0.005833,0.001885
"2019-10-08 08:53:55.875 +0000",1570524835.874969,-2.334039,-0.844975,0.589140,-0.479625,0.747954,0.458829,0.000000,0.000000,0.000000,-1,-0.001197,0.003303,0.012832,-0.002721,0.005875,0.002474
"2019-10-08 08:53:55.897 +0000",1570524835.897277,-2.333859,-0.844981,0.589163,-0.479704,0.747958,0.458740,0.000000,0.000000,0.000000,-1,-0.005002,0.000803,0.002928,-0.005724,0.004727,0.001175
"2019-10-08 08:53:55.920 +0000",1570524835.919548,-2.333916,-0.845039,0.588978,-0.479647,0.747997,0.458738,0.000000,0.000000,0.000000,-1,-0.002479,0.006965,0.005355,-0.002256,0.004307,0.003833
"2019-10-08 08:53:55.942 +0000",1570524835.941897,-2.333888,-0.845086,0.588882,-0.479634,0.748028,0.458700,0.000000,0.000000,0.000000,-1,-0.003741,0.002039,0.004158,-0.004741,0.005130,0.001124
"2019-10-08 08:53:55.964 +0000",1570524835.964170,-2.333912,-0.845160,0.588810,-0.479583,0.748077,0.458673,0.000000,0.000000,0.000000,-1,-0.005001,-0.006572,0.004234,-0.004456,0.004624,-0.000406
"2019-10-08 08:53:55.986 +0000",1570524835.986448,-2.333854,-0.845124,0.588739,-0.479629,0.748054,0.458663,0.000000,0.000000,0.000000,-1,-0.008764,-0.000427,0.002936,-0.004777,0.005975,0.001160
"2019-10-08 08:53:56.009 +0000",1570524836.008756,-2.333902,-0.844988,0.588509,-0.479680,0.747963,0.458757,0.000000,0.000000,0.000000,-1,-0.002497,0.008177,0.000381,-0.004344,0.004341,0.004638
"2019-10-08 08:53:56.031 +0000",1570524836.031064,-2.333850,-0.845022,0.588437,-0.479686,0.747986,0.458715,0.000000,0.000000,0.000000,-1,0.000008,0.003258,0.000426,-0.003545,0.006439,0.003550
"2019-10-08 08:53:56.053 +0000",1570524836.053341,-2.333725,-0.844978,0.588533,-0.479767,0.747956,0.458677,0.000000,0.000000,0.000000,-1,-0.003846,-0.002847,-0.000876,-0.003677,0.003081,0.000887
"2019-10-08 08:53:56.076 +0000",1570524836.075656,-2.333913,-0.844848,0.588403,-0.479751,0.747870,0.458835,0.000000,0.000000,0.000000,-1,-0.008841,-0.007746,0.005367,-0.005219,0.001336,0.000562
"2019-10-08 08:53:56.098 +0000",1570524836.097958,-2.334068,-0.844766,0.588309,-0.479724,0.747816,0.458951,0.000000,0.000000,0.000000,-1,-0.005082,-0.006518,0.004117,-0.007596,0.003099,0.001925
"2019-10-08 08:53:56.120 +0000",1570524836.120235,-2.334128,-0.844670,0.588237,-0.479748,0.747752,0.459030,0.000000,0.000000,0.000000,-1,-0.005094,-0.001612,0.000351,-0.003772,0.003865,0.002701
"2019-10-08 08:53:56.143 +0000",1570524836.142559,-2.334272,-0.844683,0.588077,-0.479675,0.747761,0.459092,0.000000,0.000000,0.000000,-1,-0.000055,0.000870,0.005293,-0.002045,0.004177,0.003433
"2019-10-08 08:53:56.165 +0000",1570524836.164851,-2.334235,-0.844746,0.588055,-0.479658,0.747803,0.459041,0.000000,0.000000,0.000000,-1,-0.002583,0.002080,0.000319,-0.002626,0.003708,0.002720
"2019-10-08 08:53:56.187 +0000",1570524836.187128,-2.334186,-0.844707,0.587988,-0.479702,0.747777,0.459038,0.000000,0.000000,0.000000,-1,-0.005076,0.003324,0.004028,-0.003727,0.002864,0.003089
"2019-10-08 08:53:56.209 +0000",1570524836.209434,-2.334157,-0.844730,0.587894,-0.479703,0.747792,0.459012,0.000000,0.000000,0.000000,-1,-0.002563,0.002100,0.005280,-0.005283,0.005168,0.001513
"2019-10-08 08:53:56.232 +0000",1570524836.231744,-2.334276,-0.844763,0.587685,-0.479630,0.747814,0.459053,0.000000,0.000000,0.000000,-1,-0.002639,0.000918,0.003916,-0.004134,0.003941,0.002510
"2019-10-08 08:53:56.254 +0000",1570524836.254052,-2.334228,-0.844794,0.587520,-0.479635,0.747835,0.459014,0.000000,0.000000,0.000000,-1,-0.001380,0.008299,0.003850,-0.004770,0.004897,0.002656
"2019-10-08 08:53:56.276 +0000",1570524836.276329,-2.334077,-0.844803,0.587433,-0.479700,0.747840,0.458936,0.000000,0.000000,0.000000,-1,-0.000133,0.011981,0.001337,-0.003378,0.004540,0.004717
"2019-10-08 08:53:56.299 +0000",1570524836.298624,-2.333769,-0.844857,0.587414,-0.479812,0.747876,0.458760,0.000000,0.000000,0.000000,-1,-0.001382,0.011985,0.002577,-0.003052,0.003161,0.000987
"2019-10-08 08:53:56.321 +0000",1570524836.320945,-2.333617,-0.844873,0.587350,-0.479873,0.747887,0.458680,0.000000,0.000000,0.000000,-1,-0.000117,0.005850,0.006353,-0.002945,0.003792,0.001892
"2019-10-08 08:53:56.343 +0000",1570524836.343222,-2.333522,-0.844877,0.587257,-0.479915,0.747889,0.458632,0.000000,0.000000,0.000000,-1,-0.006405,0.003373,0.002650,-0.005254,0.004171,0.002260
"2019-10-08 08:53:56.366 +0000",1570524836.365527,-2.333491,-0.844823,0.587092,-0.479958,0.747854,0.458645,0.000000,0.000000,0.000000,-1,-0.001375,0.007075,0.005100,-0.005836,0.006602,0.003391
"2019-10-08 08:53:56.388 +0000",1570524836.387838,-2.333478,-0.844894,0.586926,-0.479925,0.747901,0.458602,0.000000,0.000000,0.000000,-1,-0.002619,0.007085,0.007581,-0.004724,0.004220,0.004228
"2019-10-08 08:53:56.410 +0000",1570524836.410116,-2.333455,-0.844841,0.586793,-0.479965,0.747865,0.458618,0.000000,0.000000,0.000000,-1,-0.001440,0.004652,0.002472,-0.004013,0.003386,0.003494
"2019-10-08 08:53:56.432 +0000",1570524836.432423,-2.333295,-0.844769,0.586774,-0.480077,0.747817,0.458579,0.000000,0.000000,0.000000,-1,-0.000176,0.004663,0.004953,-0.005900,0.002320,0.003381
"2019-10-08 08:53:56.455 +0000",1570524836.454731,-2.333298,-0.844761,0.586656,-0.480080,0.747812,0.458584,0.000000,0.000000,0.000000,-1,-0.003942,-0.000259,0.004995,-0.003898,0.004400,0.003635
"2019-10-08 08:53:56.477 +0000",1570524836.477010,-2.333356,-0.844785,0.586552,-0.480040,0.747828,0.458600,0.000000,0.000000,0.000000,-1,-0.000179,-0.000257,0.004996,-0.004701,0.004186,0.003223
"2019-10-08 08:53:56.499 +0000",1570524836.499317,-2.333358,-0.844802,0.586419,-0.480030,0.747840,0.458592,0.000000,0.000000,0.000000,-1,-0.002686,0.002202,0.004973,-0.004620,0.004815,0.002620
"2019-10-08 08:53:56.522 +0000",1570524836.521625,-2.333481,-0.844878,0.586199,-0.479933,0.747890,0.458612,0.000000,0.000000,0.000000,-1,-0.001421,0.003442,0.007444,-0.001818,0.004521,0.002387
"2019-10-08 08:53:56.544 +0000",1570524836.543902,-2.333560,-0.844941,0.586056,-0.479863,0.747932,0.458617,0.000000,0.000000,0.000000,-1,-0.000183,0.000968,0.003745,-0.004131,0.004204,0.001878
"2019-10-08 08:53:56.566 +0000",1570524836.566211,-2.333569,-0.844937,0.585958,-0.479861,0.747929,0.458623,0.000000,0.000000,0.000000,-1,0.001071,0.000969,0.003745,-0.003736,0.003230,0.002787
"2019-10-08 08:53:56.589 +0000",1570524836.588517,-2.333412,-0.844981,0.585901,-0.479909,0.747958,0.458526,0.000000,0.000000,0.000000,-1,-0.000209,0.007168,0.006011,-0.004436,0.001813,0.001435
"2019-10-08 08:53:56.611 +0000",1570524836.610826,-2.333397,-0.845022,0.585748,-0.479894,0.747985,0.458497,0.000000,0.000000,0.000000,-1,-0.005227,0.005936,0.006019,-0.003947,0.004380,0.001525
"2019-10-08 08:53:56.633 +0000",1570524836.633103,-2.333278,-0.844982,0.585711,-0.479970,0.747959,0.458461,0.000000,0.000000,0.000000,-1,-0.002739,0.005918,0.001058,-0.003535,0.004406,0.004003
"2019-10-08 08:53:56.655 +0000",1570524836.655412,-2.333291,-0.844965,0.585542,-0.479973,0.747948,0.458476,0.000000,0.000000,0.000000,-1,-0.000218,0.008389,0.003518,-0.003410,0.003624,0.005956
"2019-10-08 08:53:56.678 +0000",1570524836.677719,-2.333323,-0.844954,0.585361,-0.479964,0.747941,0.458496,0.000000,0.000000,0.000000,-1,-0.002728,-0.000218,0.004834,-0.005723,0.003326,0.002258
"2019-10-08 08:53:56.700 +0000",1570524836.699997,-2.333485,-0.845061,0.585144,-0.479832,0.748011,0.458519,0.000000,0.000000,0.000000,-1,-0.007733,-0.005126,0.008597,-0.005260,0.007070,0.000694
"2019-10-08 08:53:56.722 +0000",1570524836.722305,-2.333675,-0.844850,0.584845,-0.479859,0.747871,0.458720,0.000000,0.000000,0.000000,-1,-0.006489,0.002241,0.004810,-0.005507,0.004570,0.005468
"2019-10-08 08:53:56.745 +0000",1570524836.744610,-2.333656,-0.844716,0.584651,-0.479940,0.747782,0.458780,0.000000,0.000000,0.000000,-1,-0.002738,0.008379,0.001035,-0.005304,0.005086,0.004523
"2019-10-08 08:53:56.767 +0000",1570524836.766914,-2.333640,-0.844733,0.584541,-0.479938,0.747794,0.458763,0.000000,0.000000,0.000000,-1,-0.001520,0.002256,-0.000301,-0.005596,0.007165,0.003212
"2019-10-08 08:53:56.789 +0000",1570524836.789199,-2.333689,-0.844689,0.584527,-0.479940,0.747764,0.458809,0.000000,0.000000,0.000000,-1,-0.006532,-0.005116,0.002243,-0.004328,0.002220,0.000511
"2019-10-08 08:53:56.812 +0000",1570524836.811505,-2.333860,-0.844457,0.584410,-0.479987,0.747611,0.459011,0.000000,0.000000,0.000000,-1,-0.014060,-0.007579,0.002261,-0.005960,0.002435,0.001972
"2019-10-08 08:53:56.834 +0000",1570524836.833809,-2.333963,-0.844317,0.584349,-0.480015,0.747518,0.459133,0.000000,0.000000,0.000000,-1,-0.001516,-0.007573,0.002266,-0.006237,0.005015,0.002385
"2019-10-08 08:53:56.856 +0000",1570524836.856086,-2.334209,-0.844289,0.584119,-0.479917,0.747499,0.459266,0.000000,0.000000,0.000000,-1,-0.004021,-0.001424,0.002210,-0.002627,0.004912,0.003305
"2019-10-08 08:53:56.878 +0000",1570524836.878399,-2.334417,-0.844346,0.583900,-0.479790,0.747537,0.459336,0.000000,0.000000,0.000000,-1,-0.001500,0.002277,0.004660,-0.000388,0.002432,0.002471
"2019-10-08 08:53:56.901 +0000",1570524836.900676,-2.334453,-0.844404,0.583783,-0.479743,0.747576,0.459323,0.000000,0.000000,0.000000,-1,-0.000250,0.002273,0.003420,-0.001504,0.003706,0.002011
"2019-10-08 08:53:56.923 +0000",1570524836.922985,-2.334391,-0.844377,0.583728,-0.479786,0.747558,0.459307,0.000000,0.000000,0.000000,-1,-0.004007,0.004736,0.004637,-0.005062,0.004823,0.003492
"2019-10-08 08:53:56.945 +0000",1570524836.945293,-2.334420,-0.844374,0.583591,-0.479774,0.747556,0.459323,0.000000,0.000000,0.000000,-1,-0.004043,-0.001403,0.000833,-0.003472,0.005359,0.003186
"2019-10-08 08:53:56.968 +0000",1570524836.967589,-2.334413,-0.844377,0.583454,-0.479776,0.747558,0.459318,0.000000,0.000000,0.000000,-1,-0.002768,0.007223,0.004479,-0.003424,0.003159,0.002612
"2019-10-08 08:53:56.990 +0000",1570524836.989877,-2.334262,-0.844460,0.583367,-0.479801,0.747612,0.459202,0.000000,0.000000,0.000000,-1,0.002242,0.010906,0.001967,-0.004650,0.004020,0.004756
"2019-10-08 08:53:57.012 +0000",1570524837.012186,-2.334037,-0.844419,0.583331,-0.479926,0.747585,0.459115,0.000000,0.000000,0.000000,-1,-0.001509,0.014604,0.004413,-0.003533,0.006534,0.003729
"2019-10-08 08:53:57.034 +0000",1570524837.034493,-2.333747,-0.844317,0.583264,-0.480114,0.747518,0.459029,0.000000,0.000000,0.000000,-1,-0.006533,0.012137,0.003192,-0.002506,0.002559,0.003464
"2019-10-08 08:53:57.057 +0000",1570524837.056772,-2.333600,-0.844299,0.583166,-0.480191,0.747506,0.458968,0.000000,0.000000,0.000000,-1,-0.002758,0.007233,0.006959,-0.004321,0.002632,0.001222
"2019-10-08 08:53:57.079 +0000",1570524837.079080,-2.333586,-0.844261,0.583029,-0.480218,0.747481,0.458981,0.000000,0.000000,0.000000,-1,-0.002775,0.003529,0.003269,-0.006278,0.003725,0.003315
"2019-10-08 08:53:57.101 +0000",1570524837.101386,-2.333472,-0.844166,0.582947,-0.480322,0.747417,0.458975,0.000000,0.000000,0.000000,-1,-0.007783,0.003537,0.005747,-0.006357,0.004261,0.001749
"2019-10-08 08:53:57.124 +0000",1570524837.123674,-2.333506,-0.844201,0.582733,-0.480287,0.747441,0.458973,0.000000,0.000000,0.000000,-1,-0.001516,0.009709,0.005559,-0.003508,0.004970,0.003566
"2019-10-08 08:53:57.146 +0000",1570524837.145967,-2.333542,-0.844212,0.582498,-0.480265,0.747448,0.458985,0.000000,0.000000,0.000000,-1,-0.005274,0.002336,0.008104,-0.004949,0.004750,0.002501
"2019-10-08 08:53:57.168 +0000",1570524837.168267,-2.333411,-0.844168,0.582438,-0.480349,0.747419,0.458945,0.000000,0.000000,0.000000,-1,-0.006542,0.003552,0.004371,-0.005781,0.005282,0.001352
"2019-10-08 08:53:57.191 +0000",1570524837.190560,-2.333462,-0.844288,0.582294,-0.480260,0.747499,0.458907,0.000000,0.000000,0.000000,-1,-0.000258,-0.000121,0.008128,-0.000224,0.003768,0.000993
"2019-10-08 08:53:57.213 +0000",1570524837.212866,-2.333537,-0.844351,0.582134,-0.480192,0.747540,0.458911,0.000000,0.000000,0.000000,-1,-0.001526,0.001094,0.004395,-0.003237,0.004612,0.003324
"2019-10-08 08:53:57.235 +0000",1570524837.235174,-2.333611,-0.844442,0.581960,-0.480109,0.747601,0.458899,0.000000,0.000000,0.000000,-1,-0.001526,0.001094,0.004395,-0.002038,0.004566,0.002389
"2019-10-08 08:53:57.257 +0000",1570524837.257451,-2.333781,-0.844455,0.581728,-0.480024,0.747609,0.458974,0.000000,0.000000,0.000000,-1,-0.004040,0.001088,0.003153,-0.002932,0.006190,0.004084
"2019-10-08 08:53:57.280 +0000",1570524837.279760,-2.333876,-0.844524,0.581599,-0.479943,0.747655,0.458984,0.000000,0.000000,0.000000,-1,-0.000288,-0.000150,0.000685,-0.003943,0.005443,0.003326
"2019-10-08 08:53:57.302 +0000",1570524837.302067,-2.333903,-0.844524,0.581472,-0.479931,0.747655,0.458997,0.000000,0.000000,0.000000,-1,-0.002782,0.002334,0.004260,-0.002873,0.003825,0.002581
"2019-10-08 08:53:57.324 +0000",1570524837.324374,-2.333806,-0.844492,0.581423,-0.479993,0.747634,0.458967,0.000000,0.000000,0.000000,-1,-0.004040,0.003560,0.003007,-0.003619,0.005418,0.002367
"2019-10-08 08:53:57.347 +0000",1570524837.346664,-2.333721,-0.844434,0.581324,-0.480063,0.747595,0.458956,0.000000,0.000000,0.000000,-1,-0.001536,0.004786,0.001757,-0.004511,0.003244,0.003187
"2019-10-08 08:53:57.369 +0000",1570524837.368960,-2.333657,-0.844419,0.581230,-0.480100,0.747585,0.458933,0.000000,0.000000,0.000000,-1,-0.002790,0.006016,0.001745,-0.006212,0.004566,0.002676
"2019-10-08 08:53:57.391 +0000",1570524837.391268,-2.333483,-0.844395,0.581248,-0.480193,0.747570,0.458862,0.000000,0.000000,0.000000,-1,-0.000278,0.002332,0.003019,-0.003495,0.003727,0.002625
"2019-10-08 08:53:57.414 +0000",1570524837.413559,-2.333259,-0.844336,0.581293,-0.480328,0.747530,0.458785,0.000000,0.000000,0.000000,-1,0.002238,0.006028,0.004227,-0.006306,0.004209,0.001862
"2019-10-08 08:53:57.436 +0000",1570524837.435854,-2.333276,-0.844336,0.581192,-0.480320,0.747530,0.458793,0.000000,0.000000,0.000000,-1,-0.002794,-0.000134,0.001799,-0.002499,0.003751,0.004647
"2019-10-08 08:53:57.458 +0000",1570524837.458163,-2.333298,-0.844347,0.581039,-0.480304,0.747537,0.458799,0.000000,0.000000,0.000000,-1,-0.007796,-0.000121,0.005518,-0.005490,0.005637,0.001696
"2019-10-08 08:53:57.480 +0000",1570524837.480442,-2.333395,-0.844229,0.580803,-0.480323,0.747459,0.458906,0.000000,0.000000,0.000000,-1,-0.010307,-0.001354,0.004169,-0.006157,0.005806,0.005648
"2019-10-08 08:53:57.503 +0000",1570524837.502751,-2.333472,-0.844150,0.580543,-0.480330,0.747407,0.458984,0.000000,0.000000,0.000000,-1,-0.002777,0.004800,0.004118,-0.005464,0.003814,0.005692
"2019-10-08 08:53:57.525 +0000",1570524837.525058,-2.333490,-0.844108,0.580445,-0.480345,0.747379,0.459014,0.000000,0.000000,0.000000,-1,-0.001545,0.001091,-0.000811,-0.003633,0.005566,0.002778
"2019-10-08 08:53:57.547 +0000",1570524837.547336,-2.333517,-0.844246,0.580454,-0.480258,0.747471,0.458955,0.000000,0.000000,0.000000,-1,-0.002796,-0.002594,0.000462,-0.001797,0.005566,0.002623
"2019-10-08 08:53:57.570 +0000",1570524837.569640,-2.333713,-0.844097,0.580253,-0.480249,0.747372,0.459126,0.000000,0.000000,0.000000,-1,-0.005291,-0.003811,0.004193,-0.005561,0.004078,0.001933
"2019-10-08 08:53:57.592 +0000",1570524837.591930,-2.334061,-0.844074,0.580011,-0.480101,0.747356,0.459305,0.000000,0.000000,0.000000,-1,-0.007811,-0.006282,0.001732,-0.008027,0.005223,0.003021
"2019-10-08 08:53:57.614 +0000",1570524837.614228,-2.334303,-0.843999,0.579750,-0.480031,0.747306,0.459460,0.000000,0.000000,0.000000,-1,-0.004042,0.002331,0.001658,-0.001277,0.006936,0.004529
"2019-10-08 08:53:57.637 +0000",1570524837.636547,-2.334622,-0.844030,0.579384,-0.479867,0.747327,0.459597,0.000000,0.000000,0.000000,-1,-0.002787,0.004791,0.001637,0.000253,0.003039,0.003186
"2019-10-08 08:53:57.659 +0000",1570524837.658845,-2.334550,-0.844089,0.579311,-0.479869,0.747366,0.459533,0.000000,0.000000,0.000000,-1,-0.004031,0.004790,0.001526,-0.002126,0.004801,0.000535
"2019-10-08 08:53:57.681 +0000",1570524837.681153,-2.334458,-0.844118,0.579252,-0.479895,0.747386,0.459473,0.000000,0.000000,0.000000,-1,-0.002773,0.002336,0.002789,-0.002466,0.004339,0.002807
"2019-10-08 08:53:57.703 +0000",1570524837.703430,-2.334521,-0.844103,0.579056,-0.479874,0.747375,0.459512,0.000000,0.000000,0.000000,-1,-0.005272,0.002344,0.005268,-0.005202,0.005738,0.002708
"2019-10-08 08:53:57.726 +0000",1570524837.725739,-2.334437,-0.844092,0.578974,-0.479919,0.747368,0.459477,0.000000,0.000000,0.000000,-1,-0.004034,0.007246,0.000263,-0.005738,0.006141,0.003185
"2019-10-08 08:53:57.748 +0000",1570524837.748047,-2.334297,-0.843960,0.578859,-0.480055,0.747280,0.459478,0.000000,0.000000,0.000000,-1,-0.002753,0.009731,0.006444,-0.006960,0.002232,0.005030
"2019-10-08 08:53:57.770 +0000",1570524837.770324,-2.334121,-0.843864,0.578762,-0.480187,0.747217,0.459442,0.000000,0.000000,0.000000,-1,-0.004012,0.010956,0.005191,-0.005210,0.004126,0.004120
"2019-10-08 08:53:57.793 +0000",1570524837.792645,-2.333839,-0.843881,0.578754,-0.480307,0.747228,0.459299,0.000000,0.000000,0.000000,-1,-0.002768,0.009717,0.002722,-0.003900,0.004252,0.002600
"2019-10-08 08:53:57.815 +0000",1570524837.814938,-2.333806,-0.843858,0.578599,-0.480335,0.747213,0.459295,0.000000,0.000000,0.000000,-1,-0.004022,0.003571,0.004016,-0.003949,0.004496,0.002360
"2019-10-08 08:53:57.837 +0000",1570524837.837217,-2.333668,-0.843770,0.578628,-0.480446,0.747154,0.459274,0.000000,0.000000,0.000000,-1,-0.001496,-0.001349,0.005196,-0.007500,0.004570,0.003800
"2019-10-08 08:53:57.860 +0000",1570524837.859525,-2.333568,-0.843763,0.578551,-0.480496,0.747150,0.459229,0.000000,0.000000,0.000000,-1,-0.006514,0.006025,0.003888,-0.004947,0.003705,0.001983
"2019-10-08 08:53:57.882 +0000",1570524837.881834,-2.333627,-0.843782,0.578307,-0.480458,0.747162,0.459248,0.000000,0.000000,0.000000,-1,-0.005236,0.003590,0.010112,-0.003306,0.007019,0.004192
"2019-10-08 08:53:57.904 +0000",1570524837.904111,-2.333601,-0.843830,0.578066,-0.480444,0.747194,0.459211,0.000000,0.000000,0.000000,-1,-0.003994,0.007266,0.006358,-0.004953,0.004622,0.002276
"2019-10-08 08:53:57.926 +0000",1570524837.926419,-2.333497,-0.843945,0.577927,-0.480430,0.747271,0.459101,0.000000,0.000000,0.000000,-1,-0.003991,0.003581,0.007631,-0.004037,0.006239,0.000402
"2019-10-08 08:53:57.949 +0000",1570524837.948725,-2.333715,-0.843949,0.577605,-0.480328,0.747273,0.459204,0.000000,0.000000,0.000000,-1,-0.005262,0.001106,0.003931,-0.001743,0.005260,0.001642
"2019-10-08 08:53:57.971 +0000",1570524837.971003,-2.333915,-0.844044,0.577367,-0.480184,0.747336,0.459251,0.000000,0.000000,0.000000,-1,-0.005248,-0.000109,0.007664,-0.003199,0.004998,0.001809
"2019-10-08 08:53:57.993 +0000",1570524837.993314,-2.334013,-0.844072,0.577182,-0.480124,0.747355,0.459283,0.000000,0.000000,0.000000,-1,-0.001509,0.002329,0.001441,-0.003137,0.004766,0.004294
"2019-10-08 08:53:58.016 +0000",1570524838.015607,-2.334262,-0.844052,0.576874,-0.480021,0.747342,0.459413,0.000000,0.000000,0.000000,-1,-0.003987,0.004787,0.003799,-0.002401,0.004795,0.005934
"2019-10-08 08:53:58.038 +0000",1570524838.037927,-2.334254,-0.844071,0.576778,-0.480015,0.747354,0.459400,0.000000,0.000000,0.000000,-1,-0.000224,0.004789,0.003800,-0.000241,0.003058,0.004452
"2019-10-08 08:53:58.060 +0000",1570524838.060205,-2.334347,-0.844074,0.576590,-0.479970,0.747356,0.459443,0.000000,0.000000,0.000000,-1,-0.001478,0.004788,0.003800,-0.000941,0.003773,0.004760
"2019-10-08 08:53:58.083 +0000",1570524838.082513,-2.334375,-0.844077,0.576420,-0.479955,0.747358,0.459455,0.000000,0.000000,0.000000,-1,-0.001471,0.008483,0.005007,-0.002223,0.004259,0.003634
"2019-10-08 08:53:58.105 +0000",1570524838.104821,-2.334201,-0.844139,0.576385,-0.480002,0.747399,0.459339,0.000000,0.000000,0.000000,-1,-0.001476,0.008479,0.003767,-0.004358,0.003241,0.004513
"2019-10-08 08:53:58.127 +0000",1570524838.127098,-2.333984,-0.844143,0.576378,-0.480099,0.747402,0.459233,0.000000,0.000000,0.000000,-1,-0.000242,0.008460,-0.001195,-0.004627,0.006062,0.001506
"2019-10-08 08:53:58.149 +0000",1570524838.149407,-2.333604,-0.844164,0.576505,-0.480262,0.747416,0.459039,0.000000,0.000000,0.000000,-1,0.002288,0.009711,0.003757,-0.005471,0.005803,0.002112
"2019-10-08 08:53:58.172 +0000",1570524838.171713,-2.333387,-0.844263,0.576542,-0.480309,0.747482,0.458884,0.000000,0.000000,0.000000,-1,0.002289,0.010941,0.003746,-0.003212,0.005509,0.002618
"2019-10-08 08:53:58.194 +0000",1570524838.193992,-2.333374,-0.844272,0.576463,-0.480309,0.747488,0.458873,0.000000,0.000000,0.000000,-1,-0.002715,0.003540,0.002473,-0.002616,0.004191,0.003560
"2019-10-08 08:53:58.216 +0000",1570524838.216299,-2.333342,-0.844246,0.576375,-0.480339,0.747470,0.458872,0.000000,0.000000,0.000000,-1,-0.005237,-0.000161,0.000024,-0.004586,0.007702,0.004019
"2019-10-08 08:53:58.239 +0000",1570524838.238580,-2.333387,-0.844297,0.576249,-0.480290,0.747504,0.458867,0.000000,0.000000,0.000000,-1,-0.005228,-0.002611,0.002526,-0.005168,0.005197,0.002055
"2019-10-08 08:53:58.261 +0000",1570524838.260885,-2.333606,-0.844258,0.575961,-0.480211,0.747478,0.458992,0.000000,0.000000,0.000000,-1,-0.007729,0.001083,0.003733,-0.005202,0.006230,0.000053
"2019-10-08 08:53:58.283 +0000",1570524838.283192,-2.333814,-0.844073,0.575659,-0.480215,0.747356,0.459187,0.000000,0.000000,0.000000,-1,-0.005224,0.003540,0.002472,-0.004724,0.003941,0.005748
"2019-10-08 08:53:58.305 +0000",1570524838.305499,-2.333657,-0.844010,0.575633,-0.480321,0.747314,0.459145,0.000000,0.000000,0.000000,-1,-0.001470,0.005992,-0.000030,-0.005504,0.005662,0.002525
"2019-10-08 08:53:58.328 +0000",1570524838.327778,-2.333631,-0.844018,0.575552,-0.480329,0.747319,0.459128,0.000000,0.000000,0.000000,-1,-0.007739,0.001074,0.001252,-0.001421,0.006160,-0.000647
"2019-10-08 08:53:58.350 +0000",1570524838.350085,-2.333748,-0.843891,0.575380,-0.480344,0.747234,0.459250,0.000000,0.000000,0.000000,-1,-0.006486,-0.001385,0.001274,-0.004992,0.002247,0.001581
"2019-10-08 08:53:58.372 +0000",1570524838.372394,-2.334007,-0.843711,0.575194,-0.480322,0.747115,0.459467,0.000000,0.000000,0.000000,-1,-0.005196,-0.008767,0.004972,-0.005808,0.005051,0.001928
"2019-10-08 08:53:58.395 +0000",1570524838.394680,-2.334277,-0.843563,0.574989,-0.480278,0.747017,0.459673,0.000000,0.000000,0.000000,-1,-0.006458,-0.005087,0.002458,-0.002434,0.005364,0.004545
"2019-10-08 08:53:58.417 +0000",1570524838.416985,-2.334452,-0.843613,0.574808,-0.480170,0.747050,0.459731,0.000000,0.000000,0.000000,-1,-0.000182,0.002296,0.002395,0.000434,0.005239,0.003876
"2019-10-08 08:53:58.439 +0000",1570524838.439287,-2.334384,-0.843727,0.574731,-0.480141,0.747125,0.459640,0.000000,0.000000,0.000000,-1,0.002327,0.009673,0.001091,-0.002449,0.005103,0.002869
"2019-10-08 08:53:58.462 +0000",1570524838.461577,-2.334297,-0.843687,0.574670,-0.480202,0.747099,0.459619,0.000000,0.000000,0.000000,-1,-0.002699,0.004746,-0.000109,-0.005882,0.003786,0.002891
"2019-10-08 08:53:58.484 +0000",1570524838.483872,-2.334229,-0.843640,0.574620,-0.480258,0.747068,0.459611,0.000000,0.000000,0.000000,-1,-0.002699,0.004746,-0.000109,-0.003613,0.004992,0.003570
"2019-10-08 08:53:58.506 +0000",1570524838.506180,-2.334204,-0.843606,0.574492,-0.480288,0.747045,0.459616,0.000000,0.000000,0.000000,-1,-0.002686,0.001070,0.003646,-0.003919,0.005701,0.003443
"2019-10-08 08:53:58.528 +0000",1570524838.528488,-2.334189,-0.843646,0.574356,-0.480273,0.747072,0.459588,0.000000,0.000000,0.000000,-1,0.001081,0.007222,0.003592,-0.004361,0.004271,0.004233
"2019-10-08 08:53:58.551 +0000",1570524838.550764,-2.333995,-0.843639,0.574271,-0.480366,0.747067,0.459498,0.000000,0.000000,0.000000,-1,-0.001392,0.014581,0.003436,-0.006893,0.005130,0.002950
"2019-10-08 08:53:58.573 +0000",1570524838.573074,-2.333700,-0.843615,0.574259,-0.480515,0.747051,0.459369,0.000000,0.000000,0.000000,-1,-0.000150,0.010882,0.000988,-0.006118,0.005329,0.003888
"2019-10-08 08:53:58.595 +0000",1570524838.595381,-2.333500,-0.843581,0.574193,-0.480625,0.747029,0.459290,0.000000,0.000000,0.000000,-1,-0.003916,0.007190,0.001019,-0.003323,0.006343,0.002547
"2019-10-08 08:53:58.618 +0000",1570524838.617659,-2.333418,-0.843535,0.574123,-0.480688,0.746998,0.459275,0.000000,0.000000,0.000000,-1,-0.005154,0.001058,0.006034,-0.004878,0.002376,0.001693
"2019-10-08 08:53:58.640 +0000",1570524838.639966,-2.333535,-0.843572,0.573962,-0.480614,0.747022,0.459312,0.000000,0.000000,0.000000,-1,-0.001394,0.003515,0.004773,-0.004188,0.004900,0.004051
"2019-10-08 08:53:58.662 +0000",1570524838.662275,-2.333602,-0.843652,0.573750,-0.480540,0.747076,0.459303,0.000000,0.000000,0.000000,-1,-0.003905,0.007200,0.003499,-0.001730,0.005671,0.002428
"2019-10-08 08:53:58.685 +0000",1570524838.684573,-2.333688,-0.843634,0.573520,-0.480510,0.747063,0.459354,0.000000,0.000000,0.000000,-1,-0.006417,0.002279,0.003542,-0.003193,0.004295,0.003125
"2019-10-08 08:53:58.707 +0000",1570524838.706861,-2.333701,-0.843625,0.573347,-0.480509,0.747058,0.459365,0.000000,0.000000,0.000000,-1,-0.002658,0.004736,0.002281,-0.004110,0.004163,0.003465
"2019-10-08 08:53:58.729 +0000",1570524838.729168,-2.333746,-0.843707,0.573175,-0.480444,0.747112,0.459344,0.000000,0.000000,0.000000,-1,-0.002616,0.002262,0.004699,-0.001092,0.004139,0.002128
"2019-10-08 08:53:58.751 +0000",1570524838.751476,-2.333751,-0.843854,0.573070,-0.480363,0.747210,0.459270,0.000000,0.000000,0.000000,-1,0.004919,-0.000186,0.007205,-0.003585,0.005277,0.002064
"2019-10-08 08:53:58.774 +0000",1570524838.773754,-2.333791,-0.843914,0.572927,-0.480312,0.747250,0.459259,0.000000,0.000000,0.000000,-1,-0.005113,0.004731,0.007157,-0.001576,0.005390,0.003006
"2019-10-08 08:53:58.796 +0000",1570524838.796062,-2.333857,-0.843955,0.572759,-0.480259,0.747277,0.459269,0.000000,0.000000,0.000000,-1,-0.003870,0.002261,0.004699,-0.001949,0.006278,0.003210
"2019-10-08 08:53:58.818 +0000",1570524838.818340,-2.333860,-0.844028,0.572671,-0.480218,0.747326,0.459232,0.000000,0.000000,0.000000,-1,-0.000112,0.001028,0.003471,-0.001181,0.005375,0.001995
"2019-10-08 08:53:58.841 +0000",1570524838.840663,-2.333814,-0.844091,0.572614,-0.480205,0.747368,0.459178,0.000000,0.000000,0.000000,-1,-0.002634,0.003473,-0.000273,-0.002613,0.005303,0.002217
"2019-10-08 08:53:58.863 +0000",1570524838.862954,-2.333801,-0.844081,0.572492,-0.480217,0.747361,0.459177,0.000000,0.000000,0.000000,-1,-0.002624,0.003483,0.002208,-0.003838,0.003814,0.003012
"2019-10-08 08:53:58.885 +0000",1570524838.885263,-2.333794,-0.844052,0.572385,-0.480236,0.747342,0.459189,0.000000,0.000000,0.000000,-1,0.001138,0.002254,0.002220,-0.003132,0.003909,0.001856
"2019-10-08 08:53:58.908 +0000",1570524838.907540,-2.333560,-0.844025,0.572436,-0.480358,0.747323,0.459090,0.000000,0.000000,0.000000,-1,0.002442,0.008390,0.004564,-0.005375,0.002951,0.003037
"2019-10-08 08:53:58.930 +0000",1570524838.929848,-2.333409,-0.843987,0.572410,-0.480448,0.747299,0.459037,0.000000,0.000000,0.000000,-1,0.002441,0.007160,0.004575,-0.005835,0.002351,0.003030
"2019-10-08 08:53:58.952 +0000",1570524838.952155,-2.333246,-0.843913,0.572449,-0.480562,0.747249,0.458997,0.000000,0.000000,0.000000,-1,-0.001325,0.003469,0.004606,-0.006682,0.004047,0.004168
"2019-10-08 08:53:58.974 +0000",1570524838.974434,-2.333210,-0.843831,0.572291,-0.480623,0.747195,0.459022,0.000000,0.000000,0.000000,-1,-0.003834,0.003468,0.004604,-0.004118,0.004606,0.004097
"2019-10-08 08:53:58.997 +0000",1570524838.996741,-2.333293,-0.843912,0.572173,-0.480541,0.747249,0.459020,0.000000,0.000000,0.000000,-1,-0.001320,-0.003902,0.007152,-0.004169,0.004445,0.001368
"2019-10-08 08:53:59.019 +0000",1570524839.019049,-2.333432,-0.843860,0.571999,-0.480506,0.747214,0.459114,0.000000,0.000000,0.000000,-1,-0.011383,-0.001474,-0.000317,-0.005471,0.005029,0.002006
"2019-10-08 08:53:59.041 +0000",1570524839.041327,-2.333601,-0.843624,0.571678,-0.480555,0.747057,0.459317,0.000000,0.000000,0.000000,-1,-0.006356,0.005913,0.000859,-0.004323,0.004255,0.007129
"2019-10-08 08:53:59.064 +0000",1570524839.063632,-2.333717,-0.843616,0.571469,-0.480507,0.747052,0.459377,0.000000,0.000000,0.000000,-1,0.001169,0.004686,0.000874,-0.003975,0.006733,0.004978
"2019-10-08 08:53:59.086 +0000",1570524839.085943,-2.333709,-0.843614,0.571396,-0.480511,0.747050,0.459374,0.000000,0.000000,0.000000,-1,-0.001301,-0.001488,0.002088,-0.001590,0.007405,0.002876
"2019-10-08 08:53:59.108 +0000",1570524839.108250,-2.333866,-0.843573,0.571248,-0.480462,0.747023,0.459471,0.000000,0.000000,0.000000,-1,-0.006320,-0.003950,0.002108,-0.003990,0.004259,0.001421
"2019-10-08 08:53:59.131 +0000",1570524839.130533,-2.334091,-0.843411,0.571092,-0.480445,0.746916,0.459662,0.000000,0.000000,0.000000,-1,-0.011339,-0.006412,0.002128,-0.003945,0.006121,0.003579
"2019-10-08 08:53:59.153 +0000",1570524839.152837,-2.334265,-0.843307,0.570945,-0.480422,0.746846,0.459800,0.000000,0.000000,0.000000,-1,-0.003821,-0.002728,-0.000383,-0.003740,0.007136,0.004251
"2019-10-08 08:53:59.175 +0000",1570524839.175144,-2.334403,-0.843378,0.570753,-0.480320,0.746894,0.459829,0.000000,0.000000,0.000000,-1,-0.003802,0.002207,0.003295,0.001804,0.005792,0.002314
"2019-10-08 08:53:59.197 +0000",1570524839.197422,-2.334504,-0.843459,0.570605,-0.480230,0.746947,0.459836,0.000000,0.000000,0.000000,-1,-0.001288,0.003443,0.004526,-0.000361,0.004502,0.002902
"2019-10-08 08:53:59.220 +0000",1570524839.219730,-2.334427,-0.843451,0.570592,-0.480269,0.746942,0.459803,0.000000,0.000000,0.000000,-1,-0.001307,0.004654,-0.000447,-0.005311,0.006628,0.002493
"2019-10-08 08:53:59.242 +0000",1570524839.242014,-2.334396,-0.843363,0.570537,-0.480331,0.746883,0.459834,0.000000,0.000000,0.000000,-1,-0.001308,0.003424,-0.000436,-0.004776,0.004261,0.004415
"2019-10-08 08:53:59.264 +0000",1570524839.264314,-2.334359,-0.843374,0.570504,-0.480342,0.746891,0.459810,0.000000,0.000000,0.000000,-1,-0.002526,-0.000296,-0.000478,-0.003819,0.007503,0.003081
"2019-10-08 08:53:59.287 +0000",1570524839.286633,-2.334329,-0.843382,0.570433,-0.480352,0.746896,0.459792,0.000000,0.000000,0.000000,-1,-0.003772,0.004628,0.000719,-0.002604,0.005087,0.004838
"2019-10-08 08:53:59.309 +0000",1570524839.308931,-2.334177,-0.843384,0.570369,-0.480420,0.746897,0.459718,0.000000,0.000000,0.000000,-1,-0.003754,0.009563,0.004396,-0.005511,0.004354,0.003142
"2019-10-08 08:53:59.331 +0000",1570524839.331233,-2.333899,-0.843423,0.570329,-0.480527,0.746924,0.459564,0.000000,0.000000,0.000000,-1,0.001256,0.014477,0.001874,-0.004306,0.006464,0.004609
"2019-10-08 08:53:59.354 +0000",1570524839.353517,-2.333629,-0.843404,0.570289,-0.480661,0.746911,0.459444,0.000000,0.000000,0.000000,-1,-0.002509,0.010785,0.001905,-0.004568,0.004523,0.002745
"2019-10-08 08:53:59.376 +0000",1570524839.375823,-2.333613,-0.843430,0.570157,-0.480655,0.746928,0.459423,0.000000,0.000000,0.000000,-1,-0.002499,0.003419,0.005691,-0.003919,0.003270,0.002308
"2019-10-08 08:53:59.398 +0000",1570524839.398102,-2.333606,-0.843377,0.570051,-0.480687,0.746893,0.459447,0.000000,0.000000,0.000000,-1,-0.003756,0.005874,0.004428,-0.006374,0.004709,0.001704
"2019-10-08 08:53:59.420 +0000",1570524839.420409,-2.333769,-0.843357,0.569752,-0.480623,0.746880,0.459535,0.000000,0.000000,0.000000,-1,-0.007504,0.005887,0.008148,-0.005110,0.006584,0.004545
"2019-10-08 08:53:59.443 +0000",1570524839.442703,-2.333791,-0.843308,0.569566,-0.480639,0.746847,0.459571,0.000000,0.000000,0.000000,-1,-0.003706,0.003391,0.006855,-0.003797,0.003351,0.003502
"2019-10-08 08:53:59.465 +0000",1570524839.465025,-2.333762,-0.843305,0.569449,-0.480654,0.746845,0.459559,0.000000,0.000000,0.000000,-1,-0.002456,0.004617,0.005604,-0.004621,0.004071,0.003377
"2019-10-08 08:53:59.487 +0000",1570524839.487302,-2.333806,-0.843396,0.569315,-0.480585,0.746905,0.459533,0.000000,0.000000,0.000000,-1,0.001310,0.000933,0.006879,-0.003027,0.005673,0.002152
"2019-10-08 08:53:59.510 +0000",1570524839.509593,-2.333892,-0.843511,0.569098,-0.480483,0.746982,0.459515,0.000000,0.000000,0.000000,-1,-0.001201,0.004618,0.005605,-0.001756,0.005215,0.001316
"2019-10-08 08:53:59.532 +0000",1570524839.531920,-2.333939,-0.843588,0.568961,-0.480420,0.747033,0.459498,0.000000,0.000000,0.000000,-1,-0.001217,0.003373,0.001894,-0.002796,0.005210,0.002355
"2019-10-08 08:53:59.554 +0000",1570524839.554196,-2.334057,-0.843598,0.568773,-0.480360,0.747040,0.459550,0.000000,0.000000,0.000000,-1,-0.002468,0.000917,0.003156,-0.002108,0.004913,0.003722
"2019-10-08 08:53:59.577 +0000",1570524839.576557,-2.334106,-0.843645,0.568682,-0.480312,0.747071,0.459549,0.000000,0.000000,0.000000,-1,0.000033,0.004599,0.000644,-0.003514,0.005492,0.003052
"2019-10-08 08:53:59.599 +0000",1570524839.598812,-2.334151,-0.843603,0.568596,-0.480314,0.747043,0.459592,0.000000,0.000000,0.000000,-1,-0.003728,0.000912,0.001916,-0.003252,0.004574,0.004199
"2019-10-08 08:53:59.621 +0000",1570524839.621088,-2.334104,-0.843623,0.568564,-0.480325,0.747057,0.459559,0.000000,0.000000,0.000000,-1,0.005094,0.000882,0.001848,-0.003043,0.004881,0.002187
"2019-10-08 08:53:59.643 +0000",1570524839.643398,-2.334030,-0.843662,0.568534,-0.480338,0.747082,0.459503,0.000000,0.000000,0.000000,-1,0.000080,0.007030,0.001791,-0.003213,0.004886,0.002548
"2019-10-08 08:53:59.666 +0000",1570524839.665690,-2.333866,-0.843673,0.568496,-0.480407,0.747090,0.459419,0.000000,0.000000,0.000000,-1,-0.002423,0.007034,0.003031,-0.006028,0.004726,0.003059
"2019-10-08 08:53:59.688 +0000",1570524839.687982,-2.333804,-0.843664,0.568425,-0.480441,0.747084,0.459394,0.000000,0.000000,0.000000,-1,-0.002435,0.004564,0.000571,-0.005506,0.004930,0.003176
"2019-10-08 08:53:59.710 +0000",1570524839.710290,-2.333529,-0.843620,0.568544,-0.480591,0.747055,0.459284,0.000000,0.000000,0.000000,-1,0.000070,0.005791,-0.000679,-0.004883,0.005799,0.002309
"2019-10-08 08:53:59.733 +0000",1570524839.732589,-2.333532,-0.843690,0.568470,-0.480552,0.747101,0.459250,0.000000,0.000000,0.000000,-1,-0.002427,0.000884,0.003085,-0.002771,0.004074,0.003213
"2019-10-08 08:53:59.755 +0000",1570524839.754876,-2.333662,-0.843684,0.568285,-0.480495,0.747097,0.459316,0.000000,0.000000,0.000000,-1,-0.004918,-0.002788,0.008078,-0.006321,0.004994,0.003133
"2019-10-08 08:53:59.777 +0000",1570524839.777184,-2.333750,-0.843615,0.568152,-0.480492,0.747051,0.459393,0.000000,0.000000,0.000000,-1,-0.009944,-0.001569,0.005584,-0.005318,0.005695,0.002323
"2019-10-08 08:53:59.799 +0000",1570524839.799492,-2.334027,-0.843449,0.567697,-0.480454,0.746941,0.459612,0.000000,0.000000,0.000000,-1,-0.013663,0.003314,0.005469,-0.004623,0.004356,0.005094
"2019-10-08 08:53:59.822 +0000",1570524839.821800,-2.334151,-0.843409,0.567400,-0.480419,0.746914,0.459692,0.000000,0.000000,0.000000,-1,-0.006151,0.005763,0.001729,-0.003849,0.005466,0.002344
"2019-10-08 08:53:59.844 +0000",1570524839.844072,-2.334120,-0.843470,0.567415,-0.480400,0.746955,0.459646,0.000000,0.000000,0.000000,-1,0.000096,-0.001634,-0.003165,0.000008,0.005746,-0.000524
"2019-10-08 08:53:59.866 +0000",1570524839.866386,-2.334208,-0.843428,0.567345,-0.480383,0.746927,0.459710,0.000000,0.000000,0.000000,-1,-0.011180,-0.005315,0.000585,-0.002329,0.002722,0.000877
"2019-10-08 08:53:59.889 +0000",1570524839.888673,-2.334360,-0.843300,0.567207,-0.480381,0.746842,0.459849,0.000000,0.000000,0.000000,-1,-0.003639,-0.005297,0.004309,-0.004863,0.004791,0.002874
"2019-10-08 08:53:59.911 +0000",1570524839.910971,-2.334680,-0.843199,0.566945,-0.480289,0.746774,0.460055,0.000000,0.000000,0.000000,-1,-0.006151,-0.002842,0.003046,-0.003368,0.006766,0.006635
"2019-10-08 08:53:59.933 +0000",1570524839.933277,-2.335073,-0.843295,0.566596,-0.480056,0.746838,0.460194,0.000000,0.000000,0.000000,-1,-0.001141,0.000840,0.000535,0.001419,0.005618,0.003002
"2019-10-08 08:53:59.956 +0000",1570524839.955586,-2.335340,-0.843442,0.566317,-0.479854,0.746936,0.460246,0.000000,0.000000,0.000000,-1,-0.001129,0.004540,0.002984,0.000987,0.004605,0.002660
"2019-10-08 08:53:59.978 +0000",1570524839.977864,-2.335282,-0.843459,0.566276,-0.479872,0.746947,0.460209,0.000000,0.000000,0.000000,-1,-0.001091,0.005726,0.001665,-0.003511,0.004380,0.002696
"2019-10-08 08:54:00.000 +0000",1570524840.000172,-2.335201,-0.843374,0.566223,-0.479955,0.746891,0.460214,0.000000,0.000000,0.000000,-1,-0.002341,0.005731,0.002905,-0.005595,0.006527,0.003409
"2019-10-08 08:54:00.022 +0000",1570524840.022481,-2.335230,-0.843395,0.566086,-0.479930,0.746905,0.460218,0.000000,0.000000,0.000000,-1,0.001411,0.003263,0.000447,-0.001988,0.006040,0.002902
"2019-10-08 08:54:00.045 +0000",1570524840.044758,-2.335105,-0.843388,0.566050,-0.479992,0.746900,0.460161,0.000000,0.000000,0.000000,-1,-0.004856,0.003265,0.001685,-0.004658,0.005313,0.001371
"2019-10-08 08:54:00.067 +0000",1570524840.067065,-2.334837,-0.843334,0.566162,-0.480144,0.746864,0.460061,0.000000,0.000000,0.000000,-1,0.005172,0.008181,-0.000836,-0.007497,0.004616,0.002922
"2019-10-08 08:54:00.089 +0000",1570524840.089373,-2.334544,-0.843411,0.566181,-0.480237,0.746915,0.459880,0.000000,0.000000,0.000000,-1,0.000169,0.014339,0.001589,-0.003909,0.006854,0.002369
"2019-10-08 08:54:00.112 +0000",1570524840.111671,-2.334403,-0.843482,0.566123,-0.480264,0.746962,0.459776,0.000000,0.000000,0.000000,-1,-0.002346,0.004497,0.001675,-0.003364,0.004899,0.004168
"2019-10-08 08:54:00.134 +0000",1570524840.133959,-2.334443,-0.843483,0.565954,-0.480245,0.746964,0.459794,0.000000,0.000000,0.000000,-1,-0.003583,0.000825,0.006669,-0.006648,0.003616,0.002700
"2019-10-08 08:54:00.156 +0000",1570524840.156266,-2.334422,-0.843389,0.565858,-0.480305,0.746901,0.459833,0.000000,0.000000,0.000000,-1,-0.002292,-0.001679,0.005385,-0.007931,0.005540,0.004645
"2019-10-08 08:54:00.179 +0000",1570524840.178543,-2.334371,-0.843368,0.565797,-0.480339,0.746887,0.459819,0.000000,0.000000,0.000000,-1,-0.006062,0.003230,0.002859,-0.004600,0.004196,0.002110
"2019-10-08 08:54:00.201 +0000",1570524840.200851,-2.334331,-0.843402,0.565624,-0.480340,0.746909,0.459782,0.000000,0.000000,0.000000,-1,-0.002281,0.008167,0.006538,-0.004554,0.005242,0.004329
"2019-10-08 08:54:00.223 +0000",1570524840.223160,-2.334289,-0.843453,0.565483,-0.480332,0.746943,0.459736,0.000000,0.000000,0.000000,-1,-0.002282,0.005707,0.006560,-0.003174,0.005742,0.003002
"2019-10-08 08:54:00.245 +0000",1570524840.245467,-2.334303,-0.843540,0.565330,-0.480278,0.747001,0.459698,0.000000,0.000000,0.000000,-1,0.000218,0.000783,0.005364,-0.002510,0.005105,0.000995
"2019-10-08 08:54:00.268 +0000",1570524840.267761,-2.334409,-0.843633,0.565145,-0.480179,0.747063,0.459700,0.000000,0.000000,0.000000,-1,-0.002285,0.000787,0.006604,-0.002288,0.004905,0.002290
"2019-10-08 08:54:00.290 +0000",1570524840.290052,-2.334497,-0.843724,0.564939,-0.480090,0.747124,0.459695,0.000000,0.000000,0.000000,-1,-0.001025,0.002022,0.007834,-0.004194,0.005913,0.002920
"2019-10-08 08:54:00.312 +0000",1570524840.312361,-2.334582,-0.843774,0.564736,-0.480024,0.747157,0.459711,0.000000,0.000000,0.000000,-1,0.000207,0.005689,0.001599,-0.003619,0.005666,0.003164
"2019-10-08 08:54:00.335 +0000",1570524840.334643,-2.334644,-0.843850,0.564609,-0.479954,0.747207,0.459701,0.000000,0.000000,0.000000,-1,0.000257,0.001966,0.004049,-0.001430,0.005966,0.002747
"2019-10-08 08:54:00.357 +0000",1570524840.356946,-2.334583,-0.843850,0.564577,-0.479983,0.747207,0.459672,0.000000,0.000000,0.000000,-1,0.000254,0.004421,0.002786,-0.002256,0.006882,0.002532
"2019-10-08 08:54:00.379 +0000",1570524840.379254,-2.334548,-0.843864,0.564487,-0.479991,0.747216,0.459648,0.000000,0.000000,0.000000,-1,-0.001005,0.005646,0.001535,-0.002599,0.006583,0.002846
"2019-10-08 08:54:00.402 +0000",1570524840.401531,-2.334385,-0.843820,0.564489,-0.480089,0.747188,0.459592,0.000000,0.000000,0.000000,-1,-0.002258,0.008106,0.001512,-0.005354,0.005208,0.004031
"2019-10-08 08:54:00.424 +0000",1570524840.423839,-2.334218,-0.843854,0.564445,-0.480148,0.747210,0.459495,0.000000,0.000000,0.000000,-1,0.001505,0.008108,0.001513,-0.005768,0.002988,0.003183
"2019-10-08 08:54:00.446 +0000",1570524840.446146,-2.333978,-0.843817,0.564497,-0.480278,0.747185,0.459399,0.000000,0.000000,0.000000,-1,-0.002265,0.004411,0.000304,-0.005211,0.005668,0.002943
"2019-10-08 08:54:00.468 +0000",1570524840.468425,-2.333927,-0.843883,0.564401,-0.480266,0.747229,0.459340,0.000000,0.000000,0.000000,-1,-0.002261,0.003186,0.001555,-0.002354,0.007730,0.003932
"2019-10-08 08:54:00.491 +0000",1570524840.490722,-2.333938,-0.843944,0.564301,-0.480228,0.747270,0.459314,0.000000,0.000000,0.000000,-1,-0.003521,0.001951,0.000325,-0.002408,0.004805,0.003623
"2019-10-08 08:54:00.513 +0000",1570524840.513042,-2.333868,-0.843921,0.564237,-0.480273,0.747254,0.459292,0.000000,0.000000,0.000000,-1,-0.002193,0.003166,0.007695,-0.005476,0.004088,0.002012
"2019-10-08 08:54:00.535 +0000",1570524840.535319,-2.333787,-0.843936,0.564200,-0.480301,0.747265,0.459245,0.000000,0.000000,0.000000,-1,0.000316,0.003167,0.007695,-0.003494,0.003407,0.001738
"2019-10-08 08:54:00.558 +0000",1570524840.557614,-2.333804,-0.843915,0.563909,-0.480305,0.747250,0.459264,0.000000,0.000000,0.000000,-1,-0.004695,0.013006,0.007606,-0.004741,0.005176,0.005229
"2019-10-08 08:54:00.580 +0000",1570524840.579934,-2.333695,-0.844004,0.563694,-0.480307,0.747309,0.459166,0.000000,0.000000,0.000000,-1,0.000306,0.010534,0.003908,-0.003564,0.006139,0.006090
"2019-10-08 08:54:00.602 +0000",1570524840.602242,-2.333632,-0.844064,0.563557,-0.480303,0.747350,0.459104,0.000000,0.000000,0.000000,-1,0.001558,0.006844,0.003942,-0.003583,0.008540,0.003420
"2019-10-08 08:54:00.625 +0000",1570524840.624519,-2.333727,-0.844194,0.563387,-0.480190,0.747436,0.459083,0.000000,0.000000,0.000000,-1,-0.007229,-0.003001,0.004026,-0.001164,0.005830,0.001961
"2019-10-08 08:54:00.647 +0000",1570524840.646828,-2.333923,-0.844167,0.563149,-0.480114,0.747418,0.459191,0.000000,0.000000,0.000000,-1,-0.004709,-0.001760,0.006497,-0.003788,0.005527,0.000220
"2019-10-08 08:54:00.669 +0000",1570524840.669135,-2.333973,-0.844029,0.563048,-0.480166,0.747327,0.459286,0.000000,0.000000,0.000000,-1,-0.004718,-0.000539,0.004004,-0.005293,0.003864,0.003330
"2019-10-08 08:54:00.691 +0000",1570524840.691425,-2.334133,-0.844036,0.562790,-0.480089,0.747331,0.459360,0.000000,0.000000,0.000000,-1,0.000347,0.008030,0.003870,-0.001891,0.004531,0.004660
"2019-10-08 08:54:00.714 +0000",1570524840.713708,-2.334021,-0.844125,0.562644,-0.480092,0.747390,0.459260,0.000000,0.000000,0.000000,-1,0.004115,0.016642,0.003796,-0.001124,0.004120,0.005233
"2019-10-08 08:54:00.736 +0000",1570524840.736028,-2.333651,-0.844265,0.562605,-0.480186,0.747483,0.459010,0.000000,0.000000,0.000000,-1,0.005367,0.020328,0.002523,-0.000954,0.005340,0.006200
"2019-10-08 08:54:00.758 +0000",1570524840.758306,-2.333313,-0.844403,0.562566,-0.480267,0.747575,0.458776,0.000000,0.000000,0.000000,-1,0.001605,0.014181,0.003816,-0.003544,0.005614,0.003489
"2019-10-08 08:54:00.781 +0000",1570524840.780614,-2.333094,-0.844434,0.562540,-0.480351,0.747595,0.458656,0.000000,0.000000,0.000000,-1,-0.002166,0.009254,0.002618,-0.002788,0.006403,0.004601
"2019-10-08 08:54:00.803 +0000",1570524840.802921,-2.333024,-0.844567,0.562365,-0.480311,0.747684,0.458553,0.000000,0.000000,0.000000,-1,0.004133,0.011741,0.008801,-0.002523,0.005124,0.002415
"2019-10-08 08:54:00.825 +0000",1570524840.825199,-2.332739,-0.844726,0.562305,-0.480355,0.747789,0.458334,0.000000,0.000000,0.000000,-1,0.005375,0.016647,0.005037,-0.002219,0.004271,0.003473
"2019-10-08 08:54:00.848 +0000",1570524840.847508,-2.332289,-0.844735,0.562271,-0.480557,0.747795,0.458113,0.000000,0.000000,0.000000,-1,0.004130,0.024032,0.006211,-0.005024,0.003380,0.004365
"2019-10-08 08:54:00.870 +0000",1570524840.869810,-2.331881,-0.844824,0.562204,-0.480696,0.747854,0.457871,0.000000,0.000000,0.000000,-1,0.000404,0.017826,0.004961,-0.005037,0.006449,0.002303
"2019-10-08 08:54:00.892 +0000",1570524840.892093,-2.331551,-0.844851,0.562133,-0.480832,0.747872,0.457698,0.000000,0.000000,0.000000,-1,-0.002118,0.012895,0.002523,-0.005527,0.005225,0.001652
"2019-10-08 08:54:00.914 +0000",1570524840.914400,-2.331441,-0.844783,0.562057,-0.480919,0.747827,0.457681,0.000000,0.000000,0.000000,-1,-0.002124,0.004285,0.002599,-0.005150,0.003577,0.001838
"2019-10-08 08:54:00.937 +0000",1570524840.936701,-2.331310,-0.844803,0.561978,-0.480968,0.747840,0.457607,0.000000,0.000000,0.000000,-1,-0.000852,0.006760,0.006299,-0.004200,0.003640,0.002064
"2019-10-08 08:54:00.959 +0000",1570524840.959017,-2.331314,-0.844912,0.561753,-0.480907,0.747913,0.457553,0.000000,0.000000,0.000000,-1,0.000398,0.007986,0.005048,-0.005345,0.005368,0.001676
"2019-10-08 08:54:00.981 +0000",1570524840.981302,-2.331138,-0.845023,0.561551,-0.480928,0.747986,0.457411,0.000000,0.000000,0.000000,-1,-0.000838,0.012921,0.008725,-0.003447,0.004226,0.004213
"2019-10-08 08:54:01.004 +0000",1570524841.003601,-2.331062,-0.845122,0.561348,-0.480908,0.748052,0.457323,0.000000,0.000000,0.000000,-1,0.000410,0.011686,0.007496,-0.003467,0.005228,0.002607
"2019-10-08 08:54:01.026 +0000",1570524841.025909,-2.331030,-0.845210,0.561174,-0.480875,0.748111,0.457263,0.000000,0.000000,0.000000,-1,-0.002101,0.007995,0.007528,-0.001074,0.007306,0.002469
"2019-10-08 08:54:01.048 +0000",1570524841.048187,-2.331281,-0.845323,0.560780,-0.480700,0.748185,0.457325,0.000000,0.000000,0.000000,-1,-0.003308,0.005490,0.008731,-0.001661,0.005873,0.003658
"2019-10-08 08:54:01.070 +0000",1570524841.070496,-2.331337,-0.845435,0.560523,-0.480613,0.748259,0.457295,0.000000,0.000000,0.000000,-1,-0.002057,0.007945,0.007469,-0.003578,0.004579,0.003780
"2019-10-08 08:54:01.093 +0000",1570524841.092790,-2.331287,-0.845553,0.560272,-0.480572,0.748338,0.457209,0.000000,0.000000,0.000000,-1,-0.002040,0.010420,0.011169,-0.002201,0.004347,0.004842
"2019-10-08 08:54:01.115 +0000",1570524841.115080,-2.331205,-0.845678,0.560074,-0.480542,0.748421,0.457106,0.000000,0.000000,0.000000,-1,-0.003311,0.009175,0.007458,-0.001590,0.004585,0.002733
"2019-10-08 08:54:01.137 +0000",1570524841.137387,-2.331253,-0.845868,0.559659,-0.480417,0.748547,0.457031,0.000000,0.000000,0.000000,-1,-0.002047,0.016561,0.008633,-0.000830,0.005512,0.004700
"2019-10-08 08:54:01.160 +0000",1570524841.159671,-2.330955,-0.846002,0.559570,-0.480481,0.748636,0.456818,0.000000,0.000000,0.000000,-1,0.002959,0.021469,0.004870,-0.004001,0.006796,0.005447
"2019-10-08 08:54:01.182 +0000",1570524841.181997,-2.330464,-0.846184,0.559577,-0.480606,0.748757,0.456488,0.000000,0.000000,0.000000,-1,0.005472,0.020245,0.006123,-0.002503,0.005134,0.004434
"2019-10-08 08:54:01.204 +0000",1570524841.204282,-2.330057,-0.846392,0.559547,-0.480679,0.748894,0.456186,0.000000,0.000000,0.000000,-1,0.006716,0.020236,0.003643,-0.002597,0.005134,0.003699
"2019-10-08 08:54:01.227 +0000",1570524841.226590,-2.329463,-0.846517,0.559639,-0.480881,0.748977,0.455836,0.000000,0.000000,0.000000,-1,0.005506,0.021415,0.003572,-0.005019,0.004853,0.002584
"2019-10-08 08:54:01.249 +0000",1570524841.248867,-2.328945,-0.846672,0.559674,-0.481033,0.749080,0.455506,0.000000,0.000000,0.000000,-1,0.004250,0.018954,0.003593,-0.003082,0.005910,0.002303
"2019-10-08 08:54:01.271 +0000",1570524841.271175,-2.328499,-0.846794,0.559703,-0.481170,0.749161,0.455229,0.000000,0.000000,0.000000,-1,0.001753,0.012818,0.007368,-0.004685,0.005081,-0.000533
"2019-10-08 08:54:01.293 +0000",1570524841.293483,-2.327895,-0.847014,0.559832,-0.481325,0.749306,0.454825,0.000000,0.000000,0.000000,-1,-0.002019,0.014037,0.004875,-0.005109,0.008491,-0.001655
"2019-10-08 08:54:01.316 +0000",1570524841.315786,-2.327528,-0.847125,0.559815,-0.481431,0.749380,0.454592,0.000000,0.000000,0.000000,-1,0.000485,0.014034,0.003635,-0.004302,0.005869,0.002348
"2019-10-08 08:54:01.338 +0000",1570524841.338068,-2.327514,-0.847174,0.559557,-0.481411,0.749412,0.454560,0.000000,0.000000,0.000000,-1,-0.004519,0.011586,0.007377,-0.002430,0.004433,0.004669
"2019-10-08 08:54:01.360 +0000",1570524841.360376,-2.327622,-0.847250,0.559176,-0.481320,0.749463,0.454573,0.000000,0.000000,0.000000,-1,-0.005776,0.006665,0.007420,-0.004535,0.006351,0.003527
"2019-10-08 08:54:01.383 +0000",1570524841.382673,-2.327549,-0.847288,0.559017,-0.481333,0.749488,0.454518,0.000000,0.000000,0.000000,-1,-0.004537,0.006651,0.003699,-0.003988,0.005349,0.001415
"2019-10-08 08:54:01.405 +0000",1570524841.404980,-2.327707,-0.847275,0.558784,-0.481268,0.749479,0.454601,0.000000,0.000000,0.000000,-1,-0.003250,-0.000785,0.002465,-0.006555,0.005877,0.002232
"2019-10-08 08:54:01.427 +0000",1570524841.427269,-2.327720,-0.847308,0.558702,-0.481244,0.749501,0.454590,0.000000,0.000000,0.000000,-1,0.000516,0.004138,0.002423,-0.002780,0.005107,0.002686
"2019-10-08 08:54:01.450 +0000",1570524841.449577,-2.327894,-0.847310,0.558451,-0.481164,0.749502,0.454673,0.000000,0.000000,0.000000,-1,-0.001990,0.009057,0.002379,-0.000769,0.002619,0.004495
"2019-10-08 08:54:01.472 +0000",1570524841.471855,-2.327622,-0.847445,0.558411,-0.481214,0.749592,0.454472,0.000000,0.000000,0.000000,-1,0.001778,0.016439,0.002315,-0.001986,0.004833,0.003734
"2019-10-08 08:54:01.494 +0000",1570524841.494163,-2.327317,-0.847497,0.558407,-0.481325,0.749626,0.454298,0.000000,0.000000,0.000000,-1,0.001776,0.012749,0.002348,-0.002669,0.006325,0.003832
"2019-10-08 08:54:01.516 +0000",1570524841.516456,-2.327180,-0.847688,0.558267,-0.481283,0.749753,0.454135,0.000000,0.000000,0.000000,-1,0.001771,0.012744,0.001108,-0.001032,0.006641,0.003400
"2019-10-08 08:54:01.539 +0000",1570524841.538749,-2.327168,-0.847810,0.558043,-0.481221,0.749833,0.454066,0.000000,0.000000,0.000000,-1,-0.001983,0.011522,0.003598,-0.001185,0.006926,0.003987
"2019-10-08 08:54:01.561 +0000",1570524841.561055,-2.326997,-0.847916,0.557974,-0.481241,0.749903,0.453929,0.000000,0.000000,0.000000,-1,0.004299,0.010304,0.006093,-0.002630,0.006749,0.002767
"2019-10-08 08:54:01.583 +0000",1570524841.583364,-2.326804,-0.847874,0.557892,-0.481352,0.749876,0.453857,0.000000,0.000000,0.000000,-1,-0.003193,0.010254,0.004790,-0.005144,0.003969,0.002960
"2019-10-08 08:54:01.606 +0000",1570524841.605653,-2.326529,-0.847873,0.557840,-0.481478,0.749875,0.453726,0.000000,0.000000,0.000000,-1,0.003087,0.013952,0.006000,-0.005201,0.004383,0.003671
"2019-10-08 08:54:01.628 +0000",1570524841.627949,-2.326145,-0.847918,0.557773,-0.481627,0.749905,0.453518,0.000000,0.000000,0.000000,-1,-0.001939,0.017631,0.003484,-0.005678,0.007160,0.004505
"2019-10-08 08:54:01.650 +0000",1570524841.650259,-2.325734,-0.848012,0.557759,-0.481762,0.749967,0.453271,0.000000,0.000000,0.000000,-1,-0.000684,0.010256,0.004790,-0.005833,0.005160,0.001303
"2019-10-08 08:54:01.673 +0000",1570524841.672535,-2.325454,-0.847983,0.557787,-0.481905,0.749948,0.453151,0.000000,0.000000,0.000000,-1,-0.005701,0.002878,0.006094,-0.006514,0.005027,0.003483
"2019-10-08 08:54:01.695 +0000",1570524841.694843,-2.325521,-0.848002,0.557671,-0.481864,0.749960,0.453174,0.000000,0.000000,0.000000,-1,-0.005712,0.000409,0.003634,-0.006371,0.006738,0.000928
"2019-10-08 08:54:01.717 +0000",1570524841.717151,-2.325758,-0.847951,0.557422,-0.481784,0.749927,0.453315,0.000000,0.000000,0.000000,-1,-0.005725,-0.003291,0.001186,-0.003064,0.004834,0.002252
"2019-10-08 08:54:01.739 +0000",1570524841.739459,-2.325863,-0.847974,0.557310,-0.481724,0.749942,0.453353,0.000000,0.000000,0.000000,-1,-0.008233,-0.003292,0.001185,-0.004177,0.005292,-0.000106
"2019-10-08 08:54:01.762 +0000",1570524841.761750,-2.326155,-0.847975,0.557075,-0.481592,0.749942,0.453493,0.000000,0.000000,0.000000,-1,-0.004428,-0.004549,0.002377,-0.002860,0.007107,0.002729
"2019-10-08 08:54:01.784 +0000",1570524841.784045,-2.326482,-0.847961,0.556875,-0.481450,0.749933,0.453658,0.000000,0.000000,0.000000,-1,-0.001926,-0.007013,0.001160,-0.002070,0.006353,0.002519
"2019-10-08 08:54:01.806 +0000",1570524841.806345,-2.326698,-0.848019,0.556790,-0.481321,0.749972,0.453732,0.000000,0.000000,0.000000,-1,-0.001911,-0.008228,0.004892,-0.003085,0.005369,0.001697
"2019-10-08 08:54:01.829 +0000",1570524841.828630,-2.327081,-0.848077,0.556604,-0.481116,0.750010,0.453887,0.000000,0.000000,0.000000,-1,-0.000680,-0.004561,-0.001342,0.000372,0.006216,0.004503
"2019-10-08 08:54:01.851 +0000",1570524841.850938,-2.327212,-0.848076,0.556517,-0.481057,0.750009,0.453950,0.000000,0.000000,0.000000,-1,-0.003172,-0.003318,0.002367,-0.004523,0.005896,0.005248
"2019-10-08 08:54:01.873 +0000",1570524841.873245,-2.327399,-0.847945,0.556351,-0.481043,0.749923,0.454108,0.000000,0.000000,0.000000,-1,-0.000669,0.004054,-0.000178,-0.004187,0.004777,0.006067
"2019-10-08 08:54:01.896 +0000",1570524841.895523,-2.327495,-0.847904,0.556132,-0.481022,0.749895,0.454175,0.000000,0.000000,0.000000,-1,-0.000653,0.006529,0.003521,-0.004238,0.005033,0.005633
"2019-10-08 08:54:01.918 +0000",1570524841.917837,-2.327360,-0.847935,0.556124,-0.481067,0.749916,0.454094,0.000000,0.000000,0.000000,-1,0.000586,0.005285,-0.000189,-0.002851,0.006859,0.002983
"2019-10-08 08:54:01.940 +0000",1570524841.940138,-2.327266,-0.848012,0.556121,-0.481067,0.749967,0.454009,0.000000,0.000000,0.000000,-1,-0.003153,0.003954,-0.002724,-0.002225,0.007037,0.001558
"2019-10-08 08:54:01.962 +0000",1570524841.962416,-2.327308,-0.847938,0.556084,-0.481089,0.749918,0.454067,0.000000,0.000000,0.000000,-1,-0.001903,-0.003426,-0.002658,-0.002310,0.004110,0.002110
"2019-10-08 08:54:01.985 +0000",1570524841.984720,-2.327320,-0.847908,0.556103,-0.481099,0.749898,0.454088,0.000000,0.000000,0.000000,-1,-0.001893,-0.003416,-0.000177,-0.005809,0.006175,0.001798
"2019-10-08 08:54:02.007 +0000",1570524842.007033,-2.327555,-0.847843,0.555992,-0.481028,0.749855,0.454235,0.000000,0.000000,0.000000,-1,-0.005674,-0.007122,-0.003867,-0.006689,0.005470,-0.001370
"2019-10-08 08:54:02.029 +0000",1570524842.029309,-2.327732,-0.847680,0.555872,-0.481036,0.749747,0.454404,0.000000,0.000000,0.000000,-1,-0.005659,0.000268,-0.001452,-0.004147,0.007608,0.006930
"2019-10-08 08:54:02.052 +0000",1570524842.051617,-2.327734,-0.847563,0.555905,-0.481099,0.749670,0.454465,0.000000,0.000000,0.000000,-1,-0.001893,-0.003416,-0.000177,-0.005717,0.006846,0.004214
"2019-10-08 08:54:02.074 +0000",1570524842.073925,-2.327790,-0.847457,0.555890,-0.481131,0.749600,0.454547,0.000000,0.000000,0.000000,-1,-0.004399,-0.007102,0.001095,-0.004266,0.006732,0.002485
"2019-10-08 08:54:02.096 +0000",1570524842.096203,-2.328001,-0.847288,0.555834,-0.481128,0.749488,0.454735,0.000000,0.000000,0.000000,-1,-0.010688,-0.010809,-0.002597,-0.005872,0.003030,0.002632
"2019-10-08 08:54:02.119 +0000",1570524842.118515,-2.328361,-0.846974,0.555706,-0.481135,0.749280,0.455070,0.000000,0.000000,0.000000,-1,-0.011900,-0.018271,0.001125,-0.006491,0.004962,0.003060
"2019-10-08 08:54:02.141 +0000",1570524842.140829,-2.328820,-0.846733,0.555552,-0.481057,0.749120,0.455415,0.000000,0.000000,0.000000,-1,-0.003122,-0.013352,-0.000155,-0.002418,0.004481,0.004103
"2019-10-08 08:54:02.163 +0000",1570524842.163126,-2.329096,-0.846638,0.555453,-0.480983,0.749057,0.455597,0.000000,0.000000,0.000000,-1,-0.001871,-0.003520,-0.002723,-0.001714,0.003323,0.003143
"2019-10-08 08:54:02.185 +0000",1570524842.185404,-2.329308,-0.846717,0.555296,-0.480843,0.749110,0.455658,0.000000,0.000000,0.000000,-1,-0.000601,-0.002275,0.000988,-0.000190,0.005712,0.002884
"2019-10-08 08:54:02.208 +0000",1570524842.207701,-2.329546,-0.846702,0.555106,-0.480743,0.749100,0.455780,0.000000,0.000000,0.000000,-1,-0.001865,-0.002285,-0.001493,-0.002304,0.004898,0.003922
"2019-10-08 08:54:02.230 +0000",1570524842.230021,-2.329669,-0.846626,0.555027,-0.480728,0.749049,0.455879,0.000000,0.000000,0.000000,-1,-0.009384,-0.005969,0.001018,-0.002274,0.005711,0.003487
"2019-10-08 08:54:02.252 +0000",1570524842.252297,-2.329940,-0.846542,0.554841,-0.480651,0.748994,0.456052,0.000000,0.000000,0.000000,-1,-0.008154,-0.004763,-0.005195,-0.002427,0.003951,0.001284
"2019-10-08 08:54:02.275 +0000",1570524842.274606,-2.330251,-0.846502,0.554705,-0.480530,0.748967,0.456222,0.000000,0.000000,0.000000,-1,-0.001869,-0.008436,-0.001438,-0.001632,0.005931,0.002502
"2019-10-08 08:54:02.297 +0000",1570524842.296913,-2.330480,-0.846494,0.554646,-0.480430,0.748962,0.456336,0.000000,0.000000,0.000000,-1,-0.000576,-0.003617,-0.000308,-0.004082,0.003601,0.002145
"2019-10-08 08:54:02.319 +0000",1570524842.319190,-2.330349,-0.846420,0.554695,-0.480530,0.748913,0.456312,0.000000,0.000000,0.000000,-1,0.000690,0.006229,0.000845,-0.006286,0.003437,0.003756
"2019-10-08 08:54:02.341 +0000",1570524842.341499,-2.330106,-0.846414,0.554750,-0.480644,0.748909,0.456198,0.000000,0.000000,0.000000,-1,0.005715,0.011157,0.002044,-0.001915,0.006126,0.004664
"2019-10-08 08:54:02.364 +0000",1570524842.363787,-2.329945,-0.846288,0.554685,-0.480786,0.748826,0.456185,0.000000,0.000000,0.000000,-1,0.001935,0.008680,-0.001657,-0.004444,0.003372,0.004111
"2019-10-08 08:54:02.386 +0000",1570524842.386083,-2.329838,-0.846284,0.554654,-0.480837,0.748823,0.456136,0.000000,0.000000,0.000000,-1,0.000692,0.002544,0.002118,-0.004652,0.003497,0.002055
"2019-10-08 08:54:02.408 +0000",1570524842.408393,-2.329754,-0.846278,0.554708,-0.480879,0.748819,0.456099,0.000000,0.000000,0.000000,-1,-0.001825,-0.002382,0.000920,-0.003878,0.006415,0.002107
"2019-10-08 08:54:02.431 +0000",1570524842.430672,-2.329888,-0.846277,0.554601,-0.480818,0.748818,0.456163,0.000000,0.000000,0.000000,-1,-0.001835,-0.003622,-0.001550,-0.003847,0.006232,0.001066
"2019-10-08 08:54:02.453 +0000",1570524842.452978,-2.330031,-0.846279,0.554572,-0.480752,0.748819,0.456231,0.000000,0.000000,0.000000,-1,-0.001828,-0.007302,0.000964,-0.003760,0.005896,0.002631
"2019-10-08 08:54:02.475 +0000",1570524842.475288,-2.330011,-0.846268,0.554610,-0.480767,0.748812,0.456228,0.000000,0.000000,0.000000,-1,-0.001796,-0.003724,0.000863,-0.004768,0.005796,0.001749
"2019-10-08 08:54:02.498 +0000",1570524842.497595,-2.330030,-0.846333,0.554548,-0.480723,0.748855,0.456203,0.000000,0.000000,0.000000,-1,-0.001784,-0.002484,0.003333,-0.004888,0.006821,0.001622
"2019-10-08 08:54:02.520 +0000",1570524842.519873,-2.330166,-0.846367,0.554472,-0.480643,0.748878,0.456251,0.000000,0.000000,0.000000,-1,0.000719,-0.002488,0.002093,-0.003366,0.004571,0.002199
"2019-10-08 08:54:02.542 +0000",1570524842.542186,-2.330413,-0.846430,0.554344,-0.480495,0.748920,0.456337,0.000000,0.000000,0.000000,-1,-0.001788,-0.007405,0.003377,-0.001469,0.005307,0.003792
"2019-10-08 08:54:02.564 +0000",1570524842.564488,-2.330631,-0.846394,0.554250,-0.480416,0.748895,0.456461,0.000000,0.000000,0.000000,-1,-0.001792,-0.006179,0.002125,-0.002357,0.004492,0.004874
"2019-10-08 08:54:02.587 +0000",1570524842.586780,-2.330979,-0.846383,0.554049,-0.480262,0.748888,0.456633,0.000000,0.000000,0.000000,-1,-0.004301,-0.006180,0.002124,-0.001549,0.006178,0.003663
"2019-10-08 08:54:02.609 +0000",1570524842.609074,-2.331198,-0.846310,0.553938,-0.480202,0.748840,0.456776,0.000000,0.000000,0.000000,-1,-0.003060,-0.003734,-0.001618,-0.001854,0.005478,0.004650
"2019-10-08 08:54:02.631 +0000",1570524842.631383,-2.331287,-0.846236,0.553931,-0.480202,0.748791,0.456857,0.000000,0.000000,0.000000,-1,-0.001804,-0.001273,-0.001640,-0.002449,0.005359,0.001837
"2019-10-08 08:54:02.654 +0000",1570524842.653683,-2.331460,-0.846194,0.553851,-0.480145,0.748763,0.456962,0.000000,0.000000,0.000000,-1,-0.001775,-0.001317,-0.001709,-0.000644,0.005112,0.004952
"2019-10-08 08:54:02.676 +0000",1570524842.675967,-2.331444,-0.846055,0.553907,-0.480228,0.748671,0.457026,0.000000,0.000000,0.000000,-1,-0.003040,-0.002557,-0.004180,-0.002453,0.006654,0.001882
"2019-10-08 08:54:02.698 +0000",1570524842.698276,-2.331587,-0.845949,0.553797,-0.480220,0.748601,0.457149,0.000000,0.000000,0.000000,-1,-0.003031,-0.003778,-0.001688,-0.004231,0.005992,0.004399
"2019-10-08 08:54:02.721 +0000",1570524842.720584,-2.331638,-0.845766,0.553797,-0.480296,0.748479,0.457268,0.000000,0.000000,0.000000,-1,-0.006795,-0.006239,-0.001668,-0.005574,0.002848,0.001411
"2019-10-08 08:54:02.743 +0000",1570524842.742860,-2.331781,-0.845724,0.553653,-0.480253,0.748452,0.457358,0.000000,0.000000,0.000000,-1,-0.006773,-0.002529,0.003261,-0.006670,0.005927,0.002557
"2019-10-08 08:54:02.765 +0000",1570524842.765169,-2.331724,-0.845572,0.553586,-0.480362,0.748351,0.457410,0.000000,0.000000,0.000000,-1,-0.008042,0.006062,-0.001778,-0.005676,0.004259,0.004932
"2019-10-08 08:54:02.787 +0000",1570524842.787477,-2.331621,-0.845423,0.553578,-0.480489,0.748252,0.457437,0.000000,0.000000,0.000000,-1,-0.004287,0.001139,-0.002973,-0.005762,0.006860,0.004523
"2019-10-08 08:54:02.810 +0000",1570524842.809774,-2.331541,-0.845293,0.553624,-0.480597,0.748166,0.457466,0.000000,0.000000,0.000000,-1,-0.003034,-0.001321,-0.002951,-0.003229,0.007251,0.003106
"2019-10-08 08:54:02.832 +0000",1570524842.832062,-2.331761,-0.845220,0.553546,-0.480536,0.748117,0.457609,0.000000,0.000000,0.000000,-1,-0.004255,-0.010019,-0.000459,-0.002588,0.004370,0.000277
"2019-10-08 08:54:02.854 +0000",1570524842.854370,-2.331854,-0.844988,0.553583,-0.480619,0.747963,0.457773,0.000000,0.000000,0.000000,-1,-0.006764,-0.011250,-0.000450,-0.006747,0.005806,0.002371
"2019-10-08 08:54:02.877 +0000",1570524842.876647,-2.332070,-0.844789,0.553552,-0.480627,0.747831,0.457980,0.000000,0.000000,0.000000,-1,-0.004248,-0.007553,0.000759,-0.004953,0.006685,0.004056
"2019-10-08 08:54:02.899 +0000",1570524842.898955,-2.332176,-0.844734,0.553617,-0.480609,0.747795,0.458059,0.000000,0.000000,0.000000,-1,0.002010,-0.006335,-0.002971,-0.002637,0.005974,0.004404
"2019-10-08 08:54:02.921 +0000",1570524842.921264,-2.332482,-0.844737,0.553475,-0.480468,0.747796,0.458205,0.000000,0.000000,0.000000,-1,-0.000487,-0.003866,-0.000513,-0.001024,0.004859,0.005067
"2019-10-08 08:54:02.944 +0000",1570524842.943572,-2.332594,-0.844773,0.553440,-0.480397,0.747820,0.458240,0.000000,0.000000,0.000000,-1,-0.000501,-0.001420,-0.004256,-0.001491,0.005994,0.003125
"2019-10-08 08:54:02.966 +0000",1570524842.965849,-2.332719,-0.844698,0.553363,-0.480380,0.747770,0.458339,0.000000,0.000000,0.000000,-1,-0.002994,-0.001407,-0.000535,-0.000196,0.004976,0.003270
"2019-10-08 08:54:02.988 +0000",1570524842.988157,-2.332828,-0.844673,0.553257,-0.480343,0.747754,0.458404,0.000000,0.000000,0.000000,-1,-0.002994,-0.000177,-0.000546,-0.002994,0.006320,0.004273
"2019-10-08 08:54:03.010 +0000",1570524843.010466,-2.332868,-0.844771,0.553210,-0.480272,0.747819,0.458373,0.000000,0.000000,0.000000,-1,0.000805,-0.000219,0.000637,-0.003126,0.006286,0.002748
"2019-10-08 08:54:03.033 +0000",1570524843.032732,-2.332768,-0.844815,0.553241,-0.480294,0.747848,0.458302,0.000000,0.000000,0.000000,-1,0.002063,0.005932,0.000583,-0.001990,0.004410,0.003979
"2019-10-08 08:54:03.055 +0000",1570524843.055049,-2.332629,-0.844837,0.553204,-0.480346,0.747863,0.458224,0.000000,0.000000,0.000000,-1,-0.000454,0.009612,-0.001932,-0.005479,0.001939,0.004148
"2019-10-08 08:54:03.077 +0000",1570524843.077358,-2.332343,-0.844764,0.553344,-0.480517,0.747814,0.458124,0.000000,0.000000,0.000000,-1,0.000793,0.005918,-0.003139,-0.003721,0.004597,0.003882
"2019-10-08 08:54:03.100 +0000",1570524843.099635,-2.332270,-0.844669,0.553339,-0.480601,0.747751,0.458138,0.000000,0.000000,0.000000,-1,-0.000456,0.005922,-0.001899,-0.003804,0.003760,0.004218
"2019-10-08 08:54:03.122 +0000",1570524843.121944,-2.332398,-0.844636,0.553219,-0.480561,0.747729,0.458217,0.000000,0.000000,0.000000,-1,-0.005465,-0.003907,0.001907,-0.005462,0.005552,0.003056
"2019-10-08 08:54:03.144 +0000",1570524843.144251,-2.332443,-0.844627,0.553200,-0.480545,0.747723,0.458243,0.000000,0.000000,0.000000,-1,-0.004203,-0.001441,0.003126,-0.005249,0.006275,0.001520
"2019-10-08 08:54:03.167 +0000",1570524843.166529,-2.332478,-0.844645,0.553172,-0.480519,0.747736,0.458250,0.000000,0.000000,0.000000,-1,-0.002950,-0.002670,0.003138,-0.004085,0.006811,0.001787
"2019-10-08 08:54:03.189 +0000",1570524843.188838,-2.332465,-0.844698,0.553180,-0.480496,0.747771,0.458217,0.000000,0.000000,0.000000,-1,-0.001666,-0.000278,0.001816,-0.002719,0.004167,0.000875
"2019-10-08 08:54:03.211 +0000",1570524843.211145,-2.332466,-0.844743,0.553148,-0.480471,0.747801,0.458194,0.000000,0.000000,0.000000,-1,-0.000416,0.002178,0.000555,-0.002180,0.004946,0.002500
"2019-10-08 08:54:03.233 +0000",1570524843.233421,-2.332584,-0.844806,0.552966,-0.480383,0.747842,0.458218,0.000000,0.000000,0.000000,-1,-0.004169,0.000956,0.003045,-0.003198,0.005789,0.003726
"2019-10-08 08:54:03.256 +0000",1570524843.255739,-2.332657,-0.844868,0.552862,-0.480316,0.747883,0.458221,0.000000,0.000000,0.000000,-1,-0.002904,0.002196,0.005516,-0.002350,0.005199,0.003143
"2019-10-08 08:54:03.278 +0000",1570524843.278037,-2.332715,-0.844960,0.552784,-0.480240,0.747945,0.458202,0.000000,0.000000,0.000000,-1,0.002106,-0.001497,0.004310,-0.002365,0.005962,0.003163
"2019-10-08 08:54:03.300 +0000",1570524843.300315,-2.332875,-0.845064,0.552632,-0.480110,0.748014,0.458225,0.000000,0.000000,0.000000,-1,-0.004170,-0.001504,0.003067,-0.002251,0.007358,0.002438
"2019-10-08 08:54:03.323 +0000",1570524843.322623,-2.332963,-0.845134,0.552541,-0.480032,0.748060,0.458231,0.000000,0.000000,0.000000,-1,-0.001656,-0.000268,0.004298,-0.003671,0.005312,0.002524
"2019-10-08 08:54:03.345 +0000",1570524843.344931,-2.333011,-0.845188,0.552468,-0.479980,0.748096,0.458226,0.000000,0.000000,0.000000,-1,-0.000426,0.000939,-0.001915,-0.002289,0.005230,0.003108
"2019-10-08 08:54:03.367 +0000",1570524843.367237,-2.332956,-0.845206,0.552452,-0.479996,0.748108,0.458190,0.000000,0.000000,0.000000,-1,0.002135,0.002141,0.002984,-0.003662,0.005310,0.002641
"2019-10-08 08:54:03.390 +0000",1570524843.389517,-2.333071,-0.845233,0.552377,-0.479929,0.748126,0.458231,0.000000,0.000000,0.000000,-1,-0.000390,-0.000335,-0.000717,-0.003439,0.004621,0.004446
"2019-10-08 08:54:03.412 +0000",1570524843.411813,-2.333175,-0.845234,0.552287,-0.479881,0.748126,0.458281,0.000000,0.000000,0.000000,-1,-0.001633,0.002134,0.001742,-0.003518,0.005368,0.003999
"2019-10-08 08:54:03.434 +0000",1570524843.434132,-2.333075,-0.845202,0.552319,-0.479944,0.748105,0.458249,0.000000,0.000000,0.000000,-1,-0.000378,0.003365,0.001731,-0.005087,0.005740,0.001147
"2019-10-08 08:54:03.456 +0000",1570524843.456409,-2.332832,-0.845196,0.552419,-0.480058,0.748101,0.458136,0.000000,0.000000,0.000000,-1,0.003381,0.004592,0.000481,-0.004653,0.006186,0.002420
"2019-10-08 08:54:03.479 +0000",1570524843.478713,-2.332684,-0.845099,0.552476,-0.480178,0.748037,0.458115,0.000000,0.000000,0.000000,-1,-0.002886,0.004595,0.001719,-0.005402,0.006556,0.004821
"2019-10-08 08:54:03.501 +0000",1570524843.501026,-2.332570,-0.845091,0.552455,-0.480235,0.748032,0.458064,0.000000,0.000000,0.000000,-1,-0.000383,0.003361,0.000490,-0.002507,0.006363,0.001653
"2019-10-08 08:54:03.523 +0000",1570524843.523303,-2.332476,-0.845092,0.552494,-0.480278,0.748032,0.458019,0.000000,0.000000,0.000000,-1,-0.002885,-0.001551,0.003014,-0.003624,0.005859,0.000935
"2019-10-08 08:54:03.546 +0000",1570524843.545611,-2.332510,-0.845106,0.552434,-0.480255,0.748041,0.458028,0.000000,0.000000,0.000000,-1,-0.004107,-0.004051,0.002985,-0.003586,0.004522,-0.000249
"2019-10-08 08:54:03.568 +0000",1570524843.567919,-2.332681,-0.845096,0.552243,-0.480182,0.748035,0.458115,0.000000,0.000000,0.000000,-1,-0.001604,0.003321,0.000440,-0.005261,0.006238,0.003982
"2019-10-08 08:54:03.590 +0000",1570524843.590196,-2.332680,-0.844977,0.552121,-0.480247,0.747956,0.458176,0.000000,0.000000,0.000000,-1,-0.007870,0.004554,0.001667,-0.005120,0.006607,0.004013
"2019-10-08 08:54:03.613 +0000",1570524843.612504,-2.332638,-0.845013,0.552061,-0.480247,0.747980,0.458137,0.000000,0.000000,0.000000,-1,-0.004119,0.000856,-0.000780,-0.002984,0.006995,0.002450
"2019-10-08 08:54:03.635 +0000",1570524843.634795,-2.332695,-0.845021,0.552005,-0.480216,0.747985,0.458161,0.000000,0.000000,0.000000,-1,-0.002862,-0.002829,0.000494,-0.002389,0.006272,0.002106
"2019-10-08 08:54:03.657 +0000",1570524843.657089,-2.332959,-0.844931,0.551883,-0.480144,0.747926,0.458333,0.000000,0.000000,0.000000,-1,-0.009134,-0.011438,0.001809,-0.003453,0.003280,0.001414
