timestamp,timeIntervalSince1970,attitude.roll,attitude.pitch,attitude.yaw,gravity.x,gravity.y,gravity.z,magneticField.x,magneticField.y,magneticField.z,magneticField.accuracy,rotationRate.x,rotationRate.y,rotationRate.z,userAcceleration.x,userAcceleration.y,userAcceleration.z
"2019-04-16 05:16:43.120 +0000",1555391803.119904,0.106387,0.812721,-0.054197,0.073006,-0.726161,-0.683638,0.000000,0.000000,0.000000,-1,0.249667,-2.915835,-0.234720,0.141380,0.074610,-0.106386
"2019-04-16 05:16:43.142 +0000",1555391803.142181,0.043481,0.821818,-0.063696,0.029597,-0.732385,-0.680248,0.000000,0.000000,0.000000,-1,0.670661,-2.993649,-0.359348,0.121999,0.172906,-0.127293
"2019-04-16 05:16:43.164 +0000",1555391803.164489,0.019748,0.831754,-0.097905,0.013301,-0.739114,-0.673449,0.000000,0.000000,0.000000,-1,0.385246,-1.950598,-1.315264,0.121281,0.150140,-0.163389
"2019-04-16 05:16:43.187 +0000",1555391803.186797,0.010197,0.831586,-0.148386,0.006870,-0.739001,-0.673670,0.000000,0.000000,0.000000,-1,-0.156364,-2.200092,-1.515489,-0.103443,0.198199,-0.141302
"2019-04-16 05:16:43.209 +0000",1555391803.209161,0.002232,0.826884,-0.186800,0.001512,-0.735825,-0.677170,0.000000,0.000000,0.000000,-1,-0.179328,-1.142115,-0.864923,-0.227418,0.211609,-0.065429
"2019-04-16 05:16:43.231 +0000",1555391803.231384,-0.005674,0.824892,-0.194085,-0.003850,-0.734475,-0.678625,0.000000,0.000000,0.000000,-1,-0.078792,-0.469560,-0.008674,-0.066951,0.035942,0.096762
"2019-04-16 05:16:43.254 +0000",1555391803.253732,-0.010681,0.818479,-0.191442,-0.007299,-0.730107,-0.683294,0.000000,0.000000,0.000000,-1,-0.378905,0.145873,0.115992,0.065084,0.089101,0.091466
"2019-04-16 05:16:43.276 +0000",1555391803.275999,-0.009741,0.813705,-0.188330,-0.006690,-0.726837,-0.686778,0.000000,0.000000,0.000000,-1,-0.026697,-0.004210,0.076537,0.113761,0.020858,-0.027791
"2019-04-16 05:16:43.298 +0000",1555391803.298282,-0.017439,0.819031,-0.191560,-0.011909,-0.730484,-0.682826,0.000000,0.000000,0.000000,-1,0.287769,-0.612921,-0.220617,-0.101067,0.126282,0.030818
"2019-04-16 05:16:43.321 +0000",1555391803.320582,-0.025578,0.818978,-0.205816,-0.017467,-0.730448,-0.682745,0.000000,0.000000,0.000000,-1,-0.215536,-1.030140,-0.534708,-0.080739,0.171549,-0.020075
"2019-04-16 05:16:43.343 +0000",1555391803.342890,-0.045265,0.815629,-0.222793,-0.031015,-0.728157,-0.684709,0.000000,0.000000,0.000000,-1,-0.009920,-1.600567,-0.462567,-0.108039,0.138114,0.015870
"2019-04-16 05:16:43.365 +0000",1555391803.365197,-0.074825,0.823086,-0.233972,-0.050831,-0.733248,-0.678059,0.000000,0.000000,0.000000,-1,0.552549,-1.725229,-0.313595,-0.159939,0.045534,0.082630
"2019-04-16 05:16:43.388 +0000",1555391803.387506,-0.108647,0.843657,-0.237514,-0.072080,-0.747079,-0.660816,0.000000,0.000000,0.000000,-1,0.939666,-1.571889,-0.148558,-0.126041,0.107919,0.052021
"2019-04-16 05:16:43.410 +0000",1555391803.409782,-0.132332,0.850134,-0.241964,-0.087069,-0.751369,-0.654113,0.000000,0.000000,0.000000,-1,-0.262967,-1.050879,-0.166103,-0.127165,0.178539,-0.014573
"2019-04-16 05:16:43.432 +0000",1555391803.432092,-0.156773,0.829615,-0.255042,-0.105414,-0.737671,-0.666880,0.000000,0.000000,0.000000,-1,-1.267723,-2.028624,-0.315403,-0.084466,0.241242,-0.076772
"2019-04-16 05:16:43.454 +0000",1555391803.454399,-0.205259,0.801182,-0.284450,-0.141830,-0.718179,-0.681251,0.000000,0.000000,0.000000,-1,-1.449761,-3.705570,-0.995299,-0.015350,0.102914,0.231788
"2019-04-16 05:16:43.477 +0000",1555391803.476707,-0.264796,0.773509,-0.340549,-0.187246,-0.698650,-0.690526,0.000000,0.000000,0.000000,-1,-1.789009,-4.831036,-1.562305,0.025396,0.115688,0.162923
"2019-04-16 05:16:43.499 +0000",1555391803.498984,-0.338153,0.736014,-0.404533,-0.245873,-0.671339,-0.699178,0.000000,0.000000,0.000000,-1,-2.468729,-5.491359,-1.417794,0.023949,0.390593,0.125646
"2019-04-16 05:16:43.521 +0000",1555391803.521288,-0.418934,0.692284,-0.471600,-0.313141,-0.638297,-0.703221,0.000000,0.000000,0.000000,-1,-2.710860,-5.401758,-1.443504,0.141312,0.338981,0.277211
"2019-04-16 05:16:43.544 +0000",1555391803.543593,-0.487645,0.654507,-0.541015,-0.371720,-0.608768,-0.700875,0.000000,0.000000,0.000000,-1,-2.488129,-4.921541,-1.349669,0.082078,0.207035,0.446709
"2019-04-16 05:16:43.566 +0000",1555391803.565905,-0.564380,0.618315,-0.594388,-0.435860,-0.579663,-0.688488,0.000000,0.000000,0.000000,-1,-2.320632,-4.879121,-0.577117,0.197777,0.037595,0.436840
"2019-04-16 05:16:43.588 +0000",1555391803.588213,-0.651150,0.584445,-0.641460,-0.505500,-0.551737,-0.663367,0.000000,0.000000,0.000000,-1,-2.192191,-5.196958,-0.709459,0.114997,0.207697,0.324622
"2019-04-16 05:16:43.610 +0000",1555391803.610494,-0.740622,0.562318,-0.706212,-0.570850,-0.533148,-0.624406,0.000000,0.000000,0.000000,-1,-2.507170,-5.830216,-1.559946,0.097065,0.274939,0.392167
"2019-04-16 05:16:43.633 +0000",1555391803.632802,-0.831908,0.543179,-0.793433,-0.632822,-0.516860,-0.576535,0.000000,0.000000,0.000000,-1,-3.225357,-6.292192,-1.654156,0.029367,0.281798,0.360669
"2019-04-16 05:16:43.655 +0000",1555391803.655111,-0.931736,0.509520,-0.864378,-0.700702,-0.487759,-0.520681,0.000000,0.000000,0.000000,-1,-2.871904,-5.713522,0.027994,0.072558,0.122921,0.340078
"2019-04-16 05:16:43.677 +0000",1555391803.677400,-1.025715,0.476944,-0.896688,-0.759659,-0.459067,-0.460625,0.000000,0.000000,0.000000,-1,-1.187024,-4.488176,0.509093,-0.101410,0.135764,0.324944
"2019-04-16 05:16:43.700 +0000",1555391803.699695,-1.117681,0.477625,-0.900787,-0.798470,-0.459671,-0.388777,0.000000,0.000000,0.000000,-1,0.347938,-4.031650,-0.578534,0.043465,0.210892,0.260466
"2019-04-16 05:16:43.722 +0000",1555391803.722004,-1.205773,0.498329,-0.895860,-0.820511,-0.477958,-0.313557,0.000000,0.000000,0.000000,-1,0.547162,-3.806799,-0.669764,-0.128021,0.174263,0.118901
"2019-04-16 05:16:43.744 +0000",1555391803.744292,-1.293931,0.504406,-0.888789,-0.842122,-0.483287,-0.239300,0.000000,0.000000,0.000000,-1,0.228269,-3.759387,0.174487,-0.367595,-0.026662,0.146542
"2019-04-16 05:16:43.767 +0000",1555391803.766590,-1.378427,0.492279,-0.886403,-0.865002,-0.472636,-0.168483,0.000000,0.000000,0.000000,-1,-0.204882,-3.705942,0.682449,-0.390384,0.003489,0.076961
"2019-04-16 05:16:43.789 +0000",1555391803.788897,-1.455603,0.471190,-0.895147,-0.885124,-0.453947,-0.102414,0.000000,0.000000,0.000000,-1,-0.675999,-3.631932,1.104614,-0.477318,-0.027972,-0.009128
"2019-04-16 05:16:43.811 +0000",1555391803.811205,-1.529477,0.429275,-0.915211,-0.908492,-0.416211,-0.037560,0.000000,0.000000,0.000000,-1,-1.052687,-3.714988,2.255172,-0.529924,-0.002017,-0.212623
"2019-04-16 05:16:43.834 +0000",1555391803.833513,-1.596366,0.366754,-0.940580,-0.933191,-0.358588,0.023867,0.000000,0.000000,0.000000,-1,-1.019196,-3.233546,3.005161,-0.577475,0.019949,-0.225496
"2019-04-16 05:16:43.856 +0000",1555391803.855790,-1.651664,0.303706,-0.965306,-0.951116,-0.299059,0.077082,0.000000,0.000000,0.000000,-1,-0.863182,-2.588805,2.705497,-0.558619,0.034746,-0.221644
"2019-04-16 05:16:43.878 +0000",1555391803.878098,-1.695718,0.255176,-0.993716,-0.960079,-0.252416,0.120563,0.000000,0.000000,0.000000,-1,-1.076495,-2.174590,2.002064,-0.478917,0.078801,-0.229587
"2019-04-16 05:16:43.900 +0000",1555391803.900402,-1.730230,0.225459,-1.020509,-0.962330,-0.223554,0.154741,0.000000,0.000000,0.000000,-1,-1.100140,-1.613752,1.338348,-0.360668,-0.234241,-0.267076
"2019-04-16 05:16:43.923 +0000",1555391803.922717,-1.743679,0.203624,-1.096596,-0.964741,-0.202220,0.168469,0.000000,0.000000,0.000000,-1,-3.597421,-1.527407,1.353879,-0.295086,0.046123,-0.125470
"2019-04-16 05:16:43.945 +0000",1555391803.944992,-1.760163,0.195219,-1.168633,-0.963468,-0.193982,0.184662,0.000000,0.000000,0.000000,-1,-2.398262,-1.074410,0.663112,-0.353380,0.124432,-0.130615
"2019-04-16 05:16:43.967 +0000",1555391803.967294,-1.760459,0.193759,-1.204033,-0.963691,-0.192549,0.184999,0.000000,0.000000,0.000000,-1,-1.203863,0.048787,0.230629,-0.511651,-1.406023,-0.436418
"2019-04-16 05:16:43.990 +0000",1555391803.989603,-1.752314,0.198048,-1.220632,-0.964345,-0.196755,0.176994,0.000000,0.000000,0.000000,-1,-0.550911,0.262480,-0.251077,-0.239391,0.051751,0.034401
"2019-04-16 05:16:44.012 +0000",1555391804.011915,-1.746398,0.209295,-1.222203,-0.963135,-0.207770,0.170888,0.000000,0.000000,0.000000,-1,0.057373,0.272545,-0.578409,-0.325989,0.201667,-0.132772
"2019-04-16 05:16:44.034 +0000",1555391804.034193,-1.743612,0.223027,-1.218085,-0.960706,-0.221182,0.167698,0.000000,0.000000,0.000000,-1,0.029310,0.065558,-0.658459,-0.129916,0.014426,0.020595
"2019-04-16 05:16:44.057 +0000",1555391804.056500,-1.745500,0.238696,-1.219043,-0.956857,-0.236436,0.168888,0.000000,0.000000,0.000000,-1,-0.281949,-0.126525,-0.670534,-0.053000,0.172777,-0.083179
"2019-04-16 05:16:44.079 +0000",1555391804.078840,-1.745481,0.248091,-1.228188,-0.954630,-0.245554,0.168476,0.000000,0.000000,0.000000,-1,-0.481427,-0.049277,-0.077086,0.005824,0.236993,-0.032627
"2019-04-16 05:16:44.101 +0000",1555391804.101092,-1.742986,0.241935,-1.238853,-0.956519,-0.239582,0.166350,0.000000,0.000000,0.000000,-1,-0.403736,-0.083824,0.524916,-0.074487,0.134403,0.044877
"2019-04-16 05:16:44.123 +0000",1555391804.123411,-1.744398,0.242436,-1.248390,-0.956165,-0.240068,0.167680,0.000000,0.000000,0.000000,-1,-0.318103,-0.126329,-0.615967,-0.066479,0.081697,0.076598
"2019-04-16 05:16:44.146 +0000",1555391804.145702,-1.740699,0.269691,-1.243670,-0.949975,-0.266433,0.162974,0.000000,0.000000,0.000000,-1,0.029557,0.363951,-1.371683,-0.049125,-0.003495,0.097020
"2019-04-16 05:16:44.168 +0000",1555391804.168023,-1.735191,0.300862,-1.238385,-0.942204,-0.296344,0.156304,0.000000,0.000000,0.000000,-1,-0.012272,0.214769,-1.453493,0.003636,0.044360,0.157767
"2019-04-16 05:16:44.190 +0000",1555391804.190309,-1.732824,0.332879,-1.238235,-0.932727,-0.326766,0.152464,0.000000,0.000000,0.000000,-1,-0.318255,0.015557,-1.400994,-0.046125,-0.176469,0.121400
"2019-04-16 05:16:44.213 +0000",1555391804.212594,-1.734699,0.364763,-1.240280,-0.921688,-0.356728,0.152435,0.000000,0.000000,0.000000,-1,-0.227267,-0.184151,-1.201936,0.088756,-0.179710,0.183503
"2019-04-16 05:16:44.235 +0000",1555391804.234904,-1.742284,0.379440,-1.246383,-0.915247,-0.370401,0.158511,0.000000,0.000000,0.000000,-1,-0.600512,-0.619063,-0.378238,0.088648,-0.197379,0.172758
"2019-04-16 05:16:44.257 +0000",1555391804.257212,-1.750206,0.379479,-1.271529,-0.913949,-0.370437,0.165754,0.000000,0.000000,0.000000,-1,-1.236057,-0.860023,0.685532,0.046227,0.032775,0.073321
"2019-04-16 05:16:44.280 +0000",1555391804.279518,-1.755917,0.349956,-1.299862,-0.923337,-0.342857,0.172908,0.000000,0.000000,0.000000,-1,-0.658226,-0.583740,1.766319,0.221082,0.019630,0.196797
"2019-04-16 05:16:44.302 +0000",1555391804.301824,-1.758854,0.332740,-1.311208,-0.928487,-0.326634,0.176697,0.000000,0.000000,0.000000,-1,-0.173402,-0.044215,-0.012236,0.048787,-0.171199,0.155883
"2019-04-16 05:16:44.324 +0000",1555391804.324104,-1.753208,0.350396,-1.307549,-0.923654,-0.343270,0.170379,0.000000,0.000000,0.000000,-1,0.048440,0.366399,-0.740262,0.006158,0.041649,0.097031
"2019-04-16 05:16:44.346 +0000",1555391804.346415,-1.750717,0.350247,-1.314009,-0.924126,-0.343130,0.168087,0.000000,0.000000,0.000000,-1,-0.527406,-0.361885,0.588373,0.039543,0.159398,0.085331
"2019-04-16 05:16:44.369 +0000",1555391804.368720,-1.762968,0.331001,-1.330670,-0.928308,-0.324990,0.180624,0.000000,0.000000,0.000000,-1,-0.401837,-0.917416,1.022585,0.102518,0.151192,0.014643
"2019-04-16 05:16:44.391 +0000",1555391804.391029,-1.777823,0.321246,-1.335238,-0.928582,-0.315749,0.195035,0.000000,0.000000,0.000000,-1,0.087336,-0.502812,0.024200,0.280892,-0.106004,0.025973
"2019-04-16 05:16:44.413 +0000",1555391804.413314,-1.782312,0.329795,-1.328395,-0.925024,-0.323849,0.198628,0.000000,0.000000,0.000000,-1,0.243317,0.066948,-0.578731,0.113119,0.035519,0.066723
"2019-04-16 05:16:44.436 +0000",1555391804.435613,-1.779706,0.339134,-1.320744,-0.922539,-0.332671,0.195581,0.000000,0.000000,0.000000,-1,0.257378,0.348685,-0.253723,-0.003425,-0.024217,0.055655
"2019-04-16 05:16:44.458 +0000",1555391804.457921,-1.774827,0.328989,-1.322131,-0.926740,-0.323087,0.191752,0.000000,0.000000,0.000000,-1,-0.137359,0.036499,0.815744,-0.345660,-0.119510,0.012274
"2019-04-16 05:16:44.480 +0000",1555391804.480229,-1.777265,0.307333,-1.327537,-0.932900,-0.302517,0.195399,0.000000,0.000000,0.000000,-1,0.174812,-0.220458,0.819399,-0.250053,0.146298,0.116215
"2019-04-16 05:16:44.503 +0000",1555391804.502506,-1.777059,0.319378,-1.313855,-0.929306,-0.313976,0.194446,0.000000,0.000000,0.000000,-1,0.670877,0.533018,-1.622258,-0.269913,-0.031010,0.142971
"2019-04-16 05:16:44.525 +0000",1555391804.524805,-1.763514,0.363880,-1.290141,-0.917223,-0.355903,0.178986,0.000000,0.000000,0.000000,-1,0.291903,1.093374,-2.371719,0.118669,0.018928,0.096404
"2019-04-16 05:16:44.547 +0000",1555391804.547122,-1.742947,0.426485,-1.282396,-0.896968,-0.413674,0.155957,0.000000,0.000000,0.000000,-1,-0.393709,1.070340,-3.164514,0.235438,0.056725,0.125781
"2019-04-16 05:16:44.569 +0000",1555391804.569428,-1.720136,0.510951,-1.276463,-0.862571,-0.489007,0.129783,0.000000,0.000000,0.000000,-1,-0.352493,1.177268,-4.149194,0.323646,0.055566,0.098397
"2019-04-16 05:16:44.592 +0000",1555391804.591707,-1.694506,0.613017,-1.268850,-0.811665,-0.575338,0.100926,0.000000,0.000000,0.000000,-1,-0.213647,1.384722,-4.278752,0.481786,0.153493,0.184841
"2019-04-16 05:16:44.614 +0000",1555391804.614015,-1.704299,0.616259,-1.253271,-0.808785,-0.577986,0.108621,0.000000,0.000000,0.000000,-1,0.836757,-1.072579,1.799831,0.314843,0.091216,0.100897
"2019-04-16 05:16:44.636 +0000",1555391804.636308,-1.740837,0.587026,-1.256940,-0.820584,-0.553888,0.140893,0.000000,0.000000,0.000000,-1,-0.217260,-1.757997,0.902350,0.434170,0.038125,0.124671
"2019-04-16 05:16:44.659 +0000",1555391804.658632,-1.772826,0.576902,-1.249747,-0.821110,-0.545430,0.168183,0.000000,0.000000,0.000000,-1,0.514411,-0.745436,-0.096277,-0.582729,-0.363033,-0.197694
"2019-04-16 05:16:44.681 +0000",1555391804.680908,-1.776918,0.597974,-1.233491,-0.808983,-0.562969,0.169152,0.000000,0.000000,0.000000,-1,0.366414,0.586076,-1.547187,0.020775,0.420452,0.358986
"2019-04-16 05:16:44.703 +0000",1555391804.703217,-1.766505,0.647704,-1.210479,-0.782248,-0.603357,0.155077,0.000000,0.000000,0.000000,-1,0.379454,1.411618,-2.795050,-0.482385,0.191537,0.021055
"2019-04-16 05:16:44.726 +0000",1555391804.725524,-1.739741,0.714344,-1.187189,-0.744766,-0.655122,0.127036,0.000000,0.000000,0.000000,-1,0.170242,2.012976,-3.139145,-0.443222,-0.198836,0.248880
"2019-04-16 05:16:44.748 +0000",1555391804.747833,-1.704990,0.772691,-1.171424,-0.709597,-0.698065,0.095799,0.000000,0.000000,0.000000,-1,0.064139,1.982603,-2.392116,-0.535627,0.067633,0.293407
"2019-04-16 05:16:44.770 +0000",1555391804.770108,-1.672797,0.812870,-1.172691,-0.683844,-0.726263,0.069995,0.000000,0.000000,0.000000,-1,-0.507953,0.983895,-1.327795,-0.224848,0.276922,0.309735
"2019-04-16 05:16:44.792 +0000",1555391804.792416,-1.646951,0.830515,-1.195281,-0.672540,-0.738279,0.051317,0.000000,0.000000,0.000000,-1,-0.833544,0.079378,-0.427957,0.280954,0.182981,0.032134
"2019-04-16 05:16:44.815 +0000",1555391804.814726,-1.644441,0.838318,-1.214097,-0.666902,-0.743520,0.049203,0.000000,0.000000,0.000000,-1,-0.263082,-0.807000,-0.344171,0.241639,0.043111,0.140983
"2019-04-16 05:16:44.837 +0000",1555391804.837038,-1.702450,0.866657,-1.192381,-0.641776,-0.762169,0.084984,0.000000,0.000000,0.000000,-1,0.755758,-3.962931,-2.198862,0.250846,0.008080,0.025459
"2019-04-16 05:16:44.859 +0000",1555391804.859330,-1.859201,0.939955,-1.171746,-0.565463,-0.807532,0.167760,0.000000,0.000000,0.000000,-1,-0.549243,-7.263242,-3.915566,-0.059521,-0.017465,-0.057484
"2019-04-16 05:16:44.882 +0000",1555391804.881618,-1.975067,1.046466,-1.126331,-0.460277,-0.865659,0.196923,0.000000,0.000000,0.000000,-1,-1.203626,-0.470913,-5.271264,-0.623875,0.528532,-1.080300
"2019-04-16 05:16:44.904 +0000",1555391804.903926,-1.914418,1.174040,-1.169737,-0.363838,-0.922319,0.130187,0.000000,0.000000,0.000000,-1,-3.773004,0.820709,-4.682168,-0.791298,0.704241,-0.167541
"2019-04-16 05:16:44.926 +0000",1555391804.926234,-1.775344,1.273118,-1.342336,-0.287187,-0.956020,0.059577,0.000000,0.000000,0.000000,-1,-3.145999,-2.373263,-2.647593,0.148347,0.569744,1.149988
"2019-04-16 05:16:44.949 +0000",1555391804.948519,-1.741239,1.305419,-1.445228,-0.258473,-0.964994,0.044487,0.000000,0.000000,0.000000,-1,-0.571044,-2.480856,-0.529172,0.504292,0.138867,0.068017
"2019-04-16 05:16:44.971 +0000",1555391804.970819,-1.729605,1.304839,-1.475059,-0.259526,-0.964841,0.041565,0.000000,0.000000,0.000000,-1,-1.114140,-0.467530,0.371964,0.545155,-0.086230,-0.294067
"2019-04-16 05:16:44.993 +0000",1555391804.993128,-1.671160,1.295859,-1.547605,-0.270120,-0.962442,0.027202,0.000000,0.000000,0.000000,-1,-0.675332,-0.446689,0.623797,0.349207,-0.693915,-0.269084
"2019-04-16 05:16:45.015 +0000",1555391805.015436,-1.707718,1.290798,-1.523956,-0.273768,-0.961056,0.037721,0.000000,0.000000,0.000000,-1,0.510087,-0.464486,0.026522,0.013880,-0.286960,0.128860
"2019-04-16 05:16:45.038 +0000",1555391805.037713,-1.738904,1.294586,-1.484767,-0.268867,-0.962096,0.045629,0.000000,0.000000,0.000000,-1,0.442627,0.488539,-0.373977,0.223595,-0.110963,0.048639
"2019-04-16 05:16:45.060 +0000",1555391805.060019,-1.768670,1.298338,-1.444706,-0.263849,-0.963112,0.052901,0.000000,0.000000,0.000000,-1,0.434529,0.292484,-0.173754,-0.076941,0.363106,-0.317992
"2019-04-16 05:16:45.082 +0000",1555391805.082330,-1.789949,1.300474,-1.412580,-0.260655,-0.963685,0.058056,0.000000,0.000000,0.000000,-1,0.266023,0.941071,-0.079100,-0.062511,0.157838,0.077519
"2019-04-16 05:16:45.105 +0000",1555391805.104619,-1.755335,1.292071,-1.406693,-0.270459,-0.961407,0.050485,0.000000,0.000000,0.000000,-1,0.077486,1.744502,0.614594,0.189649,0.096356,0.154487
"2019-04-16 05:16:45.127 +0000",1555391805.126945,-1.730629,1.280650,-1.414021,-0.282445,-0.958202,0.045532,0.000000,0.000000,0.000000,-1,0.063506,0.465875,0.169418,0.163488,0.154598,0.164368
"2019-04-16 05:16:45.149 +0000",1555391805.149227,-1.762274,1.286288,-1.368498,-0.275556,-0.959800,0.053417,0.000000,0.000000,0.000000,-1,0.872681,0.515379,-0.463686,0.066525,0.225761,0.143162
"2019-04-16 05:16:45.172 +0000",1555391805.171530,-1.854898,1.297839,-1.253733,-0.258774,-0.962978,0.075562,0.000000,0.000000,0.000000,-1,1.127850,0.980774,-1.025951,-0.117889,0.123058,0.030532
"2019-04-16 05:16:45.194 +0000",1555391805.193838,-1.870130,1.300458,-1.217749,-0.255182,-0.963681,0.078751,0.000000,0.000000,0.000000,-1,0.536118,0.143593,-0.498986,-0.088873,0.284985,-0.193833
"2019-04-16 05:16:45.216 +0000",1555391805.216146,-1.934026,1.311152,-1.155701,-0.239986,-0.966481,0.091217,0.000000,0.000000,0.000000,-1,0.386586,0.655922,-0.649982,-0.072270,-0.122645,-0.055634
"2019-04-16 05:16:45.238 +0000",1555391805.238441,-1.964494,1.325255,-1.105361,-0.224485,-0.970006,0.093247,0.000000,0.000000,0.000000,-1,0.533343,0.808464,-0.983738,0.475599,-0.706996,0.292373
"2019-04-16 05:16:45.261 +0000",1555391805.260732,-2.051968,1.349705,-0.993756,-0.194395,-0.975659,0.101494,0.000000,0.000000,0.000000,-1,0.530978,1.253709,-1.638976,0.211225,-0.019688,0.270516
"2019-04-16 05:16:45.283 +0000",1555391805.283040,-2.115947,1.374045,-0.874122,-0.167149,-0.980707,0.101368,0.000000,0.000000,0.000000,-1,0.408330,2.952810,-1.241010,-0.104320,-0.007620,0.440060
"2019-04-16 05:16:45.305 +0000",1555391805.305346,-2.114157,1.378173,-0.822869,-0.163864,-0.981505,0.098975,0.000000,0.000000,0.000000,-1,0.039996,1.442069,0.045037,-0.147751,-0.256944,0.169916
"2019-04-16 05:16:45.328 +0000",1555391805.327625,-2.063426,1.383201,-0.876635,-0.164321,-0.982456,0.088203,0.000000,0.000000,0.000000,-1,-0.683864,-0.279392,0.001702,0.064773,-0.033185,0.441354
"2019-04-16 05:16:45.350 +0000",1555391805.349933,-2.026350,1.387602,-0.917600,-0.163593,-0.983267,0.080148,0.000000,0.000000,0.000000,-1,-0.157123,-0.121891,-0.045370,0.438892,-0.152979,-0.015771
"2019-04-16 05:16:45.372 +0000",1555391805.372223,-2.027651,1.387455,-0.917410,-0.163618,-0.983240,0.080424,0.000000,0.000000,0.000000,-1,0.018042,-0.065729,0.144009,-0.065630,0.091532,0.159932
"2019-04-16 05:16:45.395 +0000",1555391805.394540,-1.996796,1.379020,-0.950874,-0.173568,-0.981667,0.078763,0.000000,0.000000,0.000000,-1,-0.178518,-0.035954,0.230499,-0.007783,0.065423,0.026416
"2019-04-16 05:16:45.417 +0000",1555391805.416825,-1.965877,1.385459,-0.979481,-0.170082,-0.982874,0.070925,0.000000,0.000000,0.000000,-1,-0.408104,0.251663,-0.443285,0.028359,0.023676,0.043744
"2019-04-16 05:16:45.439 +0000",1555391805.439134,-1.949579,1.410212,-0.984197,-0.148561,-0.987134,0.059128,0.000000,0.000000,0.000000,-1,-0.483991,0.594112,-1.270077,0.410142,0.074811,0.153595
"2019-04-16 05:16:45.461 +0000",1555391805.461440,-1.963871,1.446485,-0.961767,-0.114535,-0.992283,0.047492,0.000000,0.000000,0.000000,-1,-0.403418,0.160546,-1.740080,-0.239667,0.127415,0.196740
"2019-04-16 05:16:45.484 +0000",1555391805.483749,-2.120166,1.480078,-0.799033,-0.077263,-0.995888,0.047303,0.000000,0.000000,0.000000,-1,0.313906,0.368415,-1.507156,-0.279793,-0.049293,0.125487
"2019-04-16 05:16:45.506 +0000",1555391805.506027,-2.461323,1.491435,-0.445429,-0.049866,-0.996853,0.061631,0.000000,0.000000,0.000000,-1,0.717206,0.549879,-1.069443,-0.291824,0.062710,0.093353
"2019-04-16 05:16:45.528 +0000",1555391805.528347,-2.631662,1.496462,-0.281080,-0.036250,-0.997238,0.064818,0.000000,0.000000,0.000000,-1,-0.009160,-0.308696,-0.333935,0.398403,0.030884,-0.112486
"2019-04-16 05:16:45.551 +0000",1555391805.550641,-2.630414,1.498442,-0.279773,-0.035366,-0.997384,0.063051,0.000000,0.000000,0.000000,-1,-0.146296,0.171452,0.099655,0.330944,-0.090355,-0.041338
"2019-04-16 05:16:45.573 +0000",1555391805.572949,-2.529073,1.500996,-0.378202,-0.040098,-0.997565,0.057065,0.000000,0.000000,0.000000,-1,-0.307534,0.087099,0.254162,-0.001681,-0.140832,0.404941
"2019-04-16 05:16:45.595 +0000",1555391805.595241,-2.374823,1.502347,-0.535267,-0.047454,-0.997658,0.049256,0.000000,0.000000,0.000000,-1,-0.397534,-0.263008,0.389969,0.116058,-0.121315,0.154373
"2019-04-16 05:16:45.618 +0000",1555391805.617536,-2.163897,1.499961,-0.759917,-0.058689,-0.997492,0.039560,0.000000,0.000000,0.000000,-1,-0.484673,-0.795956,0.642771,0.112995,-0.049169,0.142645
"2019-04-16 05:16:45.640 +0000",1555391805.639843,-1.943126,1.489101,-1.014674,-0.076013,-0.996665,0.029687,0.000000,0.000000,0.000000,-1,-0.533516,-1.924455,0.851253,0.092859,-0.008615,0.135795
"2019-04-16 05:16:45.662 +0000",1555391805.662132,-1.819637,1.487099,-1.172673,-0.081024,-0.996499,0.020589,0.000000,0.000000,0.000000,-1,-0.385972,-1.012570,-0.032600,0.112091,-0.058890,0.142436
"2019-04-16 05:16:45.684 +0000",1555391805.684432,-1.727535,1.486426,-1.274040,-0.083238,-0.996443,0.013154,0.000000,0.000000,0.000000,-1,-1.187903,-0.891626,0.155786,0.037293,0.188322,0.077590
"2019-04-16 05:16:45.707 +0000",1555391805.706736,-1.540279,1.491339,-1.486208,-0.079337,-0.996845,-0.002422,0.000000,0.000000,0.000000,-1,0.056284,0.268066,-0.069829,-0.229806,0.449207,0.192943
"2019-04-16 05:16:45.729 +0000",1555391805.729044,-1.570253,1.491711,-1.455752,-0.079003,-0.996874,-0.000043,0.000000,0.000000,0.000000,-1,0.051159,-0.178295,-0.021210,0.169107,-0.021192,-0.013995
"2019-04-16 05:16:45.751 +0000",1555391805.751339,-1.599747,1.492379,-1.429749,-0.078304,-0.996927,0.002268,0.000000,0.000000,0.000000,-1,0.092477,-0.162368,-0.042423,0.146236,-0.155310,-0.131037
"2019-04-16 05:16:45.774 +0000",1555391805.773630,-1.619271,1.493476,-1.413292,-0.077153,-0.997012,0.003743,0.000000,0.000000,0.000000,-1,0.037284,-0.125511,-0.048976,0.035970,0.036410,0.104381
"2019-04-16 05:16:45.796 +0000",1555391805.795936,-1.630162,1.494315,-1.404856,-0.076272,-0.997077,0.004533,0.000000,0.000000,0.000000,-1,0.022328,-0.109445,-0.028036,0.060204,0.018378,0.094878
"2019-04-16 05:16:45.818 +0000",1555391805.818249,-1.639037,1.494479,-1.398899,-0.076066,-0.997089,0.005199,0.000000,0.000000,0.000000,-1,0.013627,-0.143796,-0.002924,0.073701,-0.006298,0.141560
"2019-04-16 05:16:45.841 +0000",1555391805.840551,-1.640201,1.494263,-1.401428,-0.076275,-0.997073,0.005302,0.000000,0.000000,0.000000,-1,-0.025205,-0.178183,0.015973,0.071224,-0.013792,0.143379
"2019-04-16 05:16:45.863 +0000",1555391805.862861,-1.628848,1.494201,-1.417289,-0.076391,-0.997068,0.004440,0.000000,0.000000,0.000000,-1,-0.065424,-0.207781,0.001332,0.084311,-0.010470,0.124848
"2019-04-16 05:16:45.885 +0000",1555391805.885137,-1.616440,1.494479,-1.434872,-0.076164,-0.997089,0.003479,0.000000,0.000000,0.000000,-1,-0.051717,-0.247201,-0.014440,0.086250,-0.007031,0.130615
"2019-04-16 05:16:45.907 +0000",1555391805.907448,-1.615172,1.494792,-1.442319,-0.075856,-0.997113,0.003368,0.000000,0.000000,0.000000,-1,-0.009106,-0.296392,-0.015225,0.081853,0.005353,0.137226
"2019-04-16 05:16:45.930 +0000",1555391805.929755,-1.620335,1.495024,-1.444209,-0.075607,-0.997131,0.003749,0.000000,0.000000,0.000000,-1,-0.007845,-0.324660,-0.008771,0.071899,0.011855,0.114888
"2019-04-16 05:16:45.952 +0000",1555391805.952064,-1.624750,1.495039,-1.446970,-0.075576,-0.997132,0.004082,0.000000,0.000000,0.000000,-1,-0.010282,-0.314758,0.007267,0.055602,0.012253,0.093178
"2019-04-16 05:16:45.974 +0000",1555391805.974335,-1.630153,1.494731,-1.448184,-0.075857,-0.997108,0.004508,0.000000,0.000000,0.000000,-1,0.003574,-0.287651,0.016957,0.039740,-0.009331,0.089349
"2019-04-16 05:16:45.997 +0000",1555391805.996647,-1.858448,1.499099,-1.226343,-0.068693,-0.997431,0.020323,0.000000,0.000000,0.000000,-1,0.035029,-0.245986,0.007885,0.033979,-0.010015,0.070192
"2019-04-16 05:16:46.019 +0000",1555391806.018950,-1.878208,1.498751,-1.210844,-0.068609,-0.997406,0.021782,0.000000,0.000000,0.000000,-1,0.060130,-0.153760,-0.004088,0.027135,-0.000382,0.069344
"2019-04-16 05:16:46.041 +0000",1555391806.041248,-2.055302,1.496271,-1.036347,-0.065886,-0.997224,0.034679,0.000000,0.000000,0.000000,-1,0.047618,-0.070305,-0.029632,0.003600,0.008470,0.071751
"2019-04-16 05:16:46.064 +0000",1555391806.063540,-2.074717,1.496616,-1.016976,-0.064900,-0.997250,0.035786,0.000000,0.000000,0.000000,-1,0.051355,0.021873,-0.051538,-0.002147,0.010327,0.068950
"2019-04-16 05:16:46.086 +0000",1555391806.085849,-2.176322,1.490777,-0.914305,-0.065722,-0.996800,0.045498,0.000000,0.000000,0.000000,-1,0.067655,0.077095,-0.075539,-0.015119,0.012074,0.053196
"2019-04-16 05:16:46.108 +0000",1555391806.108158,-2.204194,1.491219,-0.884082,-0.064074,-0.996835,0.047051,0.000000,0.000000,0.000000,-1,0.076430,0.115204,-0.083317,-0.026045,0.009485,0.051673
"2019-04-16 05:16:46.130 +0000",1555391806.130466,-2.280009,1.485200,-0.805487,-0.064878,-0.996339,0.055675,0.000000,0.000000,0.000000,-1,0.080272,0.133638,-0.078466,-0.019778,-0.000457,0.052021
"2019-04-16 05:16:46.153 +0000",1555391806.152743,-2.343262,1.479994,-0.739432,-0.064942,-0.995880,0.063284,0.000000,0.000000,0.000000,-1,0.070339,0.122588,-0.062209,-0.012969,0.002304,0.051142
"2019-04-16 05:16:46.175 +0000",1555391806.175050,-2.469555,1.468897,-0.611474,-0.063331,-0.994813,0.079604,0.000000,0.000000,0.000000,-1,0.050489,0.075852,-0.028271,0.009391,-0.001891,0.052751
"2019-04-16 05:16:46.197 +0000",1555391806.197342,-2.513556,1.465876,-0.566571,-0.061534,-0.994501,0.084744,0.000000,0.000000,0.000000,-1,0.024256,0.031613,-0.003085,0.035319,-0.014822,0.069812
"2019-04-16 05:16:46.220 +0000",1555391806.219666,-2.512555,1.465835,-0.567406,-0.061642,-0.994497,0.084715,0.000000,0.000000,0.000000,-1,-0.018373,-0.008955,0.008422,0.044629,-0.014231,0.081056
"2019-04-16 05:16:46.242 +0000",1555391806.241944,-2.575636,1.463404,-0.505820,-0.057476,-0.994239,0.090473,0.000000,0.000000,0.000000,-1,-0.055960,-0.069292,0.015109,0.057461,-0.011254,0.089962
"2019-04-16 05:16:46.264 +0000",1555391806.264249,-2.564337,1.464593,-0.519448,-0.057849,-0.994366,0.088827,0.000000,0.000000,0.000000,-1,-0.094789,-0.115971,0.036596,0.079120,-0.001270,0.100794
"2019-04-16 05:16:46.287 +0000",1555391806.286559,-2.546514,1.466285,-0.540702,-0.058480,-0.994544,0.086389,0.000000,0.000000,0.000000,-1,-0.136170,-0.167610,0.048201,0.088219,-0.005029,0.109916
"2019-04-16 05:16:46.309 +0000",1555391806.308868,-2.524069,1.468019,-0.568072,-0.059405,-0.994723,0.083649,0.000000,0.000000,0.000000,-1,-0.138752,-0.267023,0.073737,0.086078,-0.006208,0.105988
"2019-04-16 05:16:46.331 +0000",1555391806.331158,-2.509718,1.469613,-0.592631,-0.059663,-0.994885,0.081508,0.000000,0.000000,0.000000,-1,-0.074015,-0.505953,-0.005990,0.086702,-0.017368,0.099354
"2019-04-16 05:16:46.353 +0000",1555391806.353452,-2.528415,1.470013,-0.579593,-0.057899,-0.994926,0.082283,0.000000,0.000000,0.000000,-1,0.036404,-0.114936,-0.062757,0.089638,-0.008385,0.084343
"2019-04-16 05:16:46.376 +0000",1555391806.375761,-2.545948,1.469691,-0.558728,-0.056627,-0.994893,0.083550,0.000000,0.000000,0.000000,-1,0.135516,0.317857,-0.131065,0.122149,-0.017970,0.012443
"2019-04-16 05:16:46.398 +0000",1555391806.398069,-2.603268,1.467542,-0.490753,-0.052844,-0.994674,0.088493,0.000000,0.000000,0.000000,-1,0.228068,0.431971,-0.216395,-0.193006,0.049545,-0.005729
"2019-04-16 05:16:46.420 +0000",1555391806.420359,-2.627612,1.467439,-0.460565,-0.050725,-0.994663,0.089842,0.000000,0.000000,0.000000,-1,-0.004663,0.185319,-0.033186,-0.066814,0.029011,0.000856
"2019-04-16 05:16:46.443 +0000",1555391806.442653,-2.613295,1.467378,-0.471237,-0.052036,-0.994657,0.089160,0.000000,0.000000,0.000000,-1,-0.008044,0.150028,0.066369,-0.032757,0.010633,-0.034579
"2019-04-16 05:16:46.465 +0000",1555391806.464961,-2.604707,1.466507,-0.477537,-0.053244,-0.994567,0.089454,0.000000,0.000000,0.000000,-1,0.043121,0.079727,0.013672,0.121130,-0.021104,-0.023552
"2019-04-16 05:16:46.487 +0000",1555391806.487257,-2.618443,1.465471,-0.461003,-0.052525,-0.994458,0.091070,0.000000,0.000000,0.000000,-1,0.084233,0.167992,-0.070210,0.104191,-0.009753,-0.027151
"2019-04-16 05:16:46.510 +0000",1555391806.509546,-2.623760,1.465911,-0.450060,-0.051823,-0.994505,0.090968,0.000000,0.000000,0.000000,-1,-0.053520,0.281247,-0.034059,0.079426,-0.025500,-0.027644
"2019-04-16 05:16:46.532 +0000",1555391806.531856,-2.603306,1.467834,-0.465231,-0.052692,-0.994704,0.088246,0.000000,0.000000,0.000000,-1,-0.112218,0.201558,0.042297,0.000736,-0.038011,0.028041
"2019-04-16 05:16:46.554 +0000",1555391806.554163,-2.584457,1.468504,-0.481108,-0.053993,-0.994773,0.086671,0.000000,0.000000,0.000000,-1,-0.032021,0.099478,0.039516,-0.001747,-0.019265,0.052977
"2019-04-16 05:16:46.576 +0000",1555391806.576471,-2.585511,1.468091,-0.478634,-0.054119,-0.994730,0.087077,0.000000,0.000000,0.000000,-1,0.044225,0.050081,-0.018319,0.056011,0.024241,0.070516
"2019-04-16 05:16:46.599 +0000",1555391806.598779,-2.602621,1.467591,-0.460286,-0.052877,-0.994679,0.088418,0.000000,0.000000,0.000000,-1,0.071589,0.059708,-0.076698,0.089803,0.013798,0.067268
"2019-04-16 05:16:46.621 +0000",1555391806.621056,-2.624570,1.467171,-0.436012,-0.051130,-0.994636,0.089919,0.000000,0.000000,0.000000,-1,0.071590,0.123636,-0.087190,0.069852,0.007331,0.059495
"2019-04-16 05:16:46.643 +0000",1555391806.643357,-2.641584,1.466399,-0.415801,-0.049961,-0.994556,0.091451,0.000000,0.000000,0.000000,-1,0.074268,0.134861,-0.047591,-0.024303,0.002063,0.043360
"2019-04-16 05:16:46.666 +0000",1555391806.665673,-2.650203,1.465420,-0.404686,-0.049630,-0.994453,0.092736,0.000000,0.000000,0.000000,-1,0.056812,0.094385,-0.014985,-0.034126,0.003975,0.046440
"2019-04-16 05:16:46.688 +0000",1555391806.687980,-2.651804,1.464796,-0.401228,-0.049773,-0.994387,0.093363,0.000000,0.000000,0.000000,-1,0.021757,0.072305,0.005045,0.004684,0.010592,0.047949
"2019-04-16 05:16:46.710 +0000",1555391806.710270,-2.649155,1.464490,-0.402786,-0.050164,-0.994355,0.093499,0.000000,0.000000,0.000000,-1,0.006716,0.035428,0.014049,0.065072,-0.004547,0.045432
"2019-04-16 05:16:46.733 +0000",1555391806.732565,-2.647124,1.464238,-0.404372,-0.050473,-0.994328,0.093618,0.000000,0.000000,0.000000,-1,0.005441,0.019427,0.011710,0.071805,-0.021465,0.038768
"2019-04-16 05:16:46.755 +0000",1555391806.754873,-2.705754,1.464316,-0.345570,-0.044868,-0.994336,0.096344,0.000000,0.000000,0.000000,-1,0.015457,0.024279,0.000442,0.068305,-0.023532,0.029190
"2019-04-16 05:16:46.777 +0000",1555391806.777182,-2.706505,1.464347,-0.344458,-0.044783,-0.994340,0.096350,0.000000,0.000000,0.000000,-1,-0.005906,0.009480,-0.006879,0.068937,-0.006957,0.026773
"2019-04-16 05:16:46.799 +0000",1555391806.799479,-2.707783,1.464675,-0.343091,-0.044522,-0.994374,0.096110,0.000000,0.000000,0.000000,-1,-0.013459,-0.000383,-0.011757,0.060925,0.006383,0.022527
"2019-04-16 05:16:46.822 +0000",1555391806.821767,-2.710630,1.464973,-0.340299,-0.044125,-0.994406,0.095968,0.000000,0.000000,0.000000,-1,-0.000946,-0.007783,-0.017888,0.054333,0.005850,0.019252
"2019-04-16 05:16:46.844 +0000",1555391806.844073,-2.755784,1.464692,-0.295881,-0.039853,-0.994376,0.098121,0.000000,0.000000,0.000000,-1,0.020389,-0.043453,-0.013886,0.044889,0.002524,0.028268
"2019-04-16 05:16:46.866 +0000",1555391806.866362,-2.797994,1.462307,-0.255232,-0.036476,-0.994121,0.101948,0.000000,0.000000,0.000000,-1,0.046805,-0.075384,0.002500,0.040916,0.003413,0.037106
"2019-04-16 05:16:46.889 +0000",1555391806.888659,-2.859429,1.458254,-0.196050,-0.031270,-0.993674,0.107864,0.000000,0.000000,0.000000,-1,0.040637,-0.088897,0.017444,0.035588,0.000906,0.032487
"2019-04-16 05:16:46.911 +0000",1555391806.910967,-2.899933,1.454571,-0.157819,-0.027752,-0.993253,0.112594,0.000000,0.000000,0.000000,-1,0.014350,-0.090157,0.019884,0.027584,-0.001849,0.031555
"2019-04-16 05:16:46.933 +0000",1555391806.933262,-2.921492,1.451796,-0.138474,-0.025920,-0.992928,0.115855,0.000000,0.000000,0.000000,-1,-0.009475,-0.093899,0.013684,0.011424,-0.004203,0.029668
"2019-04-16 05:16:46.956 +0000",1555391806.955583,-2.930395,1.449079,-0.131805,-0.025453,-0.992602,0.118719,0.000000,0.000000,0.000000,-1,-0.004468,-0.098867,0.003805,0.002809,-0.006452,0.032541
"2019-04-16 05:16:46.978 +0000",1555391806.977860,-2.940550,1.446516,-0.124007,-0.024754,-0.992287,0.121464,0.000000,0.000000,0.000000,-1,-0.001955,-0.101360,-0.002376,0.006016,-0.008140,0.030392
"2019-04-16 05:16:47.000 +0000",1555391807.000179,-2.953717,1.444682,-0.113363,-0.023492,-0.992058,0.123567,0.000000,0.000000,0.000000,-1,-0.008202,-0.111209,-0.001060,0.012643,-0.006569,0.025572
"2019-04-16 05:16:47.022 +0000",1555391807.022476,-2.979228,1.443418,-0.090665,-0.020536,-0.991898,0.125364,0.000000,0.000000,0.000000,-1,-0.013163,-0.122262,0.008925,0.024610,-0.001235,0.016451
"2019-04-16 05:16:47.045 +0000",1555391807.044784,-2.987085,1.443341,-0.085732,-0.019562,-0.991889,0.125596,0.000000,0.000000,0.000000,-1,-0.018142,-0.128387,0.017648,0.026306,-0.002817,0.014601
"2019-04-16 05:16:47.067 +0000",1555391807.067062,-2.998272,1.443342,-0.077430,-0.018155,-0.991889,0.125806,0.000000,0.000000,0.000000,-1,-0.025639,-0.119773,0.021270,0.017774,-0.004464,0.011355
"2019-04-16 05:16:47.089 +0000",1555391807.089361,-3.004160,1.443155,-0.074125,-0.017440,-0.991865,0.126095,0.000000,0.000000,0.000000,-1,-0.031936,-0.107523,0.009985,0.007170,-0.003268,0.017628
"2019-04-16 05:16:47.112 +0000",1555391807.111678,-3.010338,1.442660,-0.070182,-0.016724,-0.991802,0.126687,0.000000,0.000000,0.000000,-1,-0.016914,-0.091582,-0.003801,0.005753,-0.000325,0.018531
"2019-04-16 05:16:47.134 +0000",1555391807.133986,-3.015203,1.441761,-0.067282,-0.016220,-0.991687,0.127651,0.000000,0.000000,0.000000,-1,0.001910,-0.086666,-0.006317,-0.000046,0.001666,0.016133
"2019-04-16 05:16:47.156 +0000",1555391807.156271,-3.018873,1.440594,-0.065324,-0.015893,-0.991536,0.128858,0.000000,0.000000,0.000000,-1,0.005526,-0.075502,-0.010128,-0.005057,-0.000743,0.016741
"2019-04-16 05:16:47.179 +0000",1555391807.178570,-3.022057,1.439473,-0.063869,-0.015615,-0.991390,0.130011,0.000000,0.000000,0.000000,-1,0.010538,-0.082891,-0.012538,-0.004938,-0.002797,0.014260
"2019-04-16 05:16:47.201 +0000",1555391807.200878,-3.023608,1.438700,-0.064470,-0.015504,-0.991288,0.130797,0.000000,0.000000,0.000000,-1,0.003042,-0.101312,-0.003689,-0.005690,-0.004012,0.010118
"2019-04-16 05:16:47.223 +0000",1555391807.223186,-3.024227,1.438945,-0.066199,-0.015395,-0.991320,0.130565,0.000000,0.000000,0.000000,-1,-0.039549,-0.104967,0.009972,0.000563,-0.007963,0.001012
"2019-04-16 05:16:47.245 +0000",1555391807.245464,-3.020948,1.439985,-0.071890,-0.015699,-0.991456,0.129491,0.000000,0.000000,0.000000,-1,-0.056999,-0.106100,0.037267,0.000379,-0.008071,0.003489
"2019-04-16 05:16:47.268 +0000",1555391807.267772,-3.017031,1.440816,-0.078308,-0.016103,-0.991565,0.128610,0.000000,0.000000,0.000000,-1,-0.061963,-0.108516,0.049688,0.007284,-0.011533,0.012915
"2019-04-16 05:16:47.291 +0000",1555391807.290570,-3.012414,1.441294,-0.085350,-0.016636,-0.991626,0.128065,0.000000,0.000000,0.000000,-1,-0.059435,-0.099901,0.050850,0.005680,-0.012036,0.019228
"2019-04-16 05:16:47.313 +0000",1555391807.312861,-3.009579,1.441591,-0.090351,-0.016960,-0.991665,0.127725,0.000000,0.000000,0.000000,-1,-0.075739,-0.085169,0.045746,0.012230,-0.004567,0.024130
"2019-04-16 05:16:47.335 +0000",1555391807.335157,-3.007887,1.442271,-0.093677,-0.017086,-0.991752,0.127028,0.000000,0.000000,0.000000,-1,-0.077036,-0.060637,0.028155,0.008023,-0.003350,0.021593
"2019-04-16 05:16:47.357 +0000",1555391807.357464,-3.006657,1.442768,-0.096307,-0.017176,-0.991816,0.126519,0.000000,0.000000,0.000000,-1,-0.049473,-0.063126,0.018262,0.005427,0.001123,0.015220
"2019-04-16 05:16:47.380 +0000",1555391807.379772,-3.009034,1.442705,-0.095528,-0.016884,-0.991807,0.126621,0.000000,0.000000,0.000000,-1,-0.018166,-0.073008,0.004714,0.007088,-0.002257,0.015530
"2019-04-16 05:16:47.402 +0000",1555391807.402081,-3.013403,1.442190,-0.092585,-0.016396,-0.991742,0.127200,0.000000,0.000000,0.000000,-1,0.011889,-0.058297,-0.011533,0.003380,-0.006641,0.010435
"2019-04-16 05:16:47.424 +0000",1555391807.424358,-3.018421,1.441222,-0.088368,-0.015875,-0.991617,0.128233,0.000000,0.000000,0.000000,-1,0.030675,-0.021444,-0.026738,-0.004389,-0.000311,0.011186
"2019-04-16 05:16:47.447 +0000",1555391807.446666,-3.022520,1.439974,-0.084314,-0.015496,-0.991455,0.129526,0.000000,0.000000,0.000000,-1,0.030695,0.004384,-0.028203,-0.006949,0.010132,0.011618
"2019-04-16 05:16:47.469 +0000",1555391807.468973,-3.023676,1.438695,-0.082776,-0.015496,-0.991287,0.130802,0.000000,0.000000,0.000000,-1,0.030769,0.021660,-0.014704,-0.009910,0.006744,0.009685
"2019-04-16 05:16:47.491 +0000",1555391807.491281,-3.022115,1.437622,-0.083676,-0.015827,-0.991145,0.131835,0.000000,0.000000,0.000000,-1,0.023326,0.037712,0.001283,-0.009320,0.001460,0.011857
"2019-04-16 05:16:47.514 +0000",1555391807.513589,-3.018936,1.436651,-0.085817,-0.016363,-0.991016,0.132739,0.000000,0.000000,0.000000,-1,0.018362,0.053735,0.009826,-0.005106,-0.005719,0.012464
"2019-04-16 05:16:47.536 +0000",1555391807.535866,-3.014454,1.435972,-0.088818,-0.017043,-0.990925,0.133331,0.000000,0.000000,0.000000,-1,0.004635,0.077149,0.022020,-0.002762,-0.010753,0.011109
"2019-04-16 05:16:47.558 +0000",1555391807.558175,-3.009636,1.435796,-0.091681,-0.017709,-0.990901,0.133421,0.000000,0.000000,0.000000,-1,-0.012966,0.094311,0.008216,-0.002936,-0.008824,0.006349
"2019-04-16 05:16:47.580 +0000",1555391807.580482,-3.005860,1.436212,-0.093262,-0.018156,-0.990957,0.132944,0.000000,0.000000,0.000000,-1,-0.020513,0.101665,0.001945,-0.001497,-0.006769,-0.000986
"2019-04-16 05:16:47.603 +0000",1555391807.602786,-3.002605,1.436941,-0.094277,-0.018489,-0.991055,0.132169,0.000000,0.000000,0.000000,-1,-0.035568,0.099198,0.001960,0.004222,-0.009952,0.003162
"2019-04-16 05:16:47.625 +0000",1555391807.625068,-2.999882,1.437780,-0.094965,-0.018732,-0.991166,0.131296,0.000000,0.000000,0.000000,-1,-0.044304,0.086940,0.014467,0.007684,-0.014144,0.005088
"2019-04-16 05:16:47.647 +0000",1555391807.647376,-3.001098,1.438265,-0.092154,-0.018505,-0.991231,0.130842,0.000000,0.000000,0.000000,-1,-0.041803,0.069712,0.013368,0.015651,-0.015102,0.015658
"2019-04-16 05:16:47.670 +0000",1555391807.669684,-3.000131,1.438837,-0.091702,-0.018551,-0.991306,0.130262,0.000000,0.000000,0.000000,-1,-0.035700,0.062371,0.001089,0.014752,-0.011853,0.018221
"2019-04-16 05:16:47.692 +0000",1555391807.691992,-3.003035,1.439137,-0.087579,-0.018132,-0.991345,0.130021,0.000000,0.000000,0.000000,-1,-0.024448,0.051269,-0.007498,0.012883,0.005414,0.007430
"2019-04-16 05:16:47.714 +0000",1555391807.714269,-3.004830,1.439267,-0.084646,-0.017881,-0.991363,0.129925,0.000000,0.000000,0.000000,-1,-0.006901,0.048801,-0.011192,0.000897,0.006621,0.005146
"2019-04-16 05:16:47.737 +0000",1555391807.736588,-3.007030,1.438959,-0.081618,-0.017636,-0.991322,0.130267,0.000000,0.000000,0.000000,-1,0.010605,0.027854,-0.022163,-0.002353,0.002247,0.005826
"2019-04-16 05:16:47.759 +0000",1555391807.758885,-3.009419,1.438594,-0.078719,-0.017372,-0.991274,0.130667,0.000000,0.000000,0.000000,-1,0.013129,0.016804,-0.017100,-0.000588,-0.000578,0.001184
"2019-04-16 05:16:47.781 +0000",1555391807.781193,-3.011349,1.438346,-0.076495,-0.017152,-0.991241,0.130945,0.000000,0.000000,0.000000,-1,0.006911,0.013163,-0.003424,0.001771,-0.002854,0.001944
"2019-04-16 05:16:47.803 +0000",1555391807.803469,-3.012111,1.438364,-0.075462,-0.017050,-0.991244,0.130940,0.000000,0.000000,0.000000,-1,-0.000591,0.011954,0.002784,0.004293,-0.008283,-0.000630
"2019-04-16 05:16:47.826 +0000",1555391807.825768,-3.013550,1.438480,-0.073714,-0.016847,-0.991259,0.130850,0.000000,0.000000,0.000000,-1,-0.003108,0.015632,0.000265,0.010728,-0.009016,0.002740
"2019-04-16 05:16:47.848 +0000",1555391807.848088,-3.017779,1.438576,-0.069030,-0.016281,-0.991272,0.130826,0.000000,0.000000,0.000000,-1,-0.008167,0.026859,-0.008303,0.006882,-0.009308,0.005084
"2019-04-16 05:16:47.870 +0000",1555391807.870393,-3.019654,1.438727,-0.066380,-0.016018,-0.991291,0.130709,0.000000,0.000000,0.000000,-1,-0.014451,0.036678,-0.013356,0.006222,-0.007396,0.008406
"2019-04-16 05:16:47.893 +0000",1555391807.892671,-3.020525,1.438609,-0.064679,-0.015918,-0.991276,0.130838,0.000000,0.000000,0.000000,-1,-0.010665,0.031778,-0.008349,-0.002850,-0.003399,0.012457
"2019-04-16 05:16:47.915 +0000",1555391807.914979,-3.019798,1.438421,-0.064952,-0.016036,-0.991251,0.131011,0.000000,0.000000,0.000000,-1,-0.003127,0.013349,-0.003218,-0.004625,-0.000219,0.007951
"2019-04-16 05:16:47.937 +0000",1555391807.937286,-3.019423,1.438292,-0.065213,-0.016100,-0.991234,0.131132,0.000000,0.000000,0.000000,-1,-0.008138,0.002286,-0.000640,-0.000028,-0.004219,0.005739
"2019-04-16 05:16:47.960 +0000",1555391807.959594,-3.019128,1.438382,-0.065538,-0.016128,-0.991246,0.131039,0.000000,0.000000,0.000000,-1,-0.006882,-0.003859,0.000656,0.000702,-0.008846,0.002048
"2019-04-16 05:16:47.982 +0000",1555391807.981873,-3.020233,1.438630,-0.064583,-0.015954,-0.991279,0.130812,0.000000,0.000000,0.000000,-1,-0.013151,-0.008778,0.001935,0.006783,-0.004830,0.003801
"2019-04-16 05:16:48.004 +0000",1555391808.004181,-3.022735,1.438882,-0.062686,-0.015597,-0.991312,0.130605,0.000000,0.000000,0.000000,-1,-0.020698,-0.035849,0.000928,0.008563,-0.003866,0.004146
"2019-04-16 05:16:48.026 +0000",1555391808.026488,-3.025760,1.439372,-0.060763,-0.015145,-0.991376,0.130168,0.000000,0.000000,0.000000,-1,-0.030718,-0.056405,-0.002308,0.007791,-0.007205,0.006322
"2019-04-16 05:16:48.049 +0000",1555391808.048773,-3.030042,1.439891,-0.057922,-0.014531,-0.991444,0.129720,0.000000,0.000000,0.000000,-1,-0.025687,-0.069916,0.002772,0.012227,-0.006252,0.003581
"2019-04-16 05:16:48.071 +0000",1555391808.071074,-3.034847,1.440455,-0.054912,-0.013848,-0.991518,0.129232,0.000000,0.000000,0.000000,-1,-0.019439,-0.083460,-0.000832,0.012352,-0.003508,0.001215
"2019-04-16 05:16:48.093 +0000",1555391808.093382,-3.039824,1.440692,-0.051905,-0.013180,-0.991548,0.129066,0.000000,0.000000,0.000000,-1,-0.001883,-0.090834,-0.000764,0.008038,-0.006102,0.001275
"2019-04-16 05:16:48.116 +0000",1555391808.115690,-3.044087,1.440829,-0.049773,-0.012617,-0.991566,0.128986,0.000000,0.000000,0.000000,-1,0.000611,-0.095763,-0.003204,0.007551,-0.002117,-0.002277
"2019-04-16 05:16:48.138 +0000",1555391808.138001,-3.047423,1.440966,-0.048555,-0.012174,-0.991584,0.128892,0.000000,0.000000,0.000000,-1,0.004371,-0.098222,-0.003181,0.001554,0.001060,-0.005113
"2019-04-16 05:16:48.160 +0000",1555391808.160275,-3.050154,1.441186,-0.048001,-0.011802,-0.991612,0.128707,0.000000,0.000000,0.000000,-1,0.000616,-0.096984,-0.000714,0.004737,-0.003459,-0.007781
"2019-04-16 05:16:48.183 +0000",1555391808.182583,-3.053690,1.441622,-0.046679,-0.011309,-0.991669,0.128318,0.000000,0.000000,0.000000,-1,-0.000633,-0.096975,0.001763,0.006456,-0.005890,-0.009773
"2019-04-16 05:16:48.205 +0000",1555391808.204890,-3.056425,1.442123,-0.046058,-0.010915,-0.991733,0.127854,0.000000,0.000000,0.000000,-1,-0.005571,-0.095271,0.000824,0.003683,-0.010144,-0.008408
"2019-04-16 05:16:48.227 +0000",1555391808.227198,-3.057461,1.442500,-0.046933,-0.010752,-0.991781,0.127492,0.000000,0.000000,0.000000,-1,-0.008066,-0.078046,0.001911,-0.003058,-0.011103,-0.003988
"2019-04-16 05:16:48.249 +0000",1555391808.249480,-3.056529,1.442918,-0.049302,-0.010835,-0.991835,0.127069,0.000000,0.000000,0.000000,-1,-0.004332,-0.062086,-0.006909,-0.007857,-0.001146,-0.006403
"2019-04-16 05:16:48.272 +0000",1555391808.271801,-3.056480,1.443090,-0.050575,-0.010827,-0.991857,0.126899,0.000000,0.000000,0.000000,-1,-0.001797,-0.059600,-0.000725,-0.010200,-0.001292,-0.004996
"2019-04-16 05:16:48.294 +0000",1555391808.294093,-3.055493,1.443214,-0.052889,-0.010942,-0.991872,0.126765,0.000000,0.000000,0.000000,-1,0.001959,-0.066978,-0.000654,-0.008223,-0.007548,-0.003978
"2019-04-16 05:16:48.316 +0000",1555391808.316399,-3.055296,1.443297,-0.054562,-0.010959,-0.991883,0.126681,0.000000,0.000000,0.000000,-1,0.010755,-0.063269,0.003040,-0.003018,-0.008437,-0.005023
"2019-04-16 05:16:48.339 +0000",1555391808.338677,-3.055933,1.443296,-0.055317,-0.010879,-0.991883,0.126689,0.000000,0.000000,0.000000,-1,0.004484,-0.058351,0.002994,-0.001710,-0.002029,-0.003902
"2019-04-16 05:16:48.361 +0000",1555391808.360985,-3.055969,1.443294,-0.056264,-0.010874,-0.991883,0.126692,0.000000,0.000000,0.000000,-1,0.009496,-0.039912,-0.000888,-0.005498,-0.002304,-0.003507
"2019-04-16 05:16:48.383 +0000",1555391808.383292,-3.054566,1.443250,-0.058483,-0.011056,-0.991877,0.126719,0.000000,0.000000,0.000000,-1,0.004598,-0.039757,0.000653,-0.008384,-0.006490,-0.001185
"2019-04-16 05:16:48.406 +0000",1555391808.405602,-3.052692,1.443274,-0.061323,-0.011291,-0.991880,0.126675,0.000000,0.000000,0.000000,-1,-0.001662,-0.044665,0.004418,-0.008057,-0.006075,0.000568
"2019-04-16 05:16:48.428 +0000",1555391808.427878,-3.051707,1.443494,-0.063573,-0.011396,-0.991908,0.126446,0.000000,0.000000,0.000000,-1,-0.011685,-0.058181,0.009498,-0.002611,-0.005193,-0.000195
"2019-04-16 05:16:48.450 +0000",1555391808.450185,-3.051416,1.443643,-0.065247,-0.011420,-0.991927,0.126295,0.000000,0.000000,0.000000,-1,-0.005432,-0.063113,0.005823,-0.001230,-0.006120,0.000979
"2019-04-16 05:16:48.472 +0000",1555391808.472493,-3.050764,1.443812,-0.067127,-0.011487,-0.991948,0.126122,0.000000,0.000000,0.000000,-1,-0.009185,-0.048353,0.005691,-0.001803,-0.007197,0.001426
"2019-04-16 05:16:48.495 +0000",1555391808.494779,-3.050585,1.443929,-0.068318,-0.011499,-0.991963,0.126004,0.000000,0.000000,0.000000,-1,-0.005423,-0.042205,0.004398,-0.001929,-0.005397,0.001224
"2019-04-16 05:16:48.517 +0000",1555391808.517102,-3.050759,1.443934,-0.068898,-0.011477,-0.991964,0.126001,0.000000,0.000000,0.000000,-1,-0.009176,-0.028676,0.004277,0.000185,-0.002253,0.004705
"2019-04-16 05:16:48.539 +0000",1555391808.539388,-3.050248,1.444084,-0.069839,-0.011527,-0.991983,0.125847,0.000000,0.000000,0.000000,-1,-0.017963,-0.017623,0.000454,-0.001168,-0.001197,0.003670
"2019-04-16 05:16:48.562 +0000",1555391808.561695,-3.048572,1.444333,-0.071829,-0.011715,-0.992014,0.125581,0.000000,0.000000,0.000000,-1,-0.020316,-0.015957,0.005681,-0.004413,-0.002950,0.004714
"2019-04-16 05:16:48.584 +0000",1555391808.584003,-3.046268,1.444517,-0.074500,-0.011987,-0.992037,0.125372,0.000000,0.000000,0.000000,-1,-0.016551,-0.014725,0.005674,-0.006476,-0.006589,0.004831
"2019-04-16 05:16:48.606 +0000",1555391808.606280,-3.044295,1.444605,-0.076785,-0.012226,-0.992048,0.125262,0.000000,0.000000,0.000000,-1,-0.011524,-0.011027,0.006886,-0.004497,-0.007402,0.005964
"2019-04-16 05:16:48.629 +0000",1555391808.628588,-3.041547,1.444744,-0.079631,-0.012557,-0.992066,0.125090,0.000000,0.000000,0.000000,-1,-0.015264,0.000057,0.010509,-0.004457,-0.005187,0.004701
"2019-04-16 05:16:48.651 +0000",1555391808.650897,-3.039100,1.444992,-0.082002,-0.012838,-0.992097,0.124814,0.000000,0.000000,0.000000,-1,-0.022821,0.003711,0.001791,-0.004313,-0.003066,0.005694
"2019-04-16 05:16:48.673 +0000",1555391808.673203,-3.037571,1.445214,-0.083235,-0.013005,-0.992125,0.124576,0.000000,0.000000,0.000000,-1,-0.024085,0.015993,-0.003279,-0.004130,-0.005113,0.003751
"2019-04-16 05:16:48.695 +0000",1555391808.695482,-3.037000,1.445664,-0.083358,-0.013030,-0.992181,0.124125,0.000000,0.000000,0.000000,-1,-0.019086,0.018436,-0.008259,-0.005479,-0.003211,0.006292
"2019-04-16 05:16:48.718 +0000",1555391808.717790,-3.036196,1.445752,-0.083879,-0.013121,-0.992192,0.124027,0.000000,0.000000,0.000000,-1,-0.015321,0.009832,-0.006939,-0.002504,-0.005946,0.007381
"2019-04-16 05:16:48.740 +0000",1555391808.740098,-3.036409,1.445459,-0.083465,-0.013125,-0.992155,0.124319,0.000000,0.000000,0.000000,-1,0.011187,0.005290,-0.000429,0.000246,-0.003709,0.006022
"2019-04-16 05:16:48.762 +0000",1555391808.762405,-3.036390,1.445046,-0.083448,-0.013170,-0.992104,0.124725,0.000000,0.000000,0.000000,-1,0.014957,0.005297,0.000814,-0.000975,-0.001594,0.003357
"2019-04-16 05:16:48.785 +0000",1555391808.784684,-3.035789,1.444760,-0.083834,-0.013275,-0.992068,0.124999,0.000000,0.000000,0.000000,-1,0.016191,0.012654,-0.005452,-0.006592,-0.004483,0.000077
"2019-04-16 05:16:48.807 +0000",1555391808.806983,-3.034668,1.444383,-0.084528,-0.013455,-0.992021,0.125356,0.000000,0.000000,0.000000,-1,0.021192,0.018788,-0.010464,-0.009494,-0.004561,-0.000570
"2019-04-16 05:16:48.829 +0000",1555391808.829298,-3.033378,1.443855,-0.085323,-0.013673,-0.991954,0.125861,0.000000,0.000000,0.000000,-1,0.027449,0.020007,-0.014190,-0.011946,-0.005010,-0.000479
"2019-04-16 05:16:48.852 +0000",1555391808.851607,-3.033139,1.443063,-0.085036,-0.013788,-0.991853,0.126638,0.000000,0.000000,0.000000,-1,0.034980,0.020016,-0.012943,-0.009939,-0.004714,0.001658
"2019-04-16 05:16:48.874 +0000",1555391808.873912,-3.033748,1.442249,-0.084028,-0.013798,-0.991749,0.127450,0.000000,0.000000,0.000000,-1,0.036233,0.016327,-0.012907,-0.005336,-0.003429,-0.000130
"2019-04-16 05:16:48.896 +0000",1555391808.896191,-3.034725,1.441657,-0.082703,-0.013736,-0.991673,0.128046,0.000000,0.000000,0.000000,-1,0.027465,0.012647,-0.009156,-0.002377,-0.000911,-0.002298
"2019-04-16 05:16:48.918 +0000",1555391808.918499,-3.034743,1.441348,-0.082417,-0.013767,-0.991633,0.128351,0.000000,0.000000,0.000000,-1,0.015091,0.009151,-0.002698,-0.003598,-0.003469,-0.002725
"2019-04-16 05:16:48.941 +0000",1555391808.940789,-3.033171,1.441215,-0.083854,-0.013983,-0.991616,0.128460,0.000000,0.000000,0.000000,-1,0.008851,0.005492,0.006017,-0.001551,-0.009772,0.000126
"2019-04-16 05:16:48.963 +0000",1555391808.963115,-3.031210,1.441018,-0.085552,-0.014256,-0.991591,0.128626,0.000000,0.000000,0.000000,-1,0.007598,0.014098,0.004701,-0.003459,-0.008043,0.002172
"2019-04-16 05:16:48.985 +0000",1555391808.985392,-3.029899,1.440927,-0.086450,-0.014435,-0.991579,0.128698,0.000000,0.000000,0.000000,-1,0.003829,0.020237,0.002164,-0.002060,-0.007658,0.000148
"2019-04-16 05:16:49.008 +0000",1555391809.007705,-3.028489,1.440855,-0.087397,-0.014624,-0.991569,0.128748,0.000000,0.000000,0.000000,-1,-0.001203,0.020221,-0.001558,-0.004327,-0.004723,0.001928
"2019-04-16 05:16:49.030 +0000",1555391809.030009,-3.026980,1.440703,-0.088544,-0.014836,-0.991550,0.128876,0.000000,0.000000,0.000000,-1,0.006325,0.015309,-0.000269,-0.005031,-0.004285,-0.000946
"2019-04-16 05:16:49.052 +0000",1555391809.052316,-3.025435,1.440477,-0.089783,-0.015061,-0.991521,0.129074,0.000000,0.000000,0.000000,-1,0.016359,0.007937,0.001042,-0.003524,-0.005504,-0.002549
"2019-04-16 05:16:49.075 +0000",1555391809.074605,-3.024243,1.440368,-0.090812,-0.015227,-0.991506,0.129164,0.000000,0.000000,0.000000,-1,0.015098,0.007933,-0.000197,0.002044,-0.006007,-0.003295
"2019-04-16 05:16:49.097 +0000",1555391809.096901,-3.024723,1.440054,-0.090140,-0.015202,-0.991465,0.129481,0.000000,0.000000,0.000000,-1,0.016505,0.009523,0.000005,0.001072,-0.004048,-0.002497
"2019-04-16 05:16:49.119 +0000",1555391809.119192,-3.026489,1.439832,-0.088200,-0.014998,-0.991436,0.129726,0.000000,0.000000,0.000000,-1,0.017741,0.005819,-0.003685,0.003432,-0.003757,-0.000927
"2019-04-16 05:16:49.142 +0000",1555391809.141517,-3.027466,1.439414,-0.087099,-0.014919,-0.991382,0.130152,0.000000,0.000000,0.000000,-1,0.020243,0.004585,-0.004913,0.000621,-0.004590,-0.000330
"2019-04-16 05:16:49.164 +0000",1555391809.163808,-3.029539,1.439111,-0.085000,-0.014682,-0.991342,0.130481,0.000000,0.000000,0.000000,-1,0.015226,-0.002793,-0.003611,0.001697,-0.004294,-0.002338
"2019-04-16 05:16:49.186 +0000",1555391809.186102,-3.030562,1.438901,-0.083968,-0.014572,-0.991314,0.130704,0.000000,0.000000,0.000000,-1,0.010210,0.000895,-0.003646,-0.000031,-0.004200,-0.002072
"2019-04-16 05:16:49.208 +0000",1555391809.208411,-3.030303,1.438816,-0.084205,-0.014615,-0.991303,0.130783,0.000000,0.000000,0.000000,-1,0.003942,-0.000332,-0.002396,-0.002246,-0.006973,0.000412
"2019-04-16 05:16:49.231 +0000",1555391809.230707,-3.030218,1.438782,-0.084306,-0.014630,-0.991299,0.130816,0.000000,0.000000,0.000000,-1,-0.001054,-0.000315,0.002564,0.001111,-0.009235,0.004316
"2019-04-16 05:16:49.253 +0000",1555391809.253238,-3.030717,1.438602,-0.083843,-0.014585,-0.991275,0.131001,0.000000,0.000000,0.000000,-1,0.002700,-0.000323,0.000083,0.003293,-0.005780,0.003490
"2019-04-16 05:16:49.275 +0000",1555391809.275306,-3.031403,1.438438,-0.083168,-0.014513,-0.991253,0.131172,0.000000,0.000000,0.000000,-1,0.005339,-0.002421,0.000268,0.003603,-0.004077,0.001900
"2019-04-16 05:16:49.298 +0000",1555391809.297612,-3.032117,1.438322,-0.082560,-0.014431,-0.991238,0.131296,0.000000,0.000000,0.000000,-1,0.000342,-0.003634,0.005237,0.003186,-0.002796,-0.000680
"2019-04-16 05:16:49.320 +0000",1555391809.319920,-3.032429,1.438372,-0.082365,-0.014385,-0.991245,0.131251,0.000000,0.000000,0.000000,-1,-0.000928,-0.003649,0.001514,0.004360,-0.004361,-0.002101
"2019-04-16 05:16:49.342 +0000",1555391809.342198,-3.032909,1.438469,-0.082086,-0.014312,-0.991258,0.131162,0.000000,0.000000,0.000000,-1,0.002836,-0.008563,0.002799,0.003035,-0.007461,-0.001768
"2019-04-16 05:16:49.365 +0000",1555391809.364506,-3.033534,1.438536,-0.081607,-0.014223,-0.991266,0.131106,0.000000,0.000000,0.000000,-1,0.005317,-0.002440,-0.004698,0.000123,-0.007833,-0.002612
"2019-04-16 05:16:49.387 +0000",1555391809.386792,-3.033191,1.438460,-0.081958,-0.014276,-0.991256,0.131175,0.000000,0.000000,0.000000,-1,0.001581,0.001273,0.001471,-0.001975,-0.003052,0.001042
"2019-04-16 05:16:49.409 +0000",1555391809.409122,-3.033418,1.438319,-0.081777,-0.014261,-0.991238,0.131318,0.000000,0.000000,0.000000,-1,0.004075,-0.007346,-0.000932,-0.000433,-0.003910,0.002990
"2019-04-16 05:16:49.431 +0000",1555391809.431399,-3.033192,1.438113,-0.082163,-0.014313,-0.991211,0.131518,0.000000,0.000000,0.000000,-1,0.001593,-0.007323,0.005269,0.000122,-0.005829,0.004896
"2019-04-16 05:16:49.454 +0000",1555391809.453698,-3.032886,1.437955,-0.082676,-0.014370,-0.991190,0.131669,0.000000,0.000000,0.000000,-1,0.006732,-0.008231,0.000470,-0.000523,-0.006125,-0.000093
"2019-04-16 05:16:49.476 +0000",1555391809.476014,-3.033479,1.437926,-0.082206,-0.014295,-0.991186,0.131705,0.000000,0.000000,0.000000,-1,0.006713,-0.007020,-0.004503,-0.000399,-0.005274,-0.001045
"2019-04-16 05:16:49.498 +0000",1555391809.498306,-3.033525,1.437776,-0.082173,-0.014305,-0.991166,0.131855,0.000000,0.000000,0.000000,-1,0.011732,-0.003327,-0.004532,-0.000725,-0.004989,0.000622
"2019-04-16 05:16:49.521 +0000",1555391809.520599,-3.033768,1.437601,-0.082006,-0.014292,-0.991143,0.132030,0.000000,0.000000,0.000000,-1,0.004221,-0.003316,-0.000814,-0.001303,-0.005668,0.000584
"2019-04-16 05:16:49.543 +0000",1555391809.542907,-3.032908,1.437592,-0.082956,-0.014406,-0.991141,0.132027,0.000000,0.000000,0.000000,-1,-0.002026,-0.004524,0.005397,-0.001051,-0.004769,0.002097
"2019-04-16 05:16:49.565 +0000",1555391809.565215,-3.032154,1.437624,-0.083817,-0.014502,-0.991146,0.131984,0.000000,0.000000,0.000000,-1,-0.007055,-0.008226,0.002947,-0.000329,-0.007039,0.002918
"2019-04-16 05:16:49.588 +0000",1555391809.587523,-3.031686,1.437607,-0.084346,-0.014566,-0.991143,0.131994,0.000000,0.000000,0.000000,-1,0.000470,-0.003308,0.001666,0.000818,-0.008536,0.002634
"2019-04-16 05:16:49.610 +0000",1555391809.609801,-3.031628,1.437432,-0.084342,-0.014592,-0.991120,0.132166,0.000000,0.000000,0.000000,-1,-0.002047,0.005288,-0.002133,-0.002818,-0.006210,0.003988
"2019-04-16 05:16:49.632 +0000",1555391809.632109,-3.030547,1.437319,-0.085190,-0.014748,-0.991105,0.132261,0.000000,0.000000,0.000000,-1,0.005602,0.009295,-0.003269,-0.004463,-0.002181,0.000322
"2019-04-16 05:16:49.654 +0000",1555391809.654417,-3.029797,1.437099,-0.085662,-0.014871,-0.991076,0.132468,0.000000,0.000000,0.000000,-1,0.006863,0.010531,-0.002038,-0.002249,-0.004026,0.003473
"2019-04-16 05:16:49.677 +0000",1555391809.676702,-3.029664,1.436916,-0.085625,-0.014909,-0.991051,0.132645,0.000000,0.000000,0.000000,-1,0.006861,0.006841,-0.002005,0.002183,-0.002906,0.003021
"2019-04-16 05:16:49.699 +0000",1555391809.699002,-3.030607,1.436758,-0.084601,-0.014801,-0.991030,0.132815,0.000000,0.000000,0.000000,-1,-0.000648,0.000706,0.003008,0.002518,-0.007169,0.002714
"2019-04-16 05:16:49.721 +0000",1555391809.721310,-3.031226,1.436562,-0.083917,-0.014741,-0.991004,0.133017,0.000000,0.000000,0.000000,-1,0.004369,0.005624,0.001725,0.001877,-0.005898,0.003579
"2019-04-16 05:16:49.744 +0000",1555391809.743618,-3.030969,1.436533,-0.083945,-0.014778,-0.991000,0.133042,0.000000,0.000000,0.000000,-1,-0.000641,0.009317,0.002930,0.000069,-0.004559,0.002395
"2019-04-16 05:16:49.766 +0000",1555391809.765925,-3.031241,1.436537,-0.083448,-0.014741,-0.991001,0.133041,0.000000,0.000000,0.000000,-1,-0.006937,0.010520,-0.003286,0.001237,-0.004940,0.003845
"2019-04-16 05:16:49.788 +0000",1555391809.788203,-3.030788,1.436615,-0.083674,-0.014793,-0.991011,0.132958,0.000000,0.000000,0.000000,-1,-0.003149,0.009316,0.002929,-0.000878,-0.005143,0.001594
"2019-04-16 05:16:49.811 +0000",1555391809.810510,-3.030507,1.436698,-0.083832,-0.014821,-0.991022,0.132874,0.000000,0.000000,0.000000,-1,-0.005563,0.003443,0.001860,0.000265,-0.006918,0.002624
"2019-04-16 05:16:49.833 +0000",1555391809.832802,-3.029291,1.436663,-0.084957,-0.014987,-0.991018,0.132889,0.000000,0.000000,0.000000,-1,-0.003038,0.003459,0.005583,-0.002500,-0.006068,0.001099
"2019-04-16 05:16:49.855 +0000",1555391809.855126,-3.028099,1.436727,-0.085954,-0.015138,-0.991026,0.132808,0.000000,0.000000,0.000000,-1,-0.003039,0.010835,0.004277,-0.001662,-0.006990,0.001942
"2019-04-16 05:16:49.877 +0000",1555391809.877404,-3.027919,1.436711,-0.085921,-0.015164,-0.991024,0.132820,0.000000,0.000000,0.000000,-1,0.001983,0.009612,0.005531,0.001522,-0.003666,-0.000176
"2019-04-16 05:16:49.900 +0000",1555391809.899708,-3.027577,1.436699,-0.086162,-0.015210,-0.991022,0.132828,0.000000,0.000000,0.000000,-1,0.000737,0.005931,0.008043,0.002546,-0.004141,-0.003616
"2019-04-16 05:16:49.922 +0000",1555391809.922020,-3.026912,1.436785,-0.086770,-0.015289,-0.991034,0.132733,0.000000,0.000000,0.000000,-1,-0.001795,0.003450,0.003101,0.000961,-0.005350,-0.001446
"2019-04-16 05:16:49.944 +0000",1555391809.944328,-3.026775,1.436850,-0.086825,-0.015300,-0.991043,0.132666,0.000000,0.000000,0.000000,-1,0.003209,0.005898,-0.000640,0.000651,-0.007218,-0.001197
"2019-04-16 05:16:49.967 +0000",1555391809.966605,-3.027351,1.436935,-0.086078,-0.015214,-0.991054,0.132592,0.000000,0.000000,0.000000,-1,-0.003057,0.007130,0.000587,0.001206,-0.008946,-0.000573
"2019-04-16 05:16:49.989 +0000",1555391809.988914,-3.027290,1.437102,-0.085934,-0.015203,-0.991076,0.132426,0.000000,0.000000,0.000000,-1,-0.004237,0.008738,-0.000560,-0.001078,-0.002607,-0.002269
"2019-04-16 05:16:50.011 +0000",1555391810.011203,-3.025925,1.437057,-0.087212,-0.015389,-0.991070,0.132450,0.000000,0.000000,0.000000,-1,0.000785,0.000139,0.002001,-0.003364,-0.006610,0.001537
"2019-04-16 05:16:50.034 +0000",1555391810.033529,-3.025378,1.436818,-0.087809,-0.015489,-0.991038,0.132676,0.000000,0.000000,0.000000,-1,0.009558,-0.006012,0.000819,-0.001113,-0.007512,0.003844
"2019-04-16 05:16:50.056 +0000",1555391810.055803,-3.025609,1.436710,-0.087686,-0.015471,-0.991024,0.132787,0.000000,0.000000,0.000000,-1,0.004531,-0.003563,-0.001686,0.000288,-0.003864,-0.001744
"2019-04-16 05:16:50.078 +0000",1555391810.078114,-3.025752,1.436704,-0.087546,-0.015452,-0.991023,0.132795,0.000000,0.000000,0.000000,-1,0.003277,-0.002334,-0.001698,0.000361,-0.002400,-0.002897
"2019-04-16 05:16:50.100 +0000",1555391810.100412,-3.025938,1.436791,-0.087391,-0.015418,-0.991035,0.132712,0.000000,0.000000,0.000000,-1,-0.003001,-0.003571,-0.002930,-0.002557,-0.004769,-0.000205
"2019-04-16 05:16:50.123 +0000",1555391810.122709,-3.025060,1.436943,-0.088367,-0.015517,-0.991055,0.132549,0.000000,0.000000,0.000000,-1,-0.007986,-0.007230,0.005784,-0.002184,-0.007648,0.002675
"2019-04-16 05:16:50.145 +0000",1555391810.145007,-3.024012,1.437080,-0.089608,-0.015640,-0.991073,0.132397,0.000000,0.000000,0.000000,-1,-0.005477,-0.007229,0.005785,0.000701,-0.006882,0.000827
"2019-04-16 05:16:50.167 +0000",1555391810.167315,-3.023102,1.437157,-0.090661,-0.015751,-0.991084,0.132307,0.000000,0.000000,0.000000,-1,-0.002970,-0.004430,0.004738,0.000172,-0.008245,0.002107
"2019-04-16 05:16:50.190 +0000",1555391810.189623,-3.022506,1.437207,-0.091239,-0.015824,-0.991090,0.132248,0.000000,0.000000,0.000000,-1,0.003296,0.001714,0.002205,-0.000076,-0.007323,0.001419
"2019-04-16 05:16:50.212 +0000",1555391810.211931,-3.021330,1.437261,-0.092433,-0.015973,-0.991097,0.132177,0.000000,0.000000,0.000000,-1,0.000786,0.001713,0.002205,-0.003757,-0.001990,-0.003347
"2019-04-16 05:16:50.234 +0000",1555391810.234209,-3.020130,1.437351,-0.093604,-0.016121,-0.991109,0.132070,0.000000,0.000000,0.000000,-1,-0.001723,0.001712,0.002204,-0.001518,-0.003230,-0.001012
"2019-04-16 05:16:50.257 +0000",1555391810.256517,-3.018955,1.437473,-0.094668,-0.016261,-0.991126,0.131929,0.000000,0.000000,0.000000,-1,-0.001715,0.006637,0.003401,-0.000585,-0.003793,-0.001848
"2019-04-16 05:16:50.279 +0000",1555391810.278822,-3.018659,1.437461,-0.094889,-0.016302,-0.991124,0.131937,0.000000,0.000000,0.000000,-1,0.004571,0.006655,0.007125,0.003378,-0.006404,-0.000162
"2019-04-16 05:16:50.301 +0000",1555391810.301131,-3.019150,1.437337,-0.094197,-0.016252,-0.991108,0.132067,0.000000,0.000000,0.000000,-1,0.007025,0.007833,-0.006531,0.000230,-0.005078,-0.001039
"2019-04-16 05:16:50.323 +0000",1555391810.323410,-3.019450,1.437367,-0.093655,-0.016209,-0.991112,0.132042,0.000000,0.000000,0.000000,-1,0.000765,0.011530,-0.004085,-0.000301,-0.003441,-0.000023
"2019-04-16 05:16:50.346 +0000",1555391810.345730,-3.018535,1.437629,-0.094296,-0.016298,-0.991146,0.131770,0.000000,0.000000,0.000000,-1,-0.011756,0.011857,0.003542,-0.001326,-0.004474,0.000051
"2019-04-16 05:16:50.368 +0000",1555391810.368026,-3.017158,1.437829,-0.095473,-0.016454,-0.991173,0.131551,0.000000,0.000000,0.000000,-1,-0.007981,0.006953,0.007309,-0.000437,-0.006081,0.000102
"2019-04-16 05:16:50.390 +0000",1555391810.390334,-3.015967,1.437896,-0.096446,-0.016603,-0.991182,0.131465,0.000000,0.000000,0.000000,-1,-0.002966,0.010641,0.006037,0.000841,-0.005202,-0.000758
"2019-04-16 05:16:50.413 +0000",1555391810.412624,-3.014621,1.437970,-0.097554,-0.016771,-0.991192,0.131370,0.000000,0.000000,0.000000,-1,-0.000463,0.010637,0.004798,-0.000167,-0.006993,-0.000129
"2019-04-16 05:16:50.435 +0000",1555391810.434920,-3.013972,1.438092,-0.097966,-0.016840,-0.991208,0.131238,0.000000,0.000000,0.000000,-1,-0.007993,0.013089,0.003532,-0.000173,-0.004520,-0.001218
"2019-04-16 05:16:50.457 +0000",1555391810.457227,-3.012724,1.438209,-0.098938,-0.016989,-0.991223,0.131103,0.000000,0.000000,0.000000,-1,-0.001720,0.014322,0.003524,-0.002298,-0.005557,-0.001678
"2019-04-16 05:16:50.480 +0000",1555391810.479535,-3.012101,1.438190,-0.099326,-0.017073,-0.991221,0.131111,0.000000,0.000000,0.000000,-1,0.004533,0.010620,-0.000162,0.000121,-0.005941,-0.000709
"2019-04-16 05:16:50.502 +0000",1555391810.501809,-3.011772,1.438123,-0.099393,-0.017125,-0.991212,0.131171,0.000000,0.000000,0.000000,-1,0.004539,0.011855,0.001068,0.002156,-0.003631,-0.002463
"2019-04-16 05:16:50.524 +0000",1555391810.524135,-3.011643,1.438136,-0.099228,-0.017140,-0.991214,0.131156,0.000000,0.000000,0.000000,-1,-0.002999,0.015747,0.001208,0.002385,-0.005582,0.000054
"2019-04-16 05:16:50.546 +0000",1555391810.546428,-3.011520,1.438262,-0.099094,-0.017140,-0.991230,0.131030,0.000000,0.000000,0.000000,-1,-0.005516,0.010821,0.000010,0.002492,-0.006420,0.000531
"2019-04-16 05:16:50.569 +0000",1555391810.568716,-3.011329,1.438342,-0.098988,-0.017155,-0.991241,0.130949,0.000000,0.000000,0.000000,-1,-0.006778,0.014501,-0.002504,0.000569,-0.005372,0.001558
"2019-04-16 05:16:50.591 +0000",1555391810.591012,-3.010659,1.438507,-0.099377,-0.017221,-0.991262,0.130775,0.000000,0.000000,0.000000,-1,-0.014291,0.010822,0.001247,0.000116,-0.003153,0.003167
"2019-04-16 05:16:50.613 +0000",1555391810.613321,-3.009625,1.438581,-0.100251,-0.017347,-0.991272,0.130684,0.000000,0.000000,0.000000,-1,-0.006759,0.003454,0.003797,-0.001421,-0.006683,0.005226
"2019-04-16 05:16:50.636 +0000",1555391810.635629,-3.009937,1.438508,-0.099980,-0.017316,-0.991263,0.130761,0.000000,0.000000,0.000000,-1,-0.004253,-0.002696,0.003852,0.004803,-0.006204,0.004691
"2019-04-16 05:16:50.658 +0000",1555391810.657937,-3.010377,1.438574,-0.099631,-0.017250,-0.991271,0.130704,0.000000,0.000000,0.000000,-1,0.000753,-0.003933,0.001383,0.002006,-0.003846,-0.003721
"2019-04-16 05:16:50.680 +0000",1555391810.680214,-3.011141,1.438718,-0.098848,-0.017131,-0.991290,0.130576,0.000000,0.000000,0.000000,-1,0.004509,0.002209,-0.001151,0.001750,-0.004636,-0.002875
"2019-04-16 05:16:50.703 +0000",1555391810.702523,-3.010794,1.438731,-0.099144,-0.017175,-0.991292,0.130557,0.000000,0.000000,0.000000,-1,-0.001764,-0.000021,0.002726,-0.001838,-0.003337,-0.001087
"2019-04-16 05:16:50.725 +0000",1555391810.724821,-3.010006,1.438839,-0.099919,-0.017264,-0.991306,0.130437,0.000000,0.000000,0.000000,-1,-0.003013,-0.000016,0.003966,0.000571,-0.004101,-0.000081
"2019-04-16 05:16:50.747 +0000",1555391810.747138,-3.008668,1.438983,-0.101374,-0.017419,-0.991325,0.130272,0.000000,0.000000,0.000000,-1,-0.011791,-0.003706,0.005236,-0.002188,-0.003639,0.000786
"2019-04-16 05:16:50.769 +0000",1555391810.769415,-3.006892,1.439246,-0.103247,-0.017615,-0.991360,0.129983,0.000000,0.000000,0.000000,-1,-0.010536,-0.002475,0.005226,-0.000893,-0.006977,-0.000359
"2019-04-16 05:16:50.792 +0000",1555391810.791719,-3.005316,1.439419,-0.104791,-0.017797,-0.991382,0.129785,0.000000,0.000000,0.000000,-1,-0.005516,0.002448,0.005185,-0.002528,-0.006039,-0.001184
"2019-04-16 05:16:50.814 +0000",1555391810.814032,-3.004014,1.439678,-0.105919,-0.017931,-0.991416,0.129507,0.000000,0.000000,0.000000,-1,-0.006778,0.006128,0.002671,-0.001402,-0.003075,-0.001394
"2019-04-16 05:16:50.836 +0000",1555391810.836339,-3.003476,1.439884,-0.106360,-0.017972,-0.991443,0.129296,0.000000,0.000000,0.000000,-1,-0.008040,0.002433,0.001462,0.000760,-0.003659,0.001075
"2019-04-16 05:16:50.859 +0000",1555391810.858617,-3.002652,1.439985,-0.107039,-0.018065,-0.991456,0.129182,0.000000,0.000000,0.000000,-1,-0.005530,0.004894,0.001441,-0.000032,-0.003615,0.001830
"2019-04-16 05:16:50.881 +0000",1555391810.880925,-3.001854,1.440168,-0.107718,-0.018143,-0.991480,0.128987,0.000000,0.000000,0.000000,-1,-0.005525,0.008805,0.006497,0.000732,-0.007101,-0.001622
"2019-04-16 05:16:50.903 +0000",1555391810.903231,-3.001795,1.440260,-0.107590,-0.018138,-0.991492,0.128896,0.000000,0.000000,0.000000,-1,-0.001781,0.010018,0.001526,0.000788,-0.005425,-0.002187
"2019-04-16 05:16:50.926 +0000",1555391810.925541,-3.001444,1.440400,-0.107737,-0.018163,-0.991510,0.128752,0.000000,0.000000,0.000000,-1,-0.001782,0.010018,0.001526,-0.000574,-0.005148,0.000490
"2019-04-16 05:16:50.948 +0000",1555391810.947816,-3.000630,1.440590,-0.108346,-0.018242,-0.991535,0.128552,0.000000,0.000000,0.000000,-1,-0.009320,0.007545,-0.000936,-0.002357,-0.007290,0.000385
"2019-04-16 05:16:50.970 +0000",1555391810.970127,-2.999681,1.440659,-0.109138,-0.018354,-0.991544,0.128465,0.000000,0.000000,0.000000,-1,-0.008051,0.006330,0.002798,-0.003588,-0.004840,0.002135
"2019-04-16 05:16:50.992 +0000",1555391810.992429,-2.999107,1.440804,-0.109625,-0.018407,-0.991563,0.128312,0.000000,0.000000,0.000000,-1,-0.005534,0.003880,0.005301,0.001943,-0.007247,0.001555
"2019-04-16 05:16:51.015 +0000",1555391811.014719,-2.998118,1.440974,-0.110581,-0.018510,-0.991585,0.128128,0.000000,0.000000,0.000000,-1,-0.009297,0.002649,0.005310,0.001375,-0.005043,-0.001678
"2019-04-16 05:16:51.037 +0000",1555391811.037018,-2.996737,1.441232,-0.111856,-0.018650,-0.991618,0.127849,0.000000,0.000000,0.000000,-1,-0.008040,0.007570,0.005267,-0.000301,-0.006825,-0.000361
"2019-04-16 05:16:51.059 +0000",1555391811.059326,-2.995658,1.441429,-0.112696,-0.018760,-0.991644,0.127636,0.000000,0.000000,0.000000,-1,-0.008066,0.010193,0.002874,-0.000985,-0.006785,-0.000255
"2019-04-16 05:16:51.082 +0000",1555391811.081634,-2.994718,1.441641,-0.113381,-0.018849,-0.991671,0.127410,0.000000,0.000000,0.000000,-1,-0.004308,0.011420,0.001624,0.000188,-0.004346,-0.000045
"2019-04-16 05:16:51.104 +0000",1555391811.103912,-2.993716,1.441841,-0.114049,-0.018947,-0.991697,0.127195,0.000000,0.000000,0.000000,-1,-0.008063,0.015113,0.002830,-0.000462,-0.003390,-0.001340
"2019-04-16 05:16:51.126 +0000",1555391811.126219,-2.993038,1.442012,-0.114470,-0.019009,-0.991719,0.127014,0.000000,0.000000,0.000000,-1,-0.005563,0.010189,0.001634,-0.000584,-0.004833,0.000915
"2019-04-16 05:16:51.149 +0000",1555391811.148528,-2.991765,1.442118,-0.115510,-0.019155,-0.991732,0.126886,0.000000,0.000000,0.000000,-1,-0.008060,0.012658,0.004093,-0.002376,-0.007932,0.000464
"2019-04-16 05:16:51.171 +0000",1555391811.170814,-2.990291,1.442380,-0.116756,-0.019302,-0.991766,0.126600,0.000000,0.000000,0.000000,-1,-0.008082,0.011409,-0.000858,-0.003098,-0.003855,-0.003371
"2019-04-16 05:16:51.193 +0000",1555391811.193113,-2.988965,1.442604,-0.117843,-0.019436,-0.991795,0.126355,0.000000,0.000000,0.000000,-1,-0.008078,0.008954,0.000405,-0.003452,-0.004131,0.000674
"2019-04-16 05:16:51.215 +0000",1555391811.215421,-2.988438,1.442663,-0.118157,-0.019494,-0.991802,0.126287,0.000000,0.000000,0.000000,-1,-0.004309,0.010190,0.001636,0.002221,-0.006413,0.003260
"2019-04-16 05:16:51.238 +0000",1555391811.237711,-2.989999,1.442686,-0.116381,-0.019293,-0.991805,0.126295,0.000000,0.000000,0.000000,-1,0.004430,0.009028,-0.004459,0.002433,-0.000215,-0.001890
"2019-04-16 05:16:51.260 +0000",1555391811.260037,-2.990340,1.442733,-0.115786,-0.019243,-0.991811,0.126256,0.000000,0.000000,0.000000,-1,0.000670,0.013947,-0.004504,0.000490,-0.001841,-0.003331
"2019-04-16 05:16:51.282 +0000",1555391811.282315,-2.989589,1.442763,-0.116214,-0.019334,-0.991815,0.126212,0.000000,0.000000,0.000000,-1,-0.001813,0.015200,0.001687,-0.002105,-0.004157,0.000680
"2019-04-16 05:16:51.305 +0000",1555391811.304622,-2.988640,1.442746,-0.116914,-0.019456,-0.991813,0.126209,0.000000,0.000000,0.000000,-1,0.004446,0.011503,-0.000758,-0.003249,-0.007348,0.001064
"2019-04-16 05:16:51.327 +0000",1555391811.326931,-2.987561,1.442756,-0.117814,-0.019591,-0.991814,0.126179,0.000000,0.000000,0.000000,-1,0.003205,0.007827,0.002996,-0.000490,-0.007240,0.001415
"2019-04-16 05:16:51.349 +0000",1555391811.349229,-2.988240,1.442838,-0.117012,-0.019493,-0.991825,0.126112,0.000000,0.000000,0.000000,-1,-0.001834,0.006576,-0.001958,0.002876,-0.004880,-0.002531
"2019-04-16 05:16:51.372 +0000",1555391811.371516,-2.988445,1.443045,-0.116587,-0.019435,-0.991851,0.125913,0.000000,0.000000,0.000000,-1,-0.004331,0.009044,0.000500,0.002529,-0.006196,-0.001554
"2019-04-16 05:16:51.394 +0000",1555391811.393825,-2.988567,1.443254,-0.116336,-0.019388,-0.991877,0.125710,0.000000,0.000000,0.000000,-1,-0.004320,0.004138,0.004265,0.001841,-0.005300,-0.001198
"2019-04-16 05:16:51.416 +0000",1555391811.416132,-2.988173,1.443304,-0.116669,-0.019431,-0.991884,0.125654,0.000000,0.000000,0.000000,-1,-0.004332,0.003027,0.004356,0.000037,-0.006377,0.001421
"2019-04-16 05:16:51.438 +0000",1555391811.438440,-2.987623,1.443319,-0.117194,-0.019497,-0.991886,0.125629,0.000000,0.000000,0.000000,-1,0.000680,0.001794,0.003128,0.001675,-0.006985,0.001156
"2019-04-16 05:16:51.461 +0000",1555391811.460724,-2.987991,1.443405,-0.116744,-0.019438,-0.991897,0.125551,0.000000,0.000000,0.000000,-1,-0.000574,0.003024,0.003116,0.002821,-0.006654,0.000227
"2019-04-16 05:16:51.483 +0000",1555391811.483026,-2.988343,1.443418,-0.116298,-0.019392,-0.991898,0.125546,0.000000,0.000000,0.000000,-1,0.004419,0.005462,-0.003107,-0.000262,-0.002883,-0.001309
"2019-04-16 05:16:51.505 +0000",1555391811.505334,-2.988511,1.443482,-0.116016,-0.019361,-0.991906,0.125486,0.000000,0.000000,0.000000,-1,0.000651,0.005456,-0.004349,-0.000933,-0.002158,-0.000761
"2019-04-16 05:16:51.528 +0000",1555391811.527642,-2.988764,1.443594,-0.115640,-0.019312,-0.991921,0.125381,0.000000,0.000000,0.000000,-1,-0.003115,0.001764,-0.004317,-0.000875,-0.005531,-0.001312
"2019-04-16 05:16:51.550 +0000",1555391811.549926,-2.988405,1.443758,-0.115902,-0.019333,-0.991941,0.125214,0.000000,0.000000,0.000000,-1,-0.006857,0.004242,0.000622,-0.000397,-0.003801,0.000030
"2019-04-16 05:16:51.572 +0000",1555391811.572224,-2.987893,1.443889,-0.116412,-0.019377,-0.991958,0.125075,0.000000,0.000000,0.000000,-1,-0.008105,-0.003129,0.003168,0.000837,-0.007401,0.002275
"2019-04-16 05:16:51.595 +0000",1555391811.594534,-2.987512,1.444050,-0.116863,-0.019400,-0.991978,0.124910,0.000000,0.000000,0.000000,-1,-0.005593,-0.004253,0.005727,0.001654,-0.006725,-0.000521
"2019-04-16 05:16:51.617 +0000",1555391811.616820,-2.987929,1.444223,-0.116666,-0.019322,-0.992000,0.124748,0.000000,0.000000,0.000000,-1,-0.004355,-0.012873,0.003322,0.003605,-0.005711,-0.002251
"2019-04-16 05:16:51.639 +0000",1555391811.639119,-2.988193,1.444388,-0.116555,-0.019264,-0.992021,0.124592,0.000000,0.000000,0.000000,-1,-0.004364,-0.003046,-0.000487,0.002052,-0.004622,-0.000766
"2019-04-16 05:16:51.661 +0000",1555391811.661428,-2.987880,1.444606,-0.116921,-0.019269,-0.992049,0.124371,0.000000,0.000000,0.000000,-1,-0.005602,0.000658,0.003201,0.000516,-0.003694,-0.001660
"2019-04-16 05:16:51.684 +0000",1555391811.683722,-2.988314,1.444708,-0.116584,-0.019200,-0.992061,0.124280,0.000000,0.000000,0.000000,-1,-0.000594,-0.006725,0.002027,0.001454,-0.002491,0.000506
"2019-04-16 05:16:51.706 +0000",1555391811.706043,-2.988640,1.444716,-0.116400,-0.019158,-0.992062,0.124278,0.000000,0.000000,0.000000,-1,-0.000586,-0.010406,0.004541,0.002816,-0.006000,0.002095
"2019-04-16 05:16:51.728 +0000",1555391811.728320,-2.988558,1.444851,-0.116661,-0.019148,-0.992079,0.124145,0.000000,0.000000,0.000000,-1,-0.005617,-0.006732,0.000784,0.001692,-0.006578,0.001114
"2019-04-16 05:16:51.751 +0000",1555391811.750628,-2.987947,1.445075,-0.117247,-0.019190,-0.992108,0.123913,0.000000,0.000000,0.000000,-1,-0.008120,0.001877,0.000706,-0.001593,-0.004658,0.000980
"2019-04-16 05:16:51.773 +0000",1555391811.772940,-2.986679,1.445172,-0.118411,-0.019332,-0.992120,0.123793,0.000000,0.000000,0.000000,-1,-0.006858,0.004418,0.001982,-0.002473,-0.005637,0.002565
"2019-04-16 05:16:51.795 +0000",1555391811.795244,-2.986438,1.445224,-0.118612,-0.019354,-0.992126,0.123738,0.000000,0.000000,0.000000,-1,-0.001831,0.001969,0.004487,0.000296,-0.006409,0.004359
"2019-04-16 05:16:51.818 +0000",1555391811.817521,-2.986717,1.445054,-0.118366,-0.019346,-0.992105,0.123911,0.000000,0.000000,0.000000,-1,0.008191,-0.001727,0.002042,0.001386,-0.005347,0.001684
"2019-04-16 05:16:51.840 +0000",1555391811.839824,-2.988163,1.445009,-0.117056,-0.019173,-0.992099,0.123981,0.000000,0.000000,0.000000,-1,0.005664,-0.006662,-0.001637,0.002434,-0.004284,-0.002247
"2019-04-16 05:16:51.862 +0000",1555391811.862138,-2.988553,1.445058,-0.116778,-0.019118,-0.992105,0.123942,0.000000,0.000000,0.000000,-1,0.001910,-0.006654,0.000842,0.000776,-0.004263,-0.002177
"2019-04-16 05:16:51.884 +0000",1555391811.884445,-2.988408,1.445180,-0.117120,-0.019117,-0.992121,0.123819,0.000000,0.000000,0.000000,-1,0.003163,-0.007884,0.000854,-0.001238,-0.005285,-0.002039
"2019-04-16 05:16:51.907 +0000",1555391811.906717,-2.988008,1.445263,-0.117686,-0.019154,-0.992131,0.123731,0.000000,0.000000,0.000000,-1,-0.003107,-0.004196,0.000819,-0.001278,-0.004360,-0.000562
"2019-04-16 05:16:51.929 +0000",1555391811.929030,-2.987742,1.445298,-0.118022,-0.019182,-0.992135,0.123691,0.000000,0.000000,0.000000,-1,0.001897,-0.001748,-0.002922,-0.000792,-0.004004,-0.002186
"2019-04-16 05:16:51.951 +0000",1555391811.951339,-2.987790,1.445330,-0.118003,-0.019171,-0.992139,0.123660,0.000000,0.000000,0.000000,-1,-0.001833,-0.000443,0.003313,0.001181,-0.005953,0.000760
"2019-04-16 05:16:51.974 +0000",1555391811.973619,-2.987452,1.445433,-0.118348,-0.019197,-0.992152,0.123553,0.000000,0.000000,0.000000,-1,-0.004345,0.003242,0.002038,0.000535,-0.006963,-0.000857
"2019-04-16 05:16:51.996 +0000",1555391811.995944,-2.986425,1.445412,-0.119368,-0.019327,-0.992150,0.123554,0.000000,0.000000,0.000000,-1,-0.001838,-0.000448,0.002073,-0.000754,-0.006248,0.002209
"2019-04-16 05:16:52.018 +0000",1555391812.018231,-2.985625,1.445498,-0.120055,-0.019412,-0.992160,0.123454,0.000000,0.000000,0.000000,-1,-0.004338,0.005707,0.003258,-0.002301,-0.006024,-0.000056
"2019-04-16 05:16:52.041 +0000",1555391812.040540,-2.985191,1.445657,-0.120275,-0.019441,-0.992180,0.123290,0.000000,0.000000,0.000000,-1,-0.004340,0.010623,0.001973,0.002504,-0.005241,0.000993
"2019-04-16 05:16:52.063 +0000",1555391812.062835,-2.984889,1.445763,-0.120429,-0.019462,-0.992194,0.123180,0.000000,0.000000,0.000000,-1,-0.006852,0.004471,0.002026,0.002495,-0.006830,0.001637
"2019-04-16 05:16:52.085 +0000",1555391812.085126,-2.985530,1.445827,-0.119786,-0.019373,-0.992202,0.123129,0.000000,0.000000,0.000000,-1,-0.003083,-0.001669,0.004562,0.003901,-0.005998,-0.000555
"2019-04-16 05:16:52.107 +0000",1555391812.107433,-2.985574,1.445771,-0.119719,-0.019377,-0.992195,0.123185,0.000000,0.000000,0.000000,-1,0.005691,0.004476,0.002030,0.000715,-0.006539,0.000121
"2019-04-16 05:16:52.130 +0000",1555391812.129723,-2.985908,1.445515,-0.119276,-0.019375,-0.992163,0.123442,0.000000,0.000000,0.000000,-1,0.015722,0.008179,-0.002923,-0.000553,-0.003885,0.002565
"2019-04-16 05:16:52.152 +0000",1555391812.152048,-2.986355,1.445019,-0.118722,-0.019396,-0.992100,0.123938,0.000000,0.000000,0.000000,-1,0.025767,0.000817,0.000868,-0.001600,-0.005000,-0.000021
"2019-04-16 05:16:52.174 +0000",1555391812.174326,-2.986735,1.444426,-0.118465,-0.019440,-0.992026,0.124527,0.000000,0.000000,0.000000,-1,0.030764,-0.006576,-0.002785,-0.000504,-0.004068,0.000168
"2019-04-16 05:16:52.197 +0000",1555391812.196633,-2.987836,1.443884,-0.117403,-0.019385,-0.991957,0.125079,0.000000,0.000000,0.000000,-1,0.021987,-0.001659,-0.002832,-0.001642,-0.004304,-0.000293
"2019-04-16 05:16:52.219 +0000",1555391812.218936,-2.987838,1.443641,-0.117471,-0.019421,-0.991927,0.125318,0.000000,0.000000,0.000000,-1,0.009470,-0.006556,0.004649,0.000760,-0.004808,-0.000623
"2019-04-16 05:16:52.241 +0000",1555391812.241251,-2.987877,1.443617,-0.117541,-0.019420,-0.991924,0.125342,0.000000,0.000000,0.000000,-1,0.004449,-0.002873,0.003374,0.001064,-0.004674,-0.003454
"2019-04-16 05:16:52.264 +0000",1555391812.263527,-2.987688,1.443749,-0.117705,-0.019424,-0.991940,0.125208,0.000000,0.000000,0.000000,-1,0.003191,0.000813,0.002100,0.001190,-0.005344,-0.003153
"2019-04-16 05:16:52.286 +0000",1555391812.285821,-2.987855,1.443629,-0.117514,-0.019421,-0.991925,0.125329,0.000000,0.000000,0.000000,-1,0.013212,0.003263,-0.001639,-0.000019,-0.006824,-0.000894
"2019-04-16 05:16:52.308 +0000",1555391812.308130,-2.988672,1.443483,-0.116586,-0.019341,-0.991907,0.125488,0.000000,0.000000,0.000000,-1,0.010705,0.003263,-0.005331,0.000679,-0.010199,-0.001373
"2019-04-16 05:16:52.330 +0000",1555391812.330438,-2.989487,1.443479,-0.115743,-0.019239,-0.991906,0.125509,0.000000,0.000000,0.000000,-1,0.005690,-0.000424,-0.004060,0.000608,-0.006232,-0.001607
"2019-04-16 05:16:52.353 +0000",1555391812.352730,-2.989685,1.443473,-0.115597,-0.019215,-0.991905,0.125517,0.000000,0.000000,0.000000,-1,0.005703,-0.002870,-0.000317,-0.002880,-0.003700,-0.001539
"2019-04-16 05:16:52.375 +0000",1555391812.375023,-2.989449,1.443528,-0.115907,-0.019236,-0.991912,0.125459,0.000000,0.000000,0.000000,-1,-0.000575,-0.004107,-0.001549,-0.002050,-0.006394,0.000304
"2019-04-16 05:16:52.397 +0000",1555391812.397331,-2.990395,1.443535,-0.115090,-0.019117,-0.991913,0.125470,0.000000,0.000000,0.000000,-1,0.003172,-0.004120,-0.005269,0.001050,-0.009216,-0.002347
"2019-04-16 05:16:52.420 +0000",1555391812.419608,-2.991138,1.443628,-0.114429,-0.019010,-0.991925,0.125393,0.000000,0.000000,0.000000,-1,0.000674,-0.001651,-0.002811,0.000028,-0.003360,-0.003002
"2019-04-16 05:16:52.442 +0000",1555391812.441915,-2.990437,1.443816,-0.115182,-0.019070,-0.991949,0.125196,0.000000,0.000000,0.000000,-1,-0.001822,-0.004098,0.000931,-0.003132,-0.004465,-0.004087
"2019-04-16 05:16:52.464 +0000",1555391812.464225,-2.989061,1.443989,-0.116633,-0.019216,-0.991971,0.125000,0.000000,0.000000,0.000000,-1,-0.003089,-0.007798,-0.001517,-0.004420,-0.003772,-0.003982
"2019-04-16 05:16:52.487 +0000",1555391812.486533,-2.988095,1.444204,-0.117826,-0.019304,-0.991998,0.124770,0.000000,0.000000,0.000000,-1,-0.003049,-0.016380,0.004787,-0.002242,-0.009070,-0.002578
"2019-04-16 05:16:52.509 +0000",1555391812.508822,-2.988312,1.444462,-0.117842,-0.019238,-0.992031,0.124521,0.000000,0.000000,0.000000,-1,-0.005571,-0.005329,-0.000275,0.001446,-0.006825,-0.000956
"2019-04-16 05:16:52.531 +0000",1555391812.531112,-2.988686,1.444601,-0.117466,-0.019170,-0.992048,0.124393,0.000000,0.000000,0.000000,-1,-0.003083,0.002028,-0.006542,0.002080,-0.008761,0.000485
"2019-04-16 05:16:52.553 +0000",1555391812.553424,-2.989698,1.444608,-0.116315,-0.019043,-0.992049,0.124404,0.000000,0.000000,0.000000,-1,0.005685,0.006938,-0.010303,-0.000595,-0.005494,-0.002090
"2019-04-16 05:16:52.576 +0000",1555391812.575730,-2.990806,1.444547,-0.114996,-0.018914,-0.992041,0.124486,0.000000,0.000000,0.000000,-1,0.011969,0.011871,-0.007863,-0.000693,-0.003412,-0.001241
"2019-04-16 05:16:52.598 +0000",1555391812.598011,-2.991953,1.444454,-0.113641,-0.018785,-0.992029,0.124599,0.000000,0.000000,0.000000,-1,0.010713,0.010640,-0.007853,0.000887,-0.004873,-0.000468
"2019-04-16 05:16:52.620 +0000",1555391812.620319,-2.992873,1.444202,-0.112500,-0.018708,-0.991998,0.124863,0.000000,0.000000,0.000000,-1,0.009479,0.010659,-0.002892,0.002533,-0.004661,0.001037
"2019-04-16 05:16:52.643 +0000",1555391812.642626,-2.994713,1.444193,-0.110454,-0.018479,-0.991997,0.124906,0.000000,0.000000,0.000000,-1,0.001946,0.006961,-0.004104,0.004899,-0.006050,-0.001325
"2019-04-16 05:16:52.665 +0000",1555391812.664934,-2.996114,1.444281,-0.108829,-0.018292,-0.992008,0.124845,0.000000,0.000000,0.000000,-1,0.003212,0.013102,-0.007860,0.003521,-0.006497,-0.001158
"2019-04-16 05:16:52.687 +0000",1555391812.687212,-2.997597,1.444216,-0.107134,-0.018116,-0.991999,0.124936,0.000000,0.000000,0.000000,-1,0.005743,0.008206,-0.001614,0.002811,-0.007329,0.000140
"2019-04-16 05:16:52.710 +0000",1555391812.709520,-2.998602,1.444186,-0.105902,-0.017994,-0.991996,0.124983,0.000000,0.000000,0.000000,-1,0.004489,0.009436,-0.001626,0.001759,-0.005807,-0.000975
"2019-04-16 05:16:52.732 +0000",1555391812.731811,-2.998982,1.444137,-0.105307,-0.017954,-0.991989,0.125038,0.000000,0.000000,0.000000,-1,0.001995,0.009449,0.002095,0.001062,-0.005081,-0.000572
"2019-04-16 05:16:52.754 +0000",1555391812.754136,-2.999195,1.444197,-0.104946,-0.017919,-0.991997,0.124983,0.000000,0.000000,0.000000,-1,-0.001770,0.006988,0.002114,0.002217,-0.006325,-0.000060
"2019-04-16 05:16:52.776 +0000",1555391812.776413,-2.999383,1.444297,-0.104590,-0.017881,-0.992010,0.124889,0.000000,0.000000,0.000000,-1,-0.003033,0.009438,-0.000390,0.001417,-0.006297,0.000706
"2019-04-16 05:16:52.799 +0000",1555391812.798710,-2.999589,1.444534,-0.104158,-0.017822,-0.992040,0.124660,0.000000,0.000000,0.000000,-1,-0.003021,0.013138,0.002058,0.002228,-0.005489,-0.000590
"2019-04-16 05:16:52.821 +0000",1555391812.821028,-2.998985,1.444477,-0.104441,-0.017906,-0.992032,0.124705,0.000000,0.000000,0.000000,-1,0.004522,0.015615,0.005760,0.001640,-0.005587,-0.000087
"2019-04-16 05:16:52.843 +0000",1555391812.843336,-2.999521,1.444401,-0.103552,-0.017849,-0.992023,0.124789,0.000000,0.000000,0.000000,-1,0.007041,0.018062,0.002033,0.001599,-0.005460,0.000180
"2019-04-16 05:16:52.866 +0000",1555391812.865613,-2.999579,1.444321,-0.103243,-0.017853,-0.992013,0.124870,0.000000,0.000000,0.000000,-1,0.003248,0.010656,-0.004106,0.000702,-0.005836,0.002007
"2019-04-16 05:16:52.888 +0000",1555391812.887922,-3.000576,1.444160,-0.101998,-0.017751,-0.991992,0.125045,0.000000,0.000000,0.000000,-1,0.008259,0.008193,-0.005323,0.001516,-0.005124,0.001313
"2019-04-16 05:16:52.910 +0000",1555391812.910230,-3.001924,1.443908,-0.100517,-0.017617,-0.991961,0.125315,0.000000,0.000000,0.000000,-1,0.009533,0.006983,-0.000350,-0.000342,-0.001997,0.000906
"2019-04-16 05:16:52.933 +0000",1555391812.932537,-3.002888,1.443764,-0.099386,-0.017516,-0.991942,0.125474,0.000000,0.000000,0.000000,-1,0.013283,0.009430,-0.004092,0.002013,-0.005479,0.000655
"2019-04-16 05:16:52.955 +0000",1555391812.954826,-3.003738,1.443454,-0.098334,-0.017452,-0.991903,0.125794,0.000000,0.000000,0.000000,-1,0.008287,0.011908,0.000846,0.003338,-0.006358,0.001449
"2019-04-16 05:16:52.977 +0000",1555391812.977123,-3.004981,1.443214,-0.096840,-0.017328,-0.991872,0.126051,0.000000,0.000000,0.000000,-1,0.010800,0.010683,0.002097,0.003778,-0.002116,-0.000868
"2019-04-16 05:16:52.999 +0000",1555391812.999431,-3.005537,1.443089,-0.096049,-0.017275,-0.991856,0.126184,0.000000,0.000000,0.000000,-1,0.005766,0.008207,-0.001605,0.002855,-0.002834,-0.000299
"2019-04-16 05:16:53.022 +0000",1555391813.021711,-3.006068,1.442902,-0.095361,-0.017233,-0.991833,0.126376,0.000000,0.000000,0.000000,-1,0.008297,0.006980,-0.000341,-0.000162,-0.008839,0.001386
"2019-04-16 05:16:53.044 +0000",1555391813.044016,-3.006228,1.442644,-0.095131,-0.017247,-0.991800,0.126633,0.000000,0.000000,0.000000,-1,0.012053,0.003286,-0.001547,-0.000850,-0.007788,0.002288
"2019-04-16 05:16:53.066 +0000",1555391813.066324,-3.006967,1.442412,-0.094366,-0.017184,-0.991770,0.126873,0.000000,0.000000,0.000000,-1,0.014556,0.002052,-0.002776,0.001727,-0.005636,0.002048
"2019-04-16 05:16:53.089 +0000",1555391813.088633,-3.007856,1.442216,-0.093447,-0.017097,-0.991745,0.127081,0.000000,0.000000,0.000000,-1,0.012046,-0.000409,-0.002755,0.001732,-0.003708,0.000040
"2019-04-16 05:16:53.111 +0000",1555391813.110940,-3.008543,1.441989,-0.092687,-0.017040,-0.991716,0.127317,0.000000,0.000000,0.000000,-1,0.014562,0.004518,-0.001557,-0.000675,-0.005034,-0.000043
"2019-04-16 05:16:53.133 +0000",1555391813.133217,-3.009101,1.441764,-0.092012,-0.016998,-0.991687,0.127547,0.000000,0.000000,0.000000,-1,0.014569,0.006983,-0.000339,-0.000015,-0.004971,-0.002348
"2019-04-16 05:16:53.156 +0000",1555391813.155524,-3.008668,1.441520,-0.092298,-0.017086,-0.991655,0.127780,0.000000,0.000000,0.000000,-1,0.013310,0.008208,-0.001590,-0.001194,-0.004454,-0.000262
"2019-04-16 05:16:53.178 +0000",1555391813.177816,-3.008362,1.441430,-0.092375,-0.017137,-0.991644,0.127863,0.000000,0.000000,0.000000,-1,-0.000460,0.013146,0.004562,0.001375,-0.007059,-0.000849
"2019-04-16 05:16:53.200 +0000",1555391813.200141,-3.008675,1.441446,-0.091794,-0.017094,-0.991646,0.127851,0.000000,0.000000,0.000000,-1,0.002050,0.011905,0.002102,0.004445,-0.008110,0.000734
"2019-04-16 05:16:53.222 +0000",1555391813.222419,-3.009613,1.441293,-0.090566,-0.016995,-0.991626,0.128019,0.000000,0.000000,0.000000,-1,0.007059,0.013127,-0.000388,0.003216,-0.008542,0.003161
"2019-04-16 05:16:53.245 +0000",1555391813.244713,-3.010436,1.441203,-0.089480,-0.016901,-0.991615,0.128121,0.000000,0.000000,0.000000,-1,0.007047,0.010657,-0.002848,0.002268,-0.003854,0.000068
"2019-04-16 05:16:53.267 +0000",1555391813.267033,-3.011020,1.441100,-0.088694,-0.016840,-0.991601,0.128232,0.000000,0.000000,0.000000,-1,0.007049,0.006972,-0.001575,-0.000693,-0.004325,-0.000898
"2019-04-16 05:16:53.289 +0000",1555391813.289311,-3.011183,1.441054,-0.088488,-0.016825,-0.991595,0.128281,0.000000,0.000000,0.000000,-1,0.004547,0.000830,0.000960,-0.000921,-0.003858,-0.000931
"2019-04-16 05:16:53.312 +0000",1555391813.311632,-3.010973,1.440943,-0.088660,-0.016866,-0.991581,0.128385,0.000000,0.000000,0.000000,-1,0.004546,-0.000400,0.000971,-0.001445,-0.004055,0.000353
"2019-04-16 05:16:53.334 +0000",1555391813.333926,-3.010392,1.440852,-0.089157,-0.016952,-0.991569,0.128465,0.000000,0.000000,0.000000,-1,0.005810,0.006986,0.002146,-0.001511,-0.007622,-0.001252
"2019-04-16 05:16:53.356 +0000",1555391813.356235,-3.010518,1.440703,-0.088898,-0.016955,-0.991550,0.128613,0.000000,0.000000,0.000000,-1,0.008308,0.006978,-0.000334,0.002002,-0.007153,-0.001386
"2019-04-16 05:16:53.379 +0000",1555391813.378513,-3.011263,1.440578,-0.088031,-0.016876,-0.991534,0.128750,0.000000,0.000000,0.000000,-1,0.008298,0.005729,-0.004035,0.001708,-0.003752,-0.003155
"2019-04-16 05:16:53.401 +0000",1555391813.400815,-3.011378,1.440491,-0.087756,-0.016872,-0.991522,0.128837,0.000000,0.000000,0.000000,-1,0.007068,0.004522,0.002178,-0.000203,-0.003381,-0.002265
"2019-04-16 05:16:53.423 +0000",1555391813.423125,-3.010639,1.440488,-0.088449,-0.016968,-0.991522,0.128828,0.000000,0.000000,0.000000,-1,0.000802,-0.001622,0.004711,0.001175,-0.008204,0.000353
"2019-04-16 05:16:53.445 +0000",1555391813.445436,-3.010444,1.440435,-0.088560,-0.016999,-0.991515,0.128876,0.000000,0.000000,0.000000,-1,0.005804,0.005742,-0.000315,0.000993,-0.010652,-0.000778
"2019-04-16 05:16:53.468 +0000",1555391813.467738,-3.009461,1.440482,-0.089357,-0.017120,-0.991521,0.128813,0.000000,0.000000,0.000000,-1,0.002027,0.008186,-0.004059,-0.000824,-0.003001,-0.000166
"2019-04-16 05:16:53.490 +0000",1555391813.490022,-3.009768,1.440411,-0.088952,-0.017090,-0.991512,0.128889,0.000000,0.000000,0.000000,-1,0.002044,0.004515,0.000936,-0.000030,-0.006245,-0.000868
"2019-04-16 05:16:53.512 +0000",1555391813.512329,-3.009526,1.440177,-0.089238,-0.017152,-0.991481,0.129114,0.000000,0.000000,0.000000,-1,0.008321,-0.004083,0.003496,0.001511,-0.005497,0.001638
"2019-04-16 05:16:53.535 +0000",1555391813.534637,-3.010016,1.439910,-0.088839,-0.017123,-0.991447,0.129384,0.000000,0.000000,0.000000,-1,0.017090,-0.005319,0.001029,0.001208,-0.003075,-0.000600
"2019-04-16 05:16:53.557 +0000",1555391813.556916,-3.010907,1.439699,-0.088020,-0.017035,-0.991419,0.129608,0.000000,0.000000,0.000000,-1,0.012067,-0.000415,-0.001488,0.002020,-0.004232,-0.003525
"2019-04-16 05:16:53.579 +0000",1555391813.579222,-3.012070,1.439535,-0.086788,-0.016905,-0.991398,0.129788,0.000000,0.000000,0.000000,-1,0.012066,0.005731,-0.002783,0.000807,-0.003628,-0.003400
"2019-04-16 05:16:53.602 +0000",1555391813.601531,-3.011977,1.439353,-0.086790,-0.016940,-0.991374,0.129965,0.000000,0.000000,0.000000,-1,0.010835,0.003294,0.003441,-0.001874,-0.006459,0.000802
"2019-04-16 05:16:53.624 +0000",1555391813.623816,-3.011630,1.439200,-0.087048,-0.017005,-0.991354,0.130110,0.000000,0.000000,0.000000,-1,0.004554,0.004512,0.000946,-0.001870,-0.007243,0.002153
"2019-04-16 05:16:53.646 +0000",1555391813.646116,-3.011285,1.438972,-0.087387,-0.017080,-0.991324,0.130328,0.000000,0.000000,0.000000,-1,0.008324,-0.000397,0.003473,-0.000514,-0.004831,-0.000094
"2019-04-16 05:16:53.668 +0000",1555391813.668424,-3.011119,1.438803,-0.087581,-0.017123,-0.991302,0.130492,0.000000,0.000000,0.000000,-1,0.007056,0.002048,-0.000271,-0.000882,-0.008027,-0.000029
"2019-04-16 05:16:53.691 +0000",1555391813.690718,-3.011105,1.438694,-0.087517,-0.017139,-0.991287,0.130598,0.000000,0.000000,0.000000,-1,0.005808,0.004513,0.000947,0.000904,-0.006958,-0.001433
"2019-04-16 05:16:53.713 +0000",1555391813.713040,-3.010407,1.438673,-0.088096,-0.017233,-0.991284,0.130608,0.000000,0.000000,0.000000,-1,0.005824,0.005757,0.004657,0.000128,-0.007007,-0.000618
"2019-04-16 05:16:53.735 +0000",1555391813.735319,-3.009570,1.438591,-0.088698,-0.017353,-0.991274,0.130673,0.000000,0.000000,0.000000,-1,0.004563,0.011883,0.003373,-0.000820,-0.006071,-0.000394
"2019-04-16 05:16:53.758 +0000",1555391813.757625,-3.008843,1.438496,-0.089150,-0.017460,-0.991261,0.130754,0.000000,0.000000,0.000000,-1,0.004558,0.011878,0.002132,-0.000087,-0.006420,-0.000001
"2019-04-16 05:16:53.780 +0000",1555391813.779933,-3.009342,1.438355,-0.088383,-0.017413,-0.991242,0.130901,0.000000,0.000000,0.000000,-1,0.008327,0.013115,0.003363,0.002536,-0.005950,0.000050
"2019-04-16 05:16:53.802 +0000",1555391813.802241,-3.009582,1.438223,-0.087857,-0.017399,-0.991225,0.131035,0.000000,0.000000,0.000000,-1,0.009579,0.009425,0.003396,0.002430,-0.007020,0.001350
"2019-04-16 05:16:53.825 +0000",1555391813.824519,-3.009849,1.438160,-0.087340,-0.017373,-0.991217,0.131103,0.000000,0.000000,0.000000,-1,0.000780,0.013092,-0.001603,0.001717,-0.005945,0.001206
"2019-04-16 05:16:53.847 +0000",1555391813.846838,-3.009531,1.438241,-0.087442,-0.017404,-0.991227,0.131016,0.000000,0.000000,0.000000,-1,0.002038,0.010637,-0.000340,0.000558,-0.003737,-0.001713
"2019-04-16 05:16:53.869 +0000",1555391813.869135,-3.009042,1.438198,-0.087792,-0.017473,-0.991222,0.131050,0.000000,0.000000,0.000000,-1,0.007064,0.000813,0.003471,0.000582,-0.007176,0.000923
"2019-04-16 05:16:53.891 +0000",1555391813.891442,-3.008569,1.438137,-0.088234,-0.017543,-0.991214,0.131102,0.000000,0.000000,0.000000,-1,0.002062,0.000825,0.007190,0.003398,-0.007108,0.000230
"2019-04-16 05:16:53.914 +0000",1555391813.913723,-3.008121,1.438196,-0.088600,-0.017594,-0.991221,0.131036,0.000000,0.000000,0.000000,-1,-0.001718,0.004482,0.005926,0.004105,-0.007405,-0.003137
"2019-04-16 05:16:53.936 +0000",1555391813.936028,-3.007795,1.438282,-0.088805,-0.017626,-0.991233,0.130946,0.000000,0.000000,0.000000,-1,-0.004232,0.004476,0.004684,0.003679,-0.004983,-0.002269
"2019-04-16 05:16:53.958 +0000",1555391813.958336,-3.007377,1.438385,-0.089096,-0.017667,-0.991246,0.130838,0.000000,0.000000,0.000000,-1,-0.000466,0.009398,0.004641,0.003247,-0.005977,0.000510
"2019-04-16 05:16:53.981 +0000",1555391813.980613,-3.007382,1.438497,-0.088938,-0.017651,-0.991261,0.130728,0.000000,0.000000,0.000000,-1,-0.000467,0.008168,0.004651,0.002835,-0.006023,0.000635
"2019-04-16 05:16:54.003 +0000",1555391814.002920,-3.006972,1.438604,-0.089165,-0.017690,-0.991275,0.130615,0.000000,0.000000,0.000000,-1,-0.008002,0.010615,0.002145,-0.000269,-0.008343,0.000381
"2019-04-16 05:16:54.025 +0000",1555391814.025229,-3.006321,1.438739,-0.089581,-0.017757,-0.991293,0.130471,0.000000,0.000000,0.000000,-1,-0.006759,0.008146,-0.000314,-0.000629,-0.007105,0.000129
"2019-04-16 05:16:54.048 +0000",1555391814.047537,-3.005544,1.438878,-0.090207,-0.017840,-0.991311,0.130320,0.000000,0.000000,0.000000,-1,-0.002998,0.005688,-0.000290,-0.002134,-0.005911,0.000035
"2019-04-16 05:16:54.070 +0000",1555391814.069817,-3.005632,1.438919,-0.090059,-0.017823,-0.991317,0.130282,0.000000,0.000000,0.000000,-1,0.000786,0.005708,0.004674,0.002030,-0.007524,0.001767
"2019-04-16 05:16:54.092 +0000",1555391814.092122,-3.006344,1.438827,-0.089373,-0.017743,-0.991305,0.130385,0.000000,0.000000,0.000000,-1,0.003258,-0.000486,0.002259,0.004132,-0.005659,0.003450
"2019-04-16 05:16:54.114 +0000",1555391814.114430,-3.007204,1.438855,-0.088521,-0.017627,-0.991308,0.130372,0.000000,0.000000,0.000000,-1,0.003264,0.000749,0.003488,0.002826,-0.003397,-0.002366
"2019-04-16 05:16:54.137 +0000",1555391814.136729,-3.008011,1.438993,-0.087694,-0.017503,-0.991326,0.130252,0.000000,0.000000,0.000000,-1,-0.004266,0.004431,0.002210,0.001528,-0.004798,-0.002032
"2019-04-16 05:16:54.159 +0000",1555391814.159033,-3.007374,1.439122,-0.088310,-0.017569,-0.991343,0.130113,0.000000,0.000000,0.000000,-1,-0.004256,0.003210,0.004702,-0.000421,-0.007253,-0.002275
"2019-04-16 05:16:54.181 +0000",1555391814.181323,-3.005876,1.439257,-0.089786,-0.017746,-0.991361,0.129954,0.000000,0.000000,0.000000,-1,-0.005514,-0.001710,0.004746,-0.003677,-0.009066,0.000661
"2019-04-16 05:16:54.204 +0000",1555391814.203630,-3.004414,1.439375,-0.091226,-0.017920,-0.991377,0.129812,0.000000,0.000000,0.000000,-1,-0.005521,0.003201,0.002222,-0.000894,-0.006457,0.000238
"2019-04-16 05:16:54.226 +0000",1555391814.225939,-3.003390,1.439469,-0.092165,-0.018040,-0.991389,0.129701,0.000000,0.000000,0.000000,-1,-0.004249,0.006906,0.005911,-0.000499,-0.006261,0.000792
"2019-04-16 05:16:54.248 +0000",1555391814.248216,-3.002434,1.439455,-0.092961,-0.018166,-0.991387,0.129698,0.000000,0.000000,0.000000,-1,0.007023,0.005666,0.002205,-0.001350,-0.007392,0.000124
"2019-04-16 05:16:54.271 +0000",1555391814.270524,-3.001767,1.439343,-0.093410,-0.018268,-0.991372,0.129795,0.000000,0.000000,0.000000,-1,0.001977,0.009311,0.002182,-0.000348,-0.007163,0.000240
"2019-04-16 05:16:54.293 +0000",1555391814.292824,-3.000798,1.439330,-0.094137,-0.018396,-0.991371,0.129791,0.000000,0.000000,0.000000,-1,0.001977,0.010541,0.002171,-0.000907,-0.004021,0.000397
"2019-04-16 05:16:54.315 +0000",1555391814.315140,-3.000569,1.439304,-0.094132,-0.018429,-0.991367,0.129811,0.000000,0.000000,0.000000,-1,-0.000523,0.008090,0.004672,0.002041,-0.003902,0.002421
"2019-04-16 05:16:54.337 +0000",1555391814.337417,-3.000615,1.439393,-0.093893,-0.018411,-0.991379,0.129726,0.000000,0.000000,0.000000,-1,-0.004302,0.006843,0.000960,0.002648,-0.005203,0.002018
"2019-04-16 05:16:54.360 +0000",1555391814.359717,-3.000227,1.439485,-0.094032,-0.018448,-0.991391,0.129628,0.000000,0.000000,0.000000,-1,-0.006803,0.010538,0.002166,0.000534,-0.007892,-0.000646
"2019-04-16 05:16:54.382 +0000",1555391814.382033,-2.999419,1.439610,-0.094611,-0.018535,-0.991407,0.129491,0.000000,0.000000,0.000000,-1,-0.005548,0.011768,0.002156,-0.000111,-0.007326,0.000926
"2019-04-16 05:16:54.404 +0000",1555391814.404341,-2.999137,1.439714,-0.094638,-0.018557,-0.991421,0.129383,0.000000,0.000000,0.000000,-1,0.000712,0.008071,-0.000290,0.000231,-0.006611,0.000103
"2019-04-16 05:16:54.427 +0000",1555391814.426618,-2.999135,1.439751,-0.094499,-0.018552,-0.991426,0.129347,0.000000,0.000000,0.000000,-1,0.003209,0.006833,-0.002759,0.000303,-0.005538,0.000398
"2019-04-16 05:16:54.449 +0000",1555391814.448928,-2.999421,1.439756,-0.094063,-0.018514,-0.991427,0.129347,0.000000,0.000000,0.000000,-1,-0.000579,0.006798,-0.000271,0.001165,-0.004606,-0.001845
"2019-04-16 05:16:54.471 +0000",1555391814.471234,-2.999396,1.439787,-0.093979,-0.018513,-0.991431,0.129317,0.000000,0.000000,0.000000,-1,0.001933,0.005574,0.000982,0.000874,-0.005304,0.000368
"2019-04-16 05:16:54.494 +0000",1555391814.493541,-2.998856,1.439762,-0.094371,-0.018587,-0.991427,0.129330,0.000000,0.000000,0.000000,-1,0.003200,0.009275,0.003430,-0.000075,-0.004972,-0.000104
"2019-04-16 05:16:54.516 +0000",1555391814.515814,-2.997688,1.439802,-0.095238,-0.018732,-0.991432,0.129270,0.000000,0.000000,0.000000,-1,-0.004317,0.016657,0.004602,-0.000937,-0.005989,-0.001187
"2019-04-16 05:16:54.538 +0000",1555391814.538127,-2.996049,1.439932,-0.096577,-0.018925,-0.991450,0.129111,0.000000,0.000000,0.000000,-1,-0.008084,0.017881,0.003350,-0.000927,-0.005453,-0.000418
"2019-04-16 05:16:54.560 +0000",1555391814.560435,-2.994733,1.440103,-0.097593,-0.019070,-0.991472,0.128918,0.000000,0.000000,0.000000,-1,-0.008087,0.012961,0.003393,0.000973,-0.005019,-0.001294
"2019-04-16 05:16:54.583 +0000",1555391814.582739,-2.993766,1.440287,-0.098353,-0.019168,-0.991496,0.128720,0.000000,0.000000,0.000000,-1,-0.005588,0.006806,0.002208,-0.000806,-0.008565,-0.000943
"2019-04-16 05:16:54.605 +0000",1555391814.605021,-2.993115,1.440518,-0.098780,-0.019218,-0.991526,0.128480,0.000000,0.000000,0.000000,-1,-0.008100,0.010491,0.000934,-0.001030,-0.007482,-0.000444
"2019-04-16 05:16:54.627 +0000",1555391814.627329,-2.992996,1.440723,-0.098682,-0.019203,-0.991552,0.128277,0.000000,0.000000,0.000000,-1,-0.005647,0.009202,-0.001528,0.001213,-0.004999,-0.002743
"2019-04-16 05:16:54.650 +0000",1555391814.649637,-2.992469,1.440825,-0.099099,-0.019256,-0.991566,0.128167,0.000000,0.000000,0.000000,-1,-0.000619,0.003068,0.002250,0.001067,-0.003872,-0.002114
"2019-04-16 05:16:54.672 +0000",1555391814.671920,-2.993026,1.440767,-0.098586,-0.019193,-0.991558,0.128235,0.000000,0.000000,0.000000,-1,0.004383,-0.005550,-0.000153,0.002484,-0.006092,0.000183
"2019-04-16 05:16:54.694 +0000",1555391814.694222,-2.993759,1.440797,-0.097974,-0.019095,-0.991562,0.128219,0.000000,0.000000,0.000000,-1,0.004384,-0.004320,-0.000164,0.004293,-0.004364,-0.002380
"2019-04-16 05:16:54.717 +0000",1555391814.716530,-2.994849,1.440895,-0.097002,-0.018940,-0.991575,0.128144,0.000000,0.000000,0.000000,-1,0.004383,-0.004320,-0.000165,0.003773,-0.003848,-0.003862
"2019-04-16 05:16:54.739 +0000",1555391814.738840,-2.994299,1.440962,-0.097685,-0.019001,-0.991583,0.128069,0.000000,0.000000,0.000000,-1,0.001884,-0.004312,0.002315,-0.001491,-0.006982,-0.001482
"2019-04-16 05:16:54.761 +0000",1555391814.761115,-2.993656,1.440976,-0.098396,-0.019081,-0.991585,0.128041,0.000000,0.000000,0.000000,-1,-0.000623,-0.000622,0.002281,-0.001518,-0.007362,-0.000447
"2019-04-16 05:16:54.783 +0000",1555391814.783423,-2.992661,1.441133,-0.099420,-0.019186,-0.991605,0.127870,0.000000,0.000000,0.000000,-1,-0.006886,-0.003075,0.004782,-0.000361,-0.007555,-0.000932
"2019-04-16 05:16:54.806 +0000",1555391814.805713,-2.992336,1.441323,-0.099701,-0.019199,-0.991630,0.127677,0.000000,0.000000,0.000000,-1,-0.006929,0.003020,0.004731,0.000324,-0.006142,-0.001121
"2019-04-16 05:16:54.828 +0000",1555391814.828039,-2.990963,1.441437,-0.101007,-0.019358,-0.991645,0.127538,0.000000,0.000000,0.000000,-1,-0.004415,0.004256,0.005962,-0.003821,-0.005792,0.000041
"2019-04-16 05:16:54.850 +0000",1555391814.850316,-2.989314,1.441541,-0.102609,-0.019552,-0.991658,0.127405,0.000000,0.000000,0.000000,-1,-0.000653,0.003027,0.005975,-0.003717,-0.007426,-0.003854
"2019-04-16 05:16:54.873 +0000",1555391814.872620,-2.988086,1.441535,-0.103735,-0.019710,-0.991657,0.127386,0.000000,0.000000,0.000000,-1,0.004356,0.006710,0.003464,-0.001851,-0.005306,-0.001425
"2019-04-16 05:16:54.895 +0000",1555391814.894920,-2.988233,1.441587,-0.103363,-0.019683,-0.991664,0.127338,0.000000,0.000000,0.000000,-1,0.003084,0.011611,-0.001543,0.002944,-0.004506,-0.001270
"2019-04-16 05:16:54.917 +0000",1555391814.917240,-2.988680,1.441599,-0.102547,-0.019624,-0.991666,0.127335,0.000000,0.000000,0.000000,-1,0.001833,0.016531,-0.001587,0.003053,-0.002917,-0.000534
"2019-04-16 05:16:54.940 +0000",1555391814.939516,-2.989511,1.441523,-0.101411,-0.019530,-0.991656,0.127426,0.000000,0.000000,0.000000,-1,0.004334,0.012837,-0.002795,0.002120,-0.005201,0.000001
"2019-04-16 05:16:54.962 +0000",1555391814.961817,-2.989238,1.441495,-0.101408,-0.019569,-0.991652,0.127448,0.000000,0.000000,0.000000,-1,-0.001928,0.012844,-0.000316,-0.000740,-0.006761,-0.000953
"2019-04-16 05:16:54.984 +0000",1555391814.984134,-2.989100,1.441613,-0.101370,-0.019569,-0.991667,0.127329,0.000000,0.000000,0.000000,-1,-0.009478,0.005406,0.000987,0.001273,-0.006578,-0.000071
"2019-04-16 05:16:55.006 +0000",1555391815.006441,-2.989001,1.441784,-0.101379,-0.019556,-0.991689,0.127160,0.000000,0.000000,0.000000,-1,-0.006971,0.002947,0.001010,0.003793,-0.005518,0.001350
"2019-04-16 05:16:55.029 +0000",1555391815.028717,-2.989082,1.441904,-0.101315,-0.019527,-0.991705,0.127044,0.000000,0.000000,0.000000,-1,-0.000698,-0.001966,0.002296,0.002941,-0.007868,-0.000014
"2019-04-16 05:16:55.051 +0000",1555391815.051026,-2.989019,1.442023,-0.101347,-0.019517,-0.991720,0.126926,0.000000,0.000000,0.000000,-1,0.004334,0.005426,0.004713,0.002092,-0.006907,-0.003193
"2019-04-16 05:16:55.073 +0000",1555391815.073332,-2.989255,1.442086,-0.100984,-0.019478,-0.991728,0.126868,0.000000,0.000000,0.000000,-1,0.004330,0.007882,0.003450,0.000908,-0.006975,-0.000968
"2019-04-16 05:16:55.096 +0000",1555391815.095642,-2.988916,1.442036,-0.101138,-0.019529,-0.991722,0.126912,0.000000,0.000000,0.000000,-1,-0.000698,0.007870,0.000967,0.001187,-0.003289,-0.001118
"2019-04-16 05:16:55.118 +0000",1555391815.117919,-2.989031,1.441972,-0.100859,-0.019523,-0.991714,0.126976,0.000000,0.000000,0.000000,-1,0.003075,0.007882,0.003449,0.001427,-0.004579,0.000084
"2019-04-16 05:16:55.140 +0000",1555391815.140228,-2.989424,1.441963,-0.100302,-0.019475,-0.991712,0.126993,0.000000,0.000000,0.000000,-1,0.003050,0.007858,-0.002753,-0.001399,-0.006594,-0.000543
"2019-04-16 05:16:55.163 +0000",1555391815.162535,-2.989478,1.442070,-0.100062,-0.019452,-0.991726,0.126888,0.000000,0.000000,0.000000,-1,-0.004510,0.011491,-0.000311,0.000287,-0.007557,-0.002071
"2019-04-16 05:16:55.185 +0000",1555391815.184813,-2.989659,1.442199,-0.099649,-0.019410,-0.991743,0.126766,0.000000,0.000000,0.000000,-1,0.001770,0.009043,0.002195,0.002503,-0.006548,0.000599
"2019-04-16 05:16:55.207 +0000",1555391815.207120,-2.989941,1.442218,-0.099240,-0.019371,-0.991745,0.126753,0.000000,0.000000,0.000000,-1,0.001740,0.001638,-0.003942,0.001091,-0.004730,0.000139
"2019-04-16 05:16:55.229 +0000",1555391815.229428,-2.989723,1.442242,-0.099480,-0.019395,-0.991748,0.126725,0.000000,0.000000,0.000000,-1,0.000520,0.000441,0.004752,0.001420,-0.005566,-0.000825
"2019-04-16 05:16:55.252 +0000",1555391815.251740,-2.989952,1.442212,-0.099292,-0.019371,-0.991744,0.126759,0.000000,0.000000,0.000000,-1,0.008032,-0.005715,0.002328,0.002006,-0.006928,0.001033
"2019-04-16 05:16:55.274 +0000",1555391815.274014,-2.990246,1.442138,-0.099040,-0.019344,-0.991735,0.126837,0.000000,0.000000,0.000000,-1,0.008030,-0.000800,0.001043,0.003918,-0.003474,-0.002158
"2019-04-16 05:16:55.296 +0000",1555391815.296322,-2.991382,1.442155,-0.097936,-0.019198,-0.991737,0.126842,0.000000,0.000000,0.000000,-1,-0.002004,0.001656,0.001017,0.004519,-0.002907,-0.002147
"2019-04-16 05:16:55.319 +0000",1555391815.318629,-2.991925,1.442270,-0.097366,-0.019112,-0.991752,0.126740,0.000000,0.000000,0.000000,-1,0.000496,0.004108,-0.001486,-0.000267,-0.005517,0.000183
"2019-04-16 05:16:55.341 +0000",1555391815.340938,-2.992080,1.442260,-0.097165,-0.019094,-0.991751,0.126752,0.000000,0.000000,0.000000,-1,-0.000798,0.000352,-0.000218,-0.001780,-0.007776,0.001971
"2019-04-16 05:16:55.363 +0000",1555391815.363214,-2.991921,1.442261,-0.097245,-0.019114,-0.991751,0.126748,0.000000,0.000000,0.000000,-1,-0.004549,0.004051,0.002229,-0.000113,-0.005579,0.000449
"2019-04-16 05:16:55.386 +0000",1555391815.385523,-2.991369,1.442339,-0.097698,-0.019172,-0.991761,0.126661,0.000000,0.000000,0.000000,-1,0.001719,0.005279,0.000980,0.001060,-0.003021,-0.000486
"2019-04-16 05:16:55.408 +0000",1555391815.407829,-2.991317,1.442254,-0.097648,-0.019191,-0.991750,0.126744,0.000000,0.000000,0.000000,-1,0.005482,0.005280,0.000982,0.000118,-0.005931,-0.000096
"2019-04-16 05:16:55.430 +0000",1555391815.430140,-2.990655,1.442245,-0.098187,-0.019276,-0.991749,0.126740,0.000000,0.000000,0.000000,-1,0.002987,0.004064,0.004713,-0.000713,-0.006451,-0.001923
"2019-04-16 05:16:55.452 +0000",1555391815.452415,-2.990171,1.442215,-0.098578,-0.019342,-0.991745,0.126760,0.000000,0.000000,0.000000,-1,0.002968,0.007735,-0.000282,-0.002295,-0.004578,-0.002492
"2019-04-16 05:16:55.475 +0000",1555391815.474727,-2.989912,1.442162,-0.098633,-0.019383,-0.991738,0.126807,0.000000,0.000000,0.000000,-1,0.005469,0.011417,-0.002794,-0.000392,-0.005210,-0.002066
"2019-04-16 05:16:55.497 +0000",1555391815.497033,-2.989948,1.442151,-0.098278,-0.019380,-0.991737,0.126819,0.000000,0.000000,0.000000,-1,0.004232,0.015121,0.000894,0.002260,-0.005853,-0.002215
"2019-04-16 05:16:55.519 +0000",1555391815.519340,-2.989646,1.442121,-0.098300,-0.019423,-0.991733,0.126842,0.000000,0.000000,0.000000,-1,0.001689,0.008903,0.003420,0.000655,-0.005368,-0.000576
"2019-04-16 05:16:55.542 +0000",1555391815.541617,-2.990061,1.442207,-0.097722,-0.019357,-0.991744,0.126766,0.000000,0.000000,0.000000,-1,0.001678,0.008893,0.000939,0.002634,-0.004976,-0.000713
"2019-04-16 05:16:55.564 +0000",1555391815.563926,-2.990362,1.442356,-0.097213,-0.019297,-0.991763,0.126625,0.000000,0.000000,0.000000,-1,-0.003347,0.005196,-0.000272,0.001994,-0.004575,-0.001030
"2019-04-16 05:16:55.586 +0000",1555391815.586241,-2.990281,1.442420,-0.097186,-0.019298,-0.991771,0.126560,0.000000,0.000000,0.000000,-1,0.001677,0.007663,0.000949,0.000850,-0.005589,-0.000920
"2019-04-16 05:16:55.609 +0000",1555391815.608541,-2.990114,1.442432,-0.097257,-0.019317,-0.991773,0.126546,0.000000,0.000000,0.000000,-1,0.005438,0.003975,0.000983,0.000793,-0.005801,-0.000631
"2019-04-16 05:16:55.631 +0000",1555391815.630814,-2.989807,1.442362,-0.097500,-0.019366,-0.991764,0.126609,0.000000,0.000000,0.000000,-1,0.001679,0.003978,0.002222,-0.001309,-0.005551,-0.000480
"2019-04-16 05:16:55.653 +0000",1555391815.653126,-2.989276,1.442399,-0.097957,-0.019428,-0.991768,0.126563,0.000000,0.000000,0.000000,-1,0.002944,0.003988,0.004704,-0.000256,-0.004921,-0.000037
"2019-04-16 05:16:55.675 +0000",1555391815.675435,-2.989379,1.442374,-0.097774,-0.019419,-0.991765,0.126589,0.000000,0.000000,0.000000,-1,0.005442,0.003980,0.002224,0.001337,-0.005977,-0.000612
"2019-04-16 05:16:55.698 +0000",1555391815.697719,-2.989443,1.442346,-0.097551,-0.019415,-0.991762,0.126618,0.000000,0.000000,0.000000,-1,0.005403,0.008821,-0.000310,0.000845,-0.003401,-0.001694
"2019-04-16 05:16:55.720 +0000",1555391815.720020,-2.989990,1.442330,-0.096783,-0.019348,-0.991760,0.126643,0.000000,0.000000,0.000000,-1,0.002890,0.010045,-0.001563,0.002853,-0.005402,-0.001857
"2019-04-16 05:16:55.742 +0000",1555391815.742327,-2.990596,1.442253,-0.095987,-0.019283,-0.991750,0.126731,0.000000,0.000000,0.000000,-1,0.005392,0.007581,-0.002781,0.001613,-0.005244,0.000314
"2019-04-16 05:16:55.765 +0000",1555391815.764636,-2.990183,1.442206,-0.096214,-0.019342,-0.991744,0.126769,0.000000,0.000000,0.000000,-1,0.005416,0.006375,0.003432,-0.002676,-0.006975,-0.001128
"2019-04-16 05:16:55.787 +0000",1555391815.786911,-2.989706,1.442246,-0.096671,-0.019397,-0.991749,0.126721,0.000000,0.000000,0.000000,-1,0.004150,-0.003471,0.002279,-0.002027,-0.005749,-0.000744
"2019-04-16 05:16:55.809 +0000",1555391815.809221,-2.989132,1.442165,-0.097253,-0.019481,-0.991738,0.126789,0.000000,0.000000,0.000000,-1,-0.002129,0.001437,-0.000248,-0.001164,-0.007438,0.002575
"2019-04-16 05:16:55.832 +0000",1555391815.831529,-2.989523,1.442017,-0.096875,-0.019454,-0.991719,0.126942,0.000000,0.000000,0.000000,-1,0.004142,-0.001020,-0.000224,0.003005,-0.007457,0.003002
"2019-04-16 05:16:55.854 +0000",1555391815.853821,-2.990405,1.441970,-0.095957,-0.019349,-0.991713,0.127004,0.000000,0.000000,0.000000,-1,0.007912,0.002677,0.000985,0.003526,-0.002412,-0.003072
"2019-04-16 05:16:55.876 +0000",1555391815.876114,-2.990834,1.441863,-0.095508,-0.019311,-0.991700,0.127118,0.000000,0.000000,0.000000,-1,0.009130,0.002595,-0.000267,0.000710,-0.004165,-0.002377
"2019-04-16 05:16:55.898 +0000",1555391815.898422,-2.990574,1.441730,-0.095801,-0.019363,-0.991683,0.127243,0.000000,0.000000,0.000000,-1,0.009132,-0.002320,0.001018,-0.001526,-0.005983,-0.000748
"2019-04-16 05:16:55.921 +0000",1555391815.920727,-2.989484,1.441645,-0.096899,-0.019515,-0.991672,0.127305,0.000000,0.000000,0.000000,-1,0.006626,0.002599,0.000974,-0.003190,-0.009000,-0.000123
"2019-04-16 05:16:55.943 +0000",1555391815.943033,-2.988668,1.441704,-0.097640,-0.019610,-0.991679,0.127231,0.000000,0.000000,0.000000,-1,-0.005910,0.006289,0.002176,0.000475,-0.007161,0.001492
"2019-04-16 05:16:55.965 +0000",1555391815.965309,-2.988257,1.441794,-0.097910,-0.019649,-0.991691,0.127135,0.000000,0.000000,0.000000,-1,-0.005899,0.007529,0.004646,-0.000020,-0.005135,0.000779
"2019-04-16 05:16:55.988 +0000",1555391815.987623,-2.987408,1.441820,-0.098644,-0.019753,-0.991694,0.127093,0.000000,0.000000,0.000000,-1,-0.000893,0.006291,0.002178,-0.001793,-0.008245,0.000348
"2019-04-16 05:16:56.010 +0000",1555391816.009931,-2.986058,1.441794,-0.099912,-0.019928,-0.991691,0.127092,0.000000,0.000000,0.000000,-1,0.005397,0.002623,0.007176,-0.000641,-0.006890,-0.000688
"2019-04-16 05:16:56.032 +0000",1555391816.032239,-2.984659,1.441815,-0.101229,-0.020103,-0.991693,0.127043,0.000000,0.000000,0.000000,-1,-0.002149,0.003831,0.002200,-0.001077,-0.006201,-0.000563
"2019-04-16 05:16:56.055 +0000",1555391816.054517,-2.984585,1.441751,-0.101206,-0.020122,-0.991685,0.127104,0.000000,0.000000,0.000000,-1,0.004087,0.007436,-0.000324,0.000713,-0.007064,0.001451
"2019-04-16 05:16:56.077 +0000",1555391816.076837,-2.985023,1.441741,-0.100609,-0.020068,-0.991684,0.127123,0.000000,0.000000,0.000000,-1,0.002834,0.008665,-0.000336,0.002673,-0.005692,-0.000414
"2019-04-16 05:16:56.099 +0000",1555391816.099134,-2.986017,1.441759,-0.099488,-0.019939,-0.991686,0.127126,0.000000,0.000000,0.000000,-1,0.002819,0.002505,-0.002763,0.001979,-0.006712,-0.000005
"2019-04-16 05:16:56.121 +0000",1555391816.121409,-2.986500,1.441649,-0.098816,-0.019894,-0.991672,0.127243,0.000000,0.000000,0.000000,-1,0.006591,0.008662,-0.001576,0.001782,-0.004254,-0.001724
"2019-04-16 05:16:56.144 +0000",1555391816.143734,-2.986696,1.441648,-0.098404,-0.019870,-0.991672,0.127249,0.000000,0.000000,0.000000,-1,0.004082,0.008661,-0.001577,-0.001172,-0.006024,-0.000753
"2019-04-16 05:16:56.166 +0000",1555391816.166025,-2.986399,1.441547,-0.098489,-0.019923,-0.991659,0.127341,0.000000,0.000000,0.000000,-1,0.005355,0.007451,0.003397,-0.000555,-0.005244,-0.001639
"2019-04-16 05:16:56.188 +0000",1555391816.188333,-2.986914,1.441444,-0.097805,-0.019873,-0.991646,0.127452,0.000000,0.000000,0.000000,-1,0.010354,0.009894,-0.001585,-0.000055,-0.006020,-0.000499
"2019-04-16 05:16:56.211 +0000",1555391816.210610,-2.986854,1.441362,-0.097709,-0.019893,-0.991635,0.127531,0.000000,0.000000,0.000000,-1,0.004080,0.007431,-0.001566,0.001247,-0.006122,-0.000441
"2019-04-16 05:16:56.233 +0000",1555391816.232919,-2.986929,1.441370,-0.097401,-0.019882,-0.991636,0.127524,0.000000,0.000000,0.000000,-1,0.001546,0.009810,-0.001603,0.000397,-0.004885,-0.000724
"2019-04-16 05:16:56.255 +0000",1555391816.255226,-2.986324,1.441395,-0.097769,-0.019956,-0.991639,0.127488,0.000000,0.000000,0.000000,-1,0.001573,0.012295,0.004578,-0.000171,-0.004454,-0.000673
"2019-04-16 05:16:56.278 +0000",1555391816.277535,-2.985418,1.441458,-0.098454,-0.020061,-0.991647,0.127409,0.000000,0.000000,0.000000,-1,0.002815,0.009825,0.002119,0.001232,-0.005087,-0.001218
"2019-04-16 05:16:56.300 +0000",1555391816.299814,-2.985175,1.441605,-0.098533,-0.020069,-0.991666,0.127259,0.000000,0.000000,0.000000,-1,0.002817,0.006140,0.003392,0.003086,-0.005343,-0.002458
"2019-04-16 05:16:56.322 +0000",1555391816.322120,-2.985258,1.441694,-0.098381,-0.020045,-0.991678,0.127173,0.000000,0.000000,0.000000,-1,-0.000957,0.004899,0.000919,0.003520,-0.008856,-0.000464
"2019-04-16 05:16:56.344 +0000",1555391816.344428,-2.985855,1.441785,-0.097667,-0.019955,-0.991690,0.127097,0.000000,0.000000,0.000000,-1,-0.000983,0.004875,-0.005283,0.001706,-0.007746,-0.000128
"2019-04-16 05:16:56.367 +0000",1555391816.366712,-2.986252,1.441939,-0.097127,-0.019881,-0.991709,0.126954,0.000000,0.000000,0.000000,-1,-0.005980,0.006122,-0.000335,0.000014,-0.005010,-0.002122
"2019-04-16 05:16:56.389 +0000",1555391816.389013,-2.986414,1.441898,-0.096889,-0.019867,-0.991704,0.126997,0.000000,0.000000,0.000000,-1,0.000290,0.002434,-0.000299,-0.000061,-0.004313,0.002031
"2019-04-16 05:16:56.411 +0000",1555391816.411321,-2.987402,1.441793,-0.095920,-0.019758,-0.991691,0.127120,0.000000,0.000000,0.000000,-1,0.004035,-0.001327,0.002201,0.003949,-0.007577,0.003815
"2019-04-16 05:16:56.434 +0000",1555391816.433629,-2.988140,1.441660,-0.095241,-0.019684,-0.991674,0.127264,0.000000,0.000000,0.000000,-1,0.009047,-0.001330,0.000962,0.003067,-0.004588,-0.000311
"2019-04-16 05:16:56.456 +0000",1555391816.455936,-2.987920,1.441698,-0.095466,-0.019706,-0.991678,0.127223,0.000000,0.000000,0.000000,-1,-0.002226,0.001140,0.004657,-0.001260,-0.004782,-0.002650
"2019-04-16 05:16:56.478 +0000",1555391816.478214,-2.987116,1.441743,-0.096214,-0.019801,-0.991684,0.127163,0.000000,0.000000,0.000000,-1,0.002777,0.002358,0.000927,-0.002705,-0.006790,-0.001522
"2019-04-16 05:16:56.501 +0000",1555391816.500523,-2.985775,1.441813,-0.097510,-0.019961,-0.991693,0.127068,0.000000,0.000000,0.000000,-1,-0.003481,0.001140,0.004657,-0.003049,-0.007986,0.000984
"2019-04-16 05:16:56.523 +0000",1555391816.522812,-2.985706,1.441868,-0.097473,-0.019962,-0.991700,0.127013,0.000000,0.000000,0.000000,-1,-0.004738,0.003595,0.003394,0.004169,-0.005965,0.002992
"2019-04-16 05:16:56.545 +0000",1555391816.545138,-2.985208,1.441937,-0.097810,-0.020014,-0.991709,0.126935,0.000000,0.000000,0.000000,-1,-0.000976,0.009742,0.002100,0.002253,-0.007543,0.003100
"2019-04-16 05:16:56.567 +0000",1555391816.567415,-2.985272,1.441909,-0.097570,-0.020010,-0.991706,0.126963,0.000000,0.000000,0.000000,-1,-0.000971,0.009747,0.003340,0.001303,-0.005777,0.001684
"2019-04-16 05:16:56.590 +0000",1555391816.589727,-2.984351,1.441930,-0.098274,-0.020124,-0.991708,0.126925,0.000000,0.000000,0.000000,-1,0.001510,0.008435,0.003337,-0.002627,-0.003989,0.001127
"2019-04-16 05:16:56.612 +0000",1555391816.612031,-2.983575,1.441939,-0.098876,-0.020221,-0.991709,0.126900,0.000000,0.000000,0.000000,-1,-0.003508,0.007203,0.003346,-0.001111,-0.005376,0.001472
"2019-04-16 05:16:56.634 +0000",1555391816.634309,-2.983775,1.441985,-0.098517,-0.020188,-0.991715,0.126859,0.000000,0.000000,0.000000,-1,-0.003523,0.007189,-0.000375,0.001939,-0.005508,0.002383
"2019-04-16 05:16:56.657 +0000",1555391816.656617,-2.984112,1.441974,-0.098057,-0.020147,-0.991714,0.126876,0.000000,0.000000,0.000000,-1,0.000250,0.005970,0.002118,0.002646,-0.004517,0.003388
"2019-04-16 05:16:56.679 +0000",1555391816.678924,-2.984940,1.441966,-0.097160,-0.020044,-0.991713,0.126901,0.000000,0.000000,0.000000,-1,-0.004780,0.002268,-0.000333,0.003442,-0.007463,0.002264
"2019-04-16 05:16:56.701 +0000",1555391816.701232,-2.986160,1.441986,-0.095863,-0.019886,-0.991715,0.126906,0.000000,0.000000,0.000000,-1,0.006489,0.002254,-0.005291,0.003040,-0.004638,-0.000731
"2019-04-16 05:16:56.724 +0000",1555391816.723505,-2.986817,1.442048,-0.095144,-0.019793,-0.991723,0.126857,0.000000,0.000000,0.000000,-1,-0.003531,0.002264,-0.001574,-0.000242,-0.005591,-0.001873
"2019-04-16 05:16:56.746 +0000",1555391816.745805,-2.987788,1.442079,-0.094095,-0.019665,-0.991727,0.126847,0.000000,0.000000,0.000000,-1,-0.002271,0.002269,-0.000334,0.002179,-0.004473,0.002868
"2019-04-16 05:16:56.768 +0000",1555391816.768126,-2.987682,1.442141,-0.094203,-0.019669,-0.991735,0.126784,0.000000,0.000000,0.000000,-1,-0.003545,0.002190,0.002130,0.001572,-0.006312,0.000108
