timestamp,timeIntervalSince1970,attitude.roll,attitude.pitch,attitude.yaw,gravity.x,gravity.y,gravity.z,magneticField.x,magneticField.y,magneticField.z,magneticField.accuracy,rotationRate.x,rotationRate.y,rotationRate.z,userAcceleration.x,userAcceleration.y,userAcceleration.z
"2019-05-06 15:49:26.486 +0000",1557157766.485700,0.129142,0.497694,-0.064323,0.113160,-0.477401,-0.871369,0.000000,0.000000,0.000000,-1,-1.288815,-0.594503,-0.226527,-0.059510,-0.025193,-0.101242
"2019-05-06 15:49:26.506 +0000",1557157766.505597,0.115707,0.467935,-0.065075,0.103039,-0.451044,-0.886534,0.000000,0.000000,0.000000,-1,-1.626194,-0.702087,-0.210768,-0.034908,-0.046316,-0.118929
"2019-05-06 15:49:26.525 +0000",1557157766.525494,0.114600,0.435341,-0.068833,0.103683,-0.421720,-0.900779,0.000000,0.000000,0.000000,-1,-1.535787,0.501346,-0.520099,-0.038620,-0.022037,0.069175
"2019-05-06 15:49:26.545 +0000",1557157766.545392,0.130761,0.405519,-0.079723,0.119814,-0.394496,-0.911053,0.000000,0.000000,0.000000,-1,-1.357951,0.432576,-0.822123,0.006514,0.092463,0.124798
"2019-05-06 15:49:26.565 +0000",1557157766.565289,0.139352,0.376980,-0.097249,0.129148,-0.368114,-0.920767,0.000000,0.000000,0.000000,-1,-1.276026,-0.232698,-1.225942,0.076830,0.088817,0.013205
"2019-05-06 15:49:26.585 +0000",1557157766.585186,0.138972,0.345365,-0.125105,0.130345,-0.338540,-0.931880,0.000000,0.000000,0.000000,-1,-1.563208,-0.758129,-1.773216,0.050563,0.108132,0.017757
"2019-05-06 15:49:26.605 +0000",1557157766.605084,0.129938,0.305802,-0.159385,0.123561,-0.301058,-0.945567,0.000000,0.000000,0.000000,-1,-1.825979,-1.285816,-1.901574,-0.062770,0.082094,0.078349
"2019-05-06 15:49:26.625 +0000",1557157766.624981,0.109634,0.270790,-0.190924,0.105428,-0.267493,-0.957775,0.000000,0.000000,0.000000,-1,-1.192891,-1.660019,-1.492530,-0.164784,-0.108865,0.079662
"2019-05-06 15:49:26.645 +0000",1557157766.644877,0.090100,0.252942,-0.218160,0.087115,-0.250254,-0.964253,0.000000,0.000000,0.000000,-1,-0.350642,-0.652530,-1.293303,-0.204592,-0.172064,0.153752
"2019-05-06 15:49:26.665 +0000",1557157766.664776,0.096141,0.251006,-0.238727,0.092985,-0.248379,-0.964190,0.000000,0.000000,0.000000,-1,0.261992,0.624238,-0.626986,-0.413618,-0.126896,0.260927
"2019-05-06 15:49:26.685 +0000",1557157766.684672,0.106031,0.257214,-0.239591,0.102350,-0.254387,-0.961671,0.000000,0.000000,0.000000,-1,0.225396,-0.143227,0.646928,-0.531946,-0.131188,0.017015
"2019-05-06 15:49:26.705 +0000",1557157766.704569,0.087489,0.258833,-0.214392,0.084467,-0.255953,-0.962992,0.000000,0.000000,0.000000,-1,-0.253689,-0.665610,1.854576,-0.394525,-0.020216,-0.100729
"2019-05-06 15:49:26.724 +0000",1557157766.724467,0.067238,0.259093,-0.162036,0.064945,-0.256204,-0.964438,0.000000,0.000000,0.000000,-1,-0.026784,0.106419,3.016445,-0.070087,-0.186621,0.074439
"2019-05-06 15:49:26.744 +0000",1557157766.744364,0.055718,0.265179,-0.098252,0.053743,-0.262082,-0.963548,0.000000,0.000000,0.000000,-1,0.234723,0.238451,3.020160,-0.013918,-0.049243,0.070481
"2019-05-06 15:49:26.764 +0000",1557157766.764262,0.044398,0.274205,-0.049802,0.042725,-0.270782,-0.961692,0.000000,0.000000,0.000000,-1,0.445145,-0.013493,1.356855,0.259521,0.077117,0.038581
"2019-05-06 15:49:26.784 +0000",1557157766.784158,0.043773,0.282683,-0.048966,0.042022,-0.278933,-0.959391,0.000000,0.000000,0.000000,-1,0.377667,-0.196301,-1.059093,0.371049,0.125781,0.030298
"2019-05-06 15:49:26.804 +0000",1557157766.804056,0.046647,0.301452,-0.082114,0.044528,-0.296907,-0.953868,0.000000,0.000000,0.000000,-1,0.565657,-0.460327,-1.731152,0.032300,0.124696,0.063212
"2019-05-06 15:49:26.824 +0000",1557157766.823953,0.049446,0.312758,-0.117112,0.047028,-0.307684,-0.950326,0.000000,0.000000,0.000000,-1,0.734659,-0.321681,-1.572136,-0.098191,0.166815,0.095421
"2019-05-06 15:49:26.844 +0000",1557157766.843852,0.056933,0.330574,-0.147301,0.053821,-0.324586,-0.944324,0.000000,0.000000,0.000000,-1,0.541708,0.012325,-1.261073,-0.155475,0.115083,0.155353
"2019-05-06 15:49:26.864 +0000",1557157766.863748,0.060909,0.336662,-0.174684,0.057454,-0.330339,-0.942112,0.000000,0.000000,0.000000,-1,0.296729,-0.875728,-1.253742,-0.105351,0.162995,0.022068
"2019-05-06 15:49:26.884 +0000",1557157766.883646,0.044732,0.346342,-0.200489,0.042062,-0.339459,-0.939680,0.000000,0.000000,0.000000,-1,0.599819,-1.432615,-1.104977,-0.063790,0.268475,0.055570
"2019-05-06 15:49:26.904 +0000",1557157766.903543,0.020643,0.364953,-0.221223,0.019282,-0.356905,-0.933942,0.000000,0.000000,0.000000,-1,1.333076,-1.639865,-0.773271,-0.071329,0.238741,0.174863
"2019-05-06 15:49:26.923 +0000",1557157766.923441,-0.008384,0.397562,-0.233072,-0.007730,-0.387171,-0.921975,0.000000,0.000000,0.000000,-1,1.708997,-1.673864,-0.346178,-0.045752,0.274180,0.146020
"2019-05-06 15:49:26.943 +0000",1557157766.943337,-0.040975,0.433562,-0.237976,-0.037174,-0.420106,-0.906713,0.000000,0.000000,0.000000,-1,1.918054,-1.870217,-0.205452,0.004032,0.322984,0.128164
"2019-05-06 15:49:26.963 +0000",1557157766.963234,-0.079215,0.474282,-0.239184,-0.070398,-0.456700,-0.886831,0.000000,0.000000,0.000000,-1,2.052749,-1.983166,-0.221998,-0.005439,0.321065,0.109274
"2019-05-06 15:49:26.983 +0000",1557157766.983132,-0.118171,0.515527,-0.244374,-0.102574,-0.492993,-0.863966,0.000000,0.000000,0.000000,-1,2.066826,-2.224311,-0.610117,-0.005824,0.326062,0.024335
"2019-05-06 15:49:27.003 +0000",1557157767.003028,-0.165493,0.560215,-0.253611,-0.139557,-0.531368,-0.835567,0.000000,0.000000,0.000000,-1,2.310456,-3.072736,-0.831993,0.112411,0.327038,0.016154
"2019-05-06 15:49:27.023 +0000",1557157767.022927,-0.225081,0.610686,-0.265272,-0.182846,-0.573429,-0.798590,0.000000,0.000000,0.000000,-1,2.373121,-3.263017,-1.104028,0.135772,0.289600,0.006308
"2019-05-06 15:49:27.043 +0000",1557157767.042824,-0.269283,0.655813,-0.284116,-0.210851,-0.609803,-0.763991,0.000000,0.000000,0.000000,-1,1.529656,-2.332058,-1.526984,-0.007258,0.205644,-0.127535
"2019-05-06 15:49:27.063 +0000",1557157767.062722,-0.284680,0.678928,-0.323514,-0.218571,-0.627959,-0.746923,0.000000,0.000000,0.000000,-1,-0.187494,-1.641359,-2.053324,0.088124,0.104277,-0.375681
"2019-05-06 15:49:27.083 +0000",1557157767.082619,-0.273990,0.675556,-0.378984,-0.211146,-0.625332,-0.751251,0.000000,0.000000,0.000000,-1,-1.140151,-0.905483,-1.882916,0.199259,0.062664,-0.211823
"2019-05-06 15:49:27.103 +0000",1557157767.102518,-0.263215,0.660486,-0.424747,-0.205467,-0.613501,-0.762496,0.000000,0.000000,0.000000,-1,-1.155511,-0.933832,-1.173161,0.129494,0.053274,-0.217622
"2019-05-06 15:49:27.122 +0000",1557157767.122414,-0.265947,0.646051,-0.452528,-0.209856,-0.602038,-0.770397,0.000000,0.000000,0.000000,-1,-0.667159,-1.065139,-0.663307,0.156236,0.032061,-0.178364
"2019-05-06 15:49:27.142 +0000",1557157767.142312,-0.274501,0.642695,-0.471262,-0.216985,-0.599355,-0.770513,0.000000,0.000000,0.000000,-1,-0.048725,-0.890288,-0.775678,0.196645,0.051794,-0.139841
"2019-05-06 15:49:27.162 +0000",1557157767.162208,-0.274282,0.651969,-0.492482,-0.215301,-0.606753,-0.765178,0.000000,0.000000,0.000000,-1,0.616689,-0.447497,-1.081769,0.147201,0.198687,-0.089803
"2019-05-06 15:49:27.182 +0000",1557157767.182107,-0.266354,0.675229,-0.517660,-0.205457,-0.625076,-0.753039,0.000000,0.000000,0.000000,-1,1.042342,-0.305066,-1.513123,0.102628,0.239105,-0.168317
"2019-05-06 15:49:27.202 +0000",1557157767.202003,-0.241643,0.702636,-0.556444,-0.182618,-0.646232,-0.740969,0.000000,0.000000,0.000000,-1,1.022171,0.245014,-2.017469,0.182100,0.039344,-0.270536
"2019-05-06 15:49:27.222 +0000",1557157767.221900,-0.200852,0.730551,-0.603746,-0.148592,-0.667280,-0.729834,0.000000,0.000000,0.000000,-1,0.912244,0.659952,-1.978658,0.174135,-0.129976,-0.268213
"2019-05-06 15:49:27.242 +0000",1557157767.241797,-0.157199,0.750324,-0.645621,-0.114513,-0.681876,-0.722449,0.000000,0.000000,0.000000,-1,0.779700,0.820568,-1.304754,0.051510,-0.193689,-0.208215
"2019-05-06 15:49:27.262 +0000",1557157767.261696,-0.125526,0.765662,-0.663997,-0.090257,-0.693015,-0.715251,0.000000,0.000000,0.000000,-1,0.470540,1.083259,-0.204666,-0.095534,-0.307184,-0.187962
"2019-05-06 15:49:27.282 +0000",1557157767.281593,-0.104825,0.763111,-0.656923,-0.075617,-0.691173,-0.718722,0.000000,0.000000,0.000000,-1,-0.463775,1.415623,0.605808,0.001902,-0.350422,-0.210996
"2019-05-06 15:49:27.301 +0000",1557157767.301490,-0.085856,0.746440,-0.644506,-0.062950,-0.679030,-0.731407,0.000000,0.000000,0.000000,-1,-0.962368,1.354356,0.440922,0.072929,-0.090608,-0.122338
"2019-05-06 15:49:27.321 +0000",1557157767.321387,-0.066238,0.729943,-0.632890,-0.049325,-0.666827,-0.743578,0.000000,0.000000,0.000000,-1,-0.273093,1.233899,0.679926,0.007455,-0.258877,0.056215
"2019-05-06 15:49:27.341 +0000",1557157767.341285,-0.061402,0.730968,-0.611629,-0.045687,-0.667590,-0.743126,0.000000,0.000000,0.000000,-1,0.352960,0.673467,0.836510,0.009844,-0.374509,0.106972
"2019-05-06 15:49:27.361 +0000",1557157767.361183,-0.063682,0.736502,-0.589160,-0.047145,-0.671701,-0.739321,0.000000,0.000000,0.000000,-1,0.373344,0.695487,0.855969,-0.000340,-0.199302,0.060091
"2019-05-06 15:49:27.381 +0000",1557157767.381094,-0.059364,0.743650,-0.564783,-0.043666,-0.676979,-0.734706,0.000000,0.000000,0.000000,-1,0.550352,1.401487,0.904846,-0.044026,-0.109398,-0.008672
"2019-05-06 15:49:27.401 +0000",1557157767.400992,-0.042866,0.757874,-0.537959,-0.031124,-0.687379,-0.725632,0.000000,0.000000,0.000000,-1,1.017673,2.009874,1.003188,-0.043202,0.029328,0.001007
"2019-05-06 15:49:27.421 +0000",1557157767.420889,-0.023866,0.778292,-0.507774,-0.016994,-0.702064,-0.711911,0.000000,0.000000,0.000000,-1,1.069976,1.849989,1.136787,-0.047872,0.113655,-0.015064
"2019-05-06 15:49:27.441 +0000",1557157767.440786,-0.014238,0.797546,-0.474564,-0.009945,-0.715644,-0.698394,0.000000,0.000000,0.000000,-1,1.006555,1.488354,1.161308,0.011486,0.072090,0.052718
"2019-05-06 15:49:27.461 +0000",1557157767.460682,-0.013445,0.816590,-0.440651,-0.009205,-0.728815,-0.684649,0.000000,0.000000,0.000000,-1,0.936226,1.081953,1.181543,0.019612,0.025904,0.023165
"2019-05-06 15:49:27.481 +0000",1557157767.480580,-0.018110,0.829200,-0.407362,-0.012232,-0.737391,-0.675355,0.000000,0.000000,0.000000,-1,0.444432,0.914440,1.062944,0.040385,0.069530,-0.087447
"2019-05-06 15:49:27.500 +0000",1557157767.500478,-0.021095,0.835360,-0.378482,-0.014152,-0.741538,-0.670761,0.000000,0.000000,0.000000,-1,0.295579,0.911488,0.871807,-0.113091,0.057548,-0.055359
"2019-05-06 15:49:27.520 +0000",1557157767.520375,-0.021291,0.839643,-0.356621,-0.014216,-0.744405,-0.667578,0.000000,0.000000,0.000000,-1,0.261065,0.654108,0.608455,-0.112219,0.022572,-0.007761
"2019-05-06 15:49:27.540 +0000",1557157767.540272,-0.022463,0.842511,-0.342711,-0.014950,-0.746317,-0.665423,0.000000,0.000000,0.000000,-1,0.037419,0.297018,0.312147,-0.108311,-0.020376,0.010577
"2019-05-06 15:49:27.560 +0000",1557157767.560170,-0.017752,0.837563,-0.338050,-0.011880,-0.743014,-0.669170,0.000000,0.000000,0.000000,-1,-0.349855,0.476727,0.009965,-0.082160,-0.085035,0.104015
"2019-05-06 15:49:27.580 +0000",1557157767.580067,-0.005294,0.828241,-0.340281,-0.003580,-0.736743,-0.676164,0.000000,0.000000,0.000000,-1,-0.544050,0.589373,-0.113331,-0.085227,-0.028089,0.072892
"2019-05-06 15:49:27.600 +0000",1557157767.599965,0.007030,0.818320,-0.341858,0.004805,-0.729998,-0.683432,0.000000,0.000000,0.000000,-1,-0.310619,0.490792,0.058553,-0.029356,0.004367,0.013129
"2019-05-06 15:49:27.620 +0000",1557157767.619862,0.015190,0.816495,-0.336977,0.010401,-0.728750,-0.684701,0.000000,0.000000,0.000000,-1,0.079779,0.743654,0.250854,-0.004420,-0.014124,-0.054801
"2019-05-06 15:49:27.640 +0000",1557157767.639760,0.015271,0.829004,-0.321313,0.010317,-0.737259,-0.675531,0.000000,0.000000,0.000000,-1,0.104143,0.574883,0.486949,0.022795,-0.028305,-0.043387
"2019-05-06 15:49:27.660 +0000",1557157767.659656,-0.009755,0.840569,-0.288784,-0.006507,-0.745023,-0.667007,0.000000,0.000000,0.000000,-1,-0.038336,0.220427,0.710816,0.082023,-0.061892,0.003524
"2019-05-06 15:49:27.680 +0000",1557157767.679555,-0.024695,0.842741,-0.264984,-0.016431,-0.746470,-0.665217,0.000000,0.000000,0.000000,-1,0.232569,0.411571,0.500397,0.086865,-0.011068,0.052759
"2019-05-06 15:49:27.699 +0000",1557157767.699451,-0.022034,0.837283,-0.253052,-0.014750,-0.742827,-0.669321,0.000000,0.000000,0.000000,-1,0.143275,0.642263,0.403753,0.030833,0.055831,-0.097815
"2019-05-06 15:49:27.719 +0000",1557157767.719349,-0.014180,0.836438,-0.245073,-0.009502,-0.742261,-0.670044,0.000000,0.000000,0.000000,-1,0.147856,0.405916,0.411682,0.033702,0.026654,-0.038513
"2019-05-06 15:49:27.739 +0000",1557157767.739245,-0.006245,0.845608,-0.239919,-0.004142,-0.748375,-0.663263,0.000000,0.000000,0.000000,-1,0.406741,0.322388,0.520648,-0.008812,0.009758,-0.061590
"2019-05-06 15:49:27.759 +0000",1557157767.759144,0.002309,0.859531,-0.232524,0.001507,-0.757536,-0.652791,0.000000,0.000000,0.000000,-1,0.704114,0.604520,0.539501,-0.111767,0.057280,-0.118785
"2019-05-06 15:49:27.779 +0000",1557157767.779041,0.003828,0.867262,-0.216993,0.002476,-0.762560,-0.646912,0.000000,0.000000,0.000000,-1,0.843462,0.630319,0.543124,-0.130742,0.062533,-0.081374
"2019-05-06 15:49:27.799 +0000",1557157767.798938,0.004599,0.877144,-0.199728,0.002940,-0.768916,-0.639343,0.000000,0.000000,0.000000,-1,0.689599,0.550587,0.636864,-0.139003,0.080348,-0.026825
"2019-05-06 15:49:27.819 +0000",1557157767.818836,-0.001156,0.885248,-0.181681,-0.000732,-0.774072,-0.633097,0.000000,0.000000,0.000000,-1,0.650154,0.251835,0.489161,-0.162293,-0.077093,0.038233
"2019-05-06 15:49:27.839 +0000",1557157767.838734,-0.011495,0.892292,-0.167739,-0.007215,-0.778512,-0.627588,0.000000,0.000000,0.000000,-1,0.682946,0.225344,0.091261,-0.140414,0.012124,-0.026312
"2019-05-06 15:49:27.859 +0000",1557157767.858630,-0.010875,0.897143,-0.163941,-0.006784,-0.781548,-0.623808,0.000000,0.000000,0.000000,-1,0.476114,0.339724,-0.250599,-0.121420,-0.086220,0.035399
"2019-05-06 15:49:27.879 +0000",1557157767.878528,-0.005820,0.900641,-0.169025,-0.003615,-0.783725,-0.621097,0.000000,0.000000,0.000000,-1,0.384695,0.149461,-0.520036,-0.058046,-0.059613,0.094226
"2019-05-06 15:49:27.898 +0000",1557157767.898425,0.002831,0.907631,-0.180720,0.001743,-0.788047,-0.615612,0.000000,0.000000,0.000000,-1,0.418638,0.296913,-0.729763,-0.018879,0.036689,0.088177
"2019-05-06 15:49:27.918 +0000",1557157767.918323,0.022409,0.915204,-0.198992,0.013660,-0.792687,-0.609476,0.000000,0.000000,0.000000,-1,0.499383,0.431503,-0.726957,0.031765,-0.015861,0.111169
"2019-05-06 15:49:27.938 +0000",1557157767.938219,0.039080,0.926981,-0.214248,0.023452,-0.799811,-0.599793,0.000000,0.000000,0.000000,-1,0.567175,0.394399,-0.604096,0.076265,0.039435,0.094590
"2019-05-06 15:49:27.958 +0000",1557157767.958116,0.061137,0.939890,-0.230730,0.036041,-0.807493,-0.588775,0.000000,0.000000,0.000000,-1,0.848984,0.457539,-0.272411,0.123185,0.178022,0.039489
"2019-05-06 15:49:27.978 +0000",1557157767.978014,0.073713,0.960809,-0.237397,0.042189,-0.819656,-0.571301,0.000000,0.000000,0.000000,-1,1.249020,0.228822,-0.018192,0.120195,-0.036790,0.047528
"2019-05-06 15:49:27.998 +0000",1557157767.997912,0.077493,0.987946,-0.238709,0.042610,-0.834897,-0.548754,0.000000,0.000000,0.000000,-1,1.444188,0.071910,0.165146,0.121697,-0.029238,0.058931
"2019-05-06 15:49:28.018 +0000",1557157768.017810,0.074786,1.017534,-0.234752,0.039261,-0.850815,-0.523997,0.000000,0.000000,0.000000,-1,1.550234,-0.022817,0.348479,0.130829,0.108048,0.053355
"2019-05-06 15:49:28.038 +0000",1557157768.037706,0.064913,1.049916,-0.222588,0.032281,-0.867382,-0.496596,0.000000,0.000000,0.000000,-1,1.644208,0.079673,0.479966,0.148139,0.081752,0.082670
"2019-05-06 15:49:28.058 +0000",1557157768.057604,0.051718,1.084383,-0.206758,0.024165,-0.884015,-0.466833,0.000000,0.000000,0.000000,-1,1.787054,-0.036842,0.497778,0.143071,0.069455,0.107641
"2019-05-06 15:49:28.078 +0000",1557157768.077501,0.034782,1.121538,-0.187577,0.015103,-0.900769,-0.434035,0.000000,0.000000,0.000000,-1,1.882981,0.117819,0.503929,0.134449,0.059171,0.139678
"2019-05-06 15:49:28.097 +0000",1557157768.097398,0.022135,1.159781,-0.169609,0.008843,-0.916716,-0.399442,0.000000,0.000000,0.000000,-1,1.889724,0.185108,0.347570,0.113014,0.042830,0.171537
"2019-05-06 15:49:28.117 +0000",1557157768.117296,0.012046,1.196870,-0.154447,0.004400,-0.930900,-0.365247,0.000000,0.000000,0.000000,-1,1.842085,0.288620,0.315831,0.068034,0.031746,0.059110
"2019-05-06 15:49:28.137 +0000",1557157768.137194,-0.001085,1.232840,-0.134230,-0.000360,-0.943434,-0.331559,0.000000,0.000000,0.000000,-1,1.712102,0.174139,0.438797,0.081354,-0.110826,0.124116
"2019-05-06 15:49:28.157 +0000",1557157768.157091,-0.030884,1.263923,-0.102403,-0.009328,-0.953283,-0.301936,0.000000,0.000000,0.000000,-1,1.439017,-0.064007,0.499370,0.172048,-0.134837,0.125193
"2019-05-06 15:49:28.177 +0000",1557157768.176989,-0.071568,1.291669,-0.061787,-0.019701,-0.961296,-0.274812,0.000000,0.000000,0.000000,-1,1.437985,-0.102854,0.552957,0.203921,-0.120430,0.167604
"2019-05-06 15:49:28.197 +0000",1557157768.196885,-0.127715,1.320482,-0.002147,-0.031550,-0.968835,-0.245691,0.000000,0.000000,0.000000,-1,1.608556,0.364841,0.732869,0.291484,-0.024726,0.106622
"2019-05-06 15:49:28.217 +0000",1557157768.216783,-0.205240,1.351613,0.091908,-0.044313,-0.976075,-0.212869,0.000000,0.000000,0.000000,-1,1.857762,0.903900,0.942434,0.195085,-0.006224,0.136194
"2019-05-06 15:49:28.237 +0000",1557157768.236680,-0.327906,1.383671,0.236480,-0.059915,-0.982543,-0.176123,0.000000,0.000000,0.000000,-1,1.889932,1.147405,0.907057,0.081430,0.019927,0.294043
"2019-05-06 15:49:28.257 +0000",1557157768.256578,-0.437221,1.408508,0.370570,-0.068415,-0.986860,-0.146377,0.000000,0.000000,0.000000,-1,1.142440,1.005053,0.313441,-0.028127,-0.044039,0.224349
"2019-05-06 15:49:28.276 +0000",1557157768.276475,-0.455293,1.415470,0.400847,-0.068027,-0.987961,-0.138943,0.000000,0.000000,0.000000,-1,-0.306762,0.292162,-0.125243,-0.053449,-0.248169,0.055936
"2019-05-06 15:49:28.296 +0000",1557157768.296372,-0.373818,1.403617,0.324347,-0.060765,-0.986058,-0.154910,0.000000,0.000000,0.000000,-1,-1.092825,0.246096,-0.504226,-0.079158,-0.053538,0.024584
"2019-05-06 15:49:28.316 +0000",1557157768.316270,-0.296098,1.388259,0.240077,-0.052967,-0.983386,-0.173625,0.000000,0.000000,0.000000,-1,-0.592649,-0.825595,-0.352470,-0.039135,0.068622,-0.060323
"2019-05-06 15:49:28.336 +0000",1557157768.336167,-0.308281,1.380487,0.233114,-0.057396,-0.981946,-0.180245,0.000000,0.000000,0.000000,-1,-0.116148,-0.879047,0.656076,0.058037,0.414716,-0.248191
"2019-05-06 15:49:28.356 +0000",1557157768.356064,-0.408842,1.386285,0.316815,-0.072937,-0.983026,-0.168346,0.000000,0.000000,0.000000,-1,1.123459,-0.779965,0.496014,-0.175736,-0.360129,-0.331349
"2019-05-06 15:49:28.376 +0000",1557157768.375951,-0.518248,1.404764,0.418334,-0.081868,-0.986248,-0.143568,0.000000,0.000000,0.000000,-1,1.124637,-0.094136,0.249720,-0.146770,-0.381077,-0.219743
"2019-05-06 15:49:28.396 +0000",1557157768.395849,-0.575119,1.418113,0.479459,-0.082727,-0.988367,-0.127624,0.000000,0.000000,0.000000,-1,0.547974,0.260380,-0.053762,-0.088598,-0.154395,-0.080278
"2019-05-06 15:49:28.416 +0000",1557157768.415746,-0.603779,1.425877,0.508961,-0.081992,-0.989518,-0.118880,0.000000,0.000000,0.000000,-1,0.349866,-0.368302,0.062872,0.086462,0.192734,-0.038957
"2019-05-06 15:49:28.436 +0000",1557157768.435644,-0.666442,1.428939,0.554868,-0.087401,-0.989955,-0.111129,0.000000,0.000000,0.000000,-1,0.384710,-1.222065,0.254156,0.114104,0.341213,-0.044419
"2019-05-06 15:49:28.456 +0000",1557157768.455540,-0.769120,1.434975,0.630172,-0.094173,-0.990790,-0.097290,0.000000,0.000000,0.000000,-1,0.648393,-1.474979,0.123612,0.051250,0.298225,-0.086578
"2019-05-06 15:49:28.475 +0000",1557157768.475437,-0.887584,1.442786,0.720948,-0.099008,-0.991818,-0.080591,0.000000,0.000000,0.000000,-1,0.857331,-1.316496,-0.030684,-0.016669,0.199292,-0.056189
"2019-05-06 15:49:28.495 +0000",1557157768.495334,-0.978732,1.465592,0.793874,-0.087137,-0.994471,-0.058604,0.000000,0.000000,0.000000,-1,1.093889,-0.392473,-1.320869,-0.085867,0.479670,0.068507
"2019-05-06 15:49:28.515 +0000",1557157768.515232,-0.926521,1.503875,0.753263,-0.053466,-0.997762,-0.040164,0.000000,0.000000,0.000000,-1,0.732663,1.209246,-2.779297,-0.186097,0.186238,0.052996
"2019-05-06 15:49:28.535 +0000",1557157768.535129,-0.000328,1.536830,-0.149826,-0.000011,-0.999423,-0.033962,0.000000,0.000000,0.000000,-1,0.090545,0.503672,-2.242323,0.034237,1.122409,-0.302525
"2019-05-06 15:49:28.555 +0000",1557157768.555027,0.994126,1.530496,-1.135315,0.033774,-0.999188,-0.021967,0.000000,0.000000,0.000000,-1,1.135804,0.538144,-1.198793,-0.454917,0.099454,-0.004674
"2019-05-06 15:49:28.575 +0000",1557157768.574924,1.692674,1.515459,-1.822263,0.054901,-0.998469,0.006724,0.000000,0.000000,0.000000,-1,1.502116,0.625904,-1.039679,-0.382751,-0.346242,-0.076305
"2019-05-06 15:49:28.595 +0000",1557157768.594821,2.015584,1.484995,-2.132708,0.077358,-0.996321,0.036872,0.000000,0.000000,0.000000,-1,1.435748,0.771748,-1.275126,-0.098263,-0.522493,-0.113975
"2019-05-06 15:49:28.615 +0000",1557157768.614720,2.122646,1.449967,-2.222871,0.102644,-0.992709,0.063193,0.000000,0.000000,0.000000,-1,1.088038,0.949816,-1.274934,0.145922,-0.715024,-0.019431
"2019-05-06 15:49:28.635 +0000",1557157768.634616,2.198684,1.421952,-2.277666,0.120012,-0.988943,0.087114,0.000000,0.000000,0.000000,-1,1.096743,1.060045,-0.559788,0.270217,-0.467646,-0.086901
"2019-05-06 15:49:28.655 +0000",1557157768.654515,2.265831,1.412301,-2.336272,0.121220,-0.987466,0.101078,0.000000,0.000000,0.000000,-1,0.003037,-0.249057,0.216280,0.247096,-0.263175,-0.022877
"2019-05-06 15:49:28.674 +0000",1557157768.674411,2.232482,1.419905,-2.311006,0.118595,-0.988637,0.092363,0.000000,0.000000,0.000000,-1,-0.502673,-0.325186,0.201238,0.005032,-0.072596,0.117293
"2019-05-06 15:49:28.694 +0000",1557157768.694309,2.202143,1.429107,-2.287281,0.113994,-0.989979,0.083350,0.000000,0.000000,0.000000,-1,-0.362218,-0.360184,0.334527,0.103978,0.069508,0.001748
"2019-05-06 15:49:28.714 +0000",1557157768.714207,2.178999,1.439262,-2.269436,0.107637,-0.991362,0.074942,0.000000,0.000000,0.000000,-1,-0.442499,-0.184820,0.334435,0.114393,0.214812,0.055063
"2019-05-06 15:49:28.734 +0000",1557157768.734103,2.141464,1.449588,-2.233864,0.101752,-0.992663,0.065316,0.000000,0.000000,0.000000,-1,-0.487104,-0.101614,0.296338,0.074594,0.310840,0.048042
"2019-05-06 15:49:28.754 +0000",1557157768.754001,2.096706,1.458534,-2.192711,0.096889,-0.993705,0.056238,0.000000,0.000000,0.000000,-1,-0.424120,-0.128385,0.178222,0.048176,0.192314,0.027197
"2019-05-06 15:49:28.774 +0000",1557157768.773898,2.036556,1.461817,-2.135007,0.097178,-0.994068,0.048846,0.000000,0.000000,0.000000,-1,-0.275208,-0.184400,-0.206583,0.119176,0.323978,0.075788
"2019-05-06 15:49:28.794 +0000",1557157768.793796,1.961542,1.455544,-2.061333,0.106328,-0.993366,0.043799,0.000000,0.000000,0.000000,-1,-0.201994,0.109007,-0.726622,0.130091,0.367176,0.095345
"2019-05-06 15:49:28.814 +0000",1557157768.813693,1.899368,1.442127,-1.992221,0.121450,-0.991733,0.041406,0.000000,0.000000,0.000000,-1,-0.132338,0.493412,-0.808930,0.127711,0.140781,0.063925
"2019-05-06 15:49:28.834 +0000",1557157768.833591,1.858280,1.425830,-1.941229,0.138529,-0.989511,0.040960,0.000000,0.000000,0.000000,-1,-0.002619,0.366996,-0.875831,0.148183,0.086389,0.000178
"2019-05-06 15:49:28.853 +0000",1557157768.853488,1.846154,1.412590,-1.927416,0.151612,-0.987511,0.042836,0.000000,0.000000,0.000000,-1,0.078041,0.207408,-0.389661,0.142547,-0.018928,-0.044606
"2019-05-06 15:49:28.873 +0000",1557157768.873385,1.854358,1.411262,-1.930557,0.152515,-0.987301,0.044445,0.000000,0.000000,0.000000,-1,-0.079216,0.262970,0.075356,0.134854,-0.054081,0.097614
"2019-05-06 15:49:28.893 +0000",1557157768.893283,1.838275,1.414817,-1.910662,0.149825,-0.987860,0.041059,0.000000,0.000000,0.000000,-1,-0.312474,0.163340,0.268907,0.091982,0.065024,0.060504
"2019-05-06 15:49:28.913 +0000",1557157768.913180,1.796272,1.424785,-1.868269,0.141811,-0.989359,0.032528,0.000000,0.000000,0.000000,-1,-0.473784,-0.188099,0.556805,0.111088,0.004954,0.162311
"2019-05-06 15:49:28.933 +0000",1557157768.933077,1.746774,1.441568,-1.821684,0.126879,-0.991662,0.022561,0.000000,0.000000,0.000000,-1,-0.414820,-0.022025,1.135360,0.076887,0.124367,0.074164
"2019-05-06 15:49:28.953 +0000",1557157768.952976,1.686812,1.470103,-1.762622,0.099847,-0.994935,0.011636,0.000000,0.000000,0.000000,-1,-0.690866,-0.212260,1.528811,0.115348,-0.746612,0.207358
"2019-05-06 15:49:28.973 +0000",1557157768.972872,1.528498,1.504588,-1.605357,0.066102,-0.997809,-0.002798,0.000000,0.000000,0.000000,-1,-0.701684,0.104523,1.795854,0.194915,-0.253610,0.199728
"2019-05-06 15:49:28.993 +0000",1557157768.992769,1.111161,1.536516,-1.184027,0.030718,-0.999412,-0.015205,0.000000,0.000000,0.000000,-1,-0.553985,0.213141,1.710565,0.240034,-0.279610,0.198997
"2019-05-06 15:49:29.013 +0000",1557157769.012667,0.027681,1.548479,-0.096423,0.000618,-0.999751,-0.022303,0.000000,0.000000,0.000000,-1,-0.160068,0.297570,1.381746,0.261544,-0.380040,0.110255
"2019-05-06 15:49:29.033 +0000",1557157769.032563,-0.920920,1.540064,0.871954,-0.024465,-0.999528,-0.018594,0.000000,0.000000,0.000000,-1,0.455466,1.307958,1.172692,0.169485,-0.359588,0.055200
"2019-05-06 15:49:29.052 +0000",1557157769.052462,-1.268001,1.523495,1.233330,-0.045132,-0.998882,-0.014099,0.000000,0.000000,0.000000,-1,0.314223,0.138481,0.866828,0.166043,-0.467305,0.067444
"2019-05-06 15:49:29.072 +0000",1557157769.072360,-1.542317,1.511199,1.512131,-0.059537,-0.998225,-0.001696,0.000000,0.000000,0.000000,-1,0.943267,0.394790,0.552077,0.086561,-0.275854,0.010989
"2019-05-06 15:49:29.092 +0000",1557157769.092256,-1.880804,1.499867,1.860786,-0.067492,-0.997486,0.021620,0.000000,0.000000,0.000000,-1,1.438893,0.524503,0.267124,-0.039030,-0.165982,-0.040861
"2019-05-06 15:49:29.112 +0000",1557157769.112153,-2.211326,1.481979,2.202324,-0.071120,-0.996058,0.053010,0.000000,0.000000,0.000000,-1,1.780102,0.411170,0.045120,-0.154680,-0.063710,0.016021
"2019-05-06 15:49:29.132 +0000",1557157769.132052,-2.512954,1.458241,2.506468,-0.066049,-0.993672,0.090847,0.000000,0.000000,0.000000,-1,1.983410,-0.297181,-0.554311,-0.327475,-0.050761,0.013889
"2019-05-06 15:49:29.152 +0000",1557157769.151918,-2.756181,1.432603,2.742576,-0.051787,-0.990467,0.127649,0.000000,0.000000,0.000000,-1,1.664343,-0.610655,-0.782138,-0.248445,-0.020947,0.092887
"2019-05-06 15:49:29.172 +0000",1557157769.171815,-2.948910,1.405587,2.922845,-0.031493,-0.986384,0.161416,0.000000,0.000000,0.000000,-1,1.704866,-0.688356,-1.058881,-0.055528,-0.035146,0.031349
"2019-05-06 15:49:29.192 +0000",1557157769.191712,-3.099755,1.375234,3.065077,-0.008128,-0.980939,0.194148,0.000000,0.000000,0.000000,-1,1.603694,-0.343397,-1.117295,0.140391,-0.180881,0.026143
"2019-05-06 15:49:29.212 +0000",1557157769.211610,3.077209,1.343656,-3.108780,0.014489,-0.974314,0.224725,0.000000,0.000000,0.000000,-1,1.623640,0.450006,-1.196528,0.275489,-0.377080,0.012717
"2019-05-06 15:49:29.232 +0000",1557157769.231507,3.022404,1.309287,-3.034832,0.030742,-0.966001,0.256705,0.000000,0.000000,0.000000,-1,1.509881,1.097872,-0.836927,0.251454,-0.135150,-0.055060
"2019-05-06 15:49:29.251 +0000",1557157769.251404,3.011429,1.281360,-2.997727,0.037045,-0.958405,0.282999,0.000000,0.000000,0.000000,-1,1.160774,1.315674,-0.559503,0.124988,0.289200,-0.095514
"2019-05-06 15:49:29.271 +0000",1557157769.271301,3.011387,1.259895,-2.971992,0.039720,-0.952058,0.303328,0.000000,0.000000,0.000000,-1,0.909744,1.114770,-0.519093,0.034530,0.282411,-0.143217
"2019-05-06 15:49:29.291 +0000",1557157769.291200,3.005306,1.240742,-2.946243,0.044033,-0.946025,0.321088,0.000000,0.000000,0.000000,-1,0.922055,0.725414,-0.504406,-0.007381,0.307506,-0.086576
"2019-05-06 15:49:29.311 +0000",1557157769.311096,3.000256,1.219540,-2.927845,0.048469,-0.938941,0.340647,0.000000,0.000000,0.000000,-1,1.092018,0.596391,-0.434884,-0.000297,0.339011,-0.033030
"2019-05-06 15:49:29.331 +0000",1557157769.330994,3.002043,1.196225,-2.914600,0.050892,-0.930665,0.362317,0.000000,0.000000,0.000000,-1,1.136028,0.859215,-0.354527,-0.007679,0.267045,-0.056409
"2019-05-06 15:49:29.351 +0000",1557157769.350891,3.012341,1.174252,-2.904876,0.049782,-0.922401,0.383011,0.000000,0.000000,0.000000,-1,0.961298,1.036759,-0.323535,0.022910,0.342323,-0.165024
"2019-05-06 15:49:29.371 +0000",1557157769.370777,3.020884,1.158281,-2.892194,0.048277,-0.916115,0.397998,0.000000,0.000000,0.000000,-1,0.551105,0.947830,-0.381410,0.019427,0.387688,-0.256839
"2019-05-06 15:49:29.391 +0000",1557157769.390673,3.020841,1.150634,-2.874630,0.049136,-0.913023,0.404938,0.000000,0.000000,0.000000,-1,0.138030,0.649189,-0.403645,-0.034091,0.377592,-0.233780
"2019-05-06 15:49:29.411 +0000",1557157769.410571,3.014532,1.150316,-2.856213,0.051726,-0.912893,0.404909,0.000000,0.000000,0.000000,-1,-0.187137,0.442749,-0.339410,-0.075057,0.364935,-0.126695
"2019-05-06 15:49:29.430 +0000",1557157769.430469,3.008567,1.155791,-2.840327,0.053477,-0.915114,0.399633,0.000000,0.000000,0.000000,-1,-0.426036,0.428199,-0.224221,-0.085994,0.342299,-0.039724
"2019-05-06 15:49:29.450 +0000",1557157769.450366,3.007714,1.165379,-2.829806,0.052645,-0.918938,0.390873,0.000000,0.000000,0.000000,-1,-0.582179,0.486971,-0.062206,-0.050005,0.278130,0.028103
"2019-05-06 15:49:29.470 +0000",1557157769.470263,3.014578,1.178024,-2.825974,0.048484,-0.923852,0.379667,0.000000,0.000000,0.000000,-1,-0.651705,0.514812,0.068685,0.032357,0.092309,0.115404
"2019-05-06 15:49:29.490 +0000",1557157769.490161,3.025105,1.189278,-2.827070,0.043274,-0.928100,0.369807,0.000000,0.000000,0.000000,-1,-0.441674,0.464730,0.080699,0.134873,-0.195847,0.190801
"2019-05-06 15:49:29.510 +0000",1557157769.510058,3.030347,1.194949,-2.823382,0.040750,-0.930197,0.364792,0.000000,0.000000,0.000000,-1,-0.075045,0.413087,-0.148622,0.168097,-0.491327,0.349487
"2019-05-06 15:49:29.530 +0000",1557157769.529955,3.021213,1.191292,-2.806686,0.044488,-0.928848,0.367779,0.000000,0.000000,0.000000,-1,0.352765,0.173377,-0.507594,0.115866,-0.472443,0.466129
"2019-05-06 15:49:29.550 +0000",1557157769.549852,2.990615,1.180172,-2.773448,0.057269,-0.924672,0.376434,0.000000,0.000000,0.000000,-1,0.568819,-0.072864,-0.880649,0.110684,-0.288082,0.521134
"2019-05-06 15:49:29.570 +0000",1557157769.569750,2.954185,1.162921,-2.732046,0.073903,-0.917966,0.389714,0.000000,0.000000,0.000000,-1,0.884705,0.326233,-0.962430,-0.025151,-0.040820,0.481700
"2019-05-06 15:49:29.590 +0000",1557157769.589647,2.936955,1.141595,-2.700021,0.084566,-0.909298,0.407462,0.000000,0.000000,0.000000,-1,0.744871,0.756105,-0.709830,-0.080385,-0.178638,0.191980
"2019-05-06 15:49:29.610 +0000",1557157769.609544,2.920363,1.140874,-2.675734,0.091458,-0.908998,0.406642,0.000000,0.000000,0.000000,-1,-1.013111,-0.329058,-0.194075,0.087543,-0.912016,-0.494624
"2019-05-06 15:49:29.629 +0000",1557157769.629442,2.889427,1.168802,-2.653307,0.097619,-0.920283,0.378881,0.000000,0.000000,0.000000,-1,-1.621150,-0.770781,-0.151823,-0.021478,-0.590444,-0.556264
"2019-05-06 15:49:29.649 +0000",1557157769.649339,2.845902,1.193183,-2.628094,0.107440,-0.929547,0.352701,0.000000,0.000000,0.000000,-1,-0.824055,-1.176742,-0.111398,-0.282794,0.029691,-0.068323
"2019-05-06 15:49:29.669 +0000",1557157769.669237,2.812702,1.198678,-2.616436,0.117437,-0.931559,0.344102,0.000000,0.000000,0.000000,-1,-0.008067,-0.958242,-0.140306,-0.285742,0.229762,-0.072419
"2019-05-06 15:49:29.689 +0000",1557157769.689134,2.796893,1.198101,-2.613290,0.123044,-0.931349,0.342708,0.000000,0.000000,0.000000,-1,-0.066858,-0.308043,0.082841,-0.180752,0.394911,-0.263713
"2019-05-06 15:49:29.709 +0000",1557157769.709032,2.805519,1.207242,-2.624826,0.117270,-0.934639,0.335705,0.000000,0.000000,0.000000,-1,-0.719918,0.014311,0.690832,-0.090293,0.641243,-0.372143
"2019-05-06 15:49:29.729 +0000",1557157769.728929,2.848261,1.232159,-2.668386,0.096054,-0.943208,0.318012,0.000000,0.000000,0.000000,-1,-1.109312,0.193309,1.394019,0.053421,0.337831,-0.383472
"2019-05-06 15:49:29.749 +0000",1557157769.748825,2.902244,1.263641,-2.722095,0.071678,-0.953197,0.293729,0.000000,0.000000,0.000000,-1,-1.530522,0.007840,0.955010,0.329934,-0.486546,-0.307706
"2019-05-06 15:49:29.769 +0000",1557157769.768723,2.919239,1.297467,-2.744120,0.059529,-0.962878,0.263293,0.000000,0.000000,0.000000,-1,-1.485968,-0.371949,0.462520,0.243252,-0.262998,-0.150333
"2019-05-06 15:49:29.789 +0000",1557157769.788621,2.910025,1.322257,-2.743550,0.056455,-0.969273,0.239423,0.000000,0.000000,0.000000,-1,-0.959371,-0.469995,0.127953,0.144534,0.170277,0.087161
"2019-05-06 15:49:29.809 +0000",1557157769.808518,2.890846,1.339762,-2.731575,0.056817,-0.973430,0.221823,0.000000,0.000000,0.000000,-1,-0.891995,-0.269464,0.053414,-0.006448,0.366557,0.047082
"2019-05-06 15:49:29.828 +0000",1557157769.828416,2.871509,1.358955,-2.715161,0.056100,-0.977645,0.202638,0.000000,0.000000,0.000000,-1,-1.161174,-0.012678,0.101447,-0.029427,0.260482,-0.105348
"2019-05-06 15:49:29.848 +0000",1557157769.848313,2.843141,1.385588,-2.685132,0.054148,-0.982898,0.176010,0.000000,0.000000,0.000000,-1,-1.498383,0.042454,0.082681,-0.015177,0.020618,-0.206589
"2019-05-06 15:49:29.868 +0000",1557157769.868210,2.810673,1.415028,-2.652155,0.050407,-0.987893,0.146722,0.000000,0.000000,0.000000,-1,-1.400094,-0.061537,0.381581,-0.059211,0.010262,-0.133889
"2019-05-06 15:49:29.888 +0000",1557157769.888108,2.844211,1.442902,-2.690089,0.037373,-0.991833,0.121948,0.000000,0.000000,0.000000,-1,-1.097226,-0.316005,0.992395,-0.121434,0.147961,0.016846
"2019-05-06 15:49:29.908 +0000",1557157769.908005,2.995810,1.468350,-2.849591,0.014856,-0.994757,0.101184,0.000000,0.000000,0.000000,-1,-1.025118,-0.368354,1.296277,-0.153421,0.207968,-0.009936
"2019-05-06 15:49:29.928 +0000",1557157769.927903,-3.013977,1.489653,-3.133457,-0.010316,-0.996710,0.080394,0.000000,0.000000,0.000000,-1,-1.069364,-0.573010,1.303621,-0.013793,0.146414,-0.065013
"2019-05-06 15:49:29.948 +0000",1557157769.947799,-2.612750,1.503057,2.733611,-0.034151,-0.997707,0.058442,0.000000,0.000000,0.000000,-1,-1.140562,-0.778834,1.228228,0.065569,0.113032,-0.066544
"2019-05-06 15:49:29.968 +0000",1557157769.967698,-2.149918,1.501701,2.253809,-0.057781,-0.997614,0.037784,0.000000,0.000000,0.000000,-1,-0.972122,-0.842031,1.213041,-0.029133,0.090235,0.039548
"2019-05-06 15:49:29.988 +0000",1557157769.987594,-1.861524,1.487626,1.945856,-0.079588,-0.996543,0.023813,0.000000,0.000000,0.000000,-1,-0.533671,-1.046585,0.999744,0.066572,0.004356,0.188757
"2019-05-06 15:49:30.007 +0000",1557157770.007491,-1.768325,1.473132,1.830551,-0.095613,-0.995235,0.019136,0.000000,0.000000,0.000000,-1,-0.181610,-1.081135,0.650317,0.184206,-0.166341,0.220976
"2019-05-06 15:49:30.027 +0000",1557157770.027389,-1.741476,1.465472,1.782592,-0.103601,-0.994458,0.017856,0.000000,0.000000,0.000000,-1,-0.175312,-1.026846,0.218804,0.352701,-0.209002,0.151058
"2019-05-06 15:49:30.047 +0000",1557157770.047286,-1.727942,1.464586,1.749530,-0.104704,-0.994365,0.016591,0.000000,0.000000,0.000000,-1,-0.126223,-0.896460,-0.026063,0.476179,-0.176945,0.117290
"2019-05-06 15:49:30.067 +0000",1557157770.067183,-1.730489,1.465376,1.736691,-0.103886,-0.994448,0.016732,0.000000,0.000000,0.000000,-1,-0.023251,-0.642864,0.032469,0.474384,-0.133283,0.117148
"2019-05-06 15:49:30.087 +0000",1557157770.087081,-1.731889,1.464641,1.727076,-0.104584,-0.994371,0.016995,0.000000,0.000000,0.000000,-1,-0.053931,-0.380272,-0.006839,0.383087,-0.155867,0.143741
"2019-05-06 15:49:30.107 +0000",1557157770.106981,-1.741747,1.468192,1.733578,-0.100931,-0.994741,0.017424,0.000000,0.000000,0.000000,-1,0.086992,0.006057,-0.350693,0.382136,-0.348033,0.249574
"2019-05-06 15:49:30.127 +0000",1557157770.126876,-1.792832,1.478265,1.787937,-0.090131,-0.995722,0.020348,0.000000,0.000000,0.000000,-1,0.247352,0.366784,-0.740333,0.371579,-0.483221,0.046593
"2019-05-06 15:49:30.147 +0000",1557157770.146775,-1.936997,1.493981,1.943450,-0.071652,-0.997051,0.027479,0.000000,0.000000,0.000000,-1,0.623305,0.633305,-1.086776,0.254315,-0.428288,-0.091687
"2019-05-06 15:49:30.167 +0000",1557157770.166672,-2.309485,1.504535,2.329435,-0.048955,-0.997805,0.044582,0.000000,0.000000,0.000000,-1,1.181867,0.626268,-1.205930,-0.030681,-0.325238,-0.079556
"2019-05-06 15:49:30.187 +0000",1557157770.186568,-2.811317,1.493747,2.845442,-0.024963,-0.997033,0.072814,0.000000,0.000000,0.000000,-1,1.718148,0.706620,-1.244097,-0.283432,-0.177848,-0.096008
"2019-05-06 15:49:30.206 +0000",1557157770.206465,-3.112845,1.459869,-3.119705,-0.003182,-0.993854,0.110656,0.000000,0.000000,0.000000,-1,2.034552,0.768106,-1.049081,-0.433418,-0.163663,-0.100646
"2019-05-06 15:49:30.226 +0000",1557157770.226364,3.053371,1.421355,-2.990014,0.013118,-0.988854,0.148307,0.000000,0.000000,0.000000,-1,1.730237,0.274326,-0.752879,-0.503886,-0.315253,-0.243949
"2019-05-06 15:49:30.246 +0000",1557157770.246260,2.983644,1.387896,-2.925118,0.028609,-0.983320,0.179617,0.000000,0.000000,0.000000,-1,1.494811,-0.835898,-0.786840,-0.462340,-0.435274,-0.153342
"2019-05-06 15:49:30.266 +0000",1557157770.266157,2.901815,1.356855,-2.865899,0.050421,-0.977202,0.206238,0.000000,0.000000,0.000000,-1,1.449475,-1.471089,-0.959757,-0.392081,-0.430818,-0.017212
"2019-05-06 15:49:30.286 +0000",1557157770.286055,2.825155,1.319692,-2.813806,0.077321,-0.968639,0.236137,0.000000,0.000000,0.000000,-1,1.799599,-0.948388,-1.205182,-0.224294,-0.427464,0.012123
"2019-05-06 15:49:30.306 +0000",1557157770.305952,2.776464,1.277361,-2.766981,0.103280,-0.957256,0.270175,0.000000,0.000000,0.000000,-1,1.743677,0.753897,-1.479449,0.093437,-0.229298,0.103559
"2019-05-06 15:49:30.326 +0000",1557157770.325850,2.763069,1.233451,-2.720562,0.122314,-0.943637,0.307553,0.000000,0.000000,0.000000,-1,1.754217,1.971754,-1.404223,0.013276,-0.116956,-0.083462
"2019-05-06 15:49:30.346 +0000",1557157770.345746,2.775132,1.199683,-2.688726,0.129943,-0.931924,0.338573,0.000000,0.000000,0.000000,-1,1.033972,2.077445,-0.858716,0.083848,0.577798,-0.253368
"2019-05-06 15:49:30.366 +0000",1557157770.365644,2.795588,1.180540,-2.671312,0.129019,-0.924811,0.357880,0.000000,0.000000,0.000000,-1,0.632130,1.585265,-0.443664,0.058329,0.671455,-0.258408
"2019-05-06 15:49:30.386 +0000",1557157770.385524,2.814418,1.166487,-2.662964,0.126421,-0.919374,0.372517,0.000000,0.000000,0.000000,-1,0.655357,1.099042,-0.356963,-0.087176,0.585344,-0.146504
"2019-05-06 15:49:30.405 +0000",1557157770.405423,2.827076,1.150376,-2.657866,0.126262,-0.912917,0.388123,0.000000,0.000000,0.000000,-1,0.824563,0.688146,-0.331955,-0.183574,0.414840,-0.106904
"2019-05-06 15:49:30.425 +0000",1557157770.425319,2.840960,1.131913,-2.659585,0.125832,-0.905227,0.405871,0.000000,0.000000,0.000000,-1,0.951632,0.583334,-0.124820,-0.191536,0.357573,-0.110384
"2019-05-06 15:49:30.445 +0000",1557157770.445216,2.862301,1.115729,-2.671653,0.121165,-0.898232,0.422491,0.000000,0.000000,0.000000,-1,0.693645,0.467350,0.162709,-0.215892,0.390022,-0.186285
"2019-05-06 15:49:30.465 +0000",1557157770.465114,2.885286,1.109117,-2.687873,0.112927,-0.895306,0.430901,0.000000,0.000000,0.000000,-1,0.130249,0.383240,0.332281,-0.161678,0.440655,-0.243507
"2019-05-06 15:49:30.485 +0000",1557157770.485011,2.902491,1.114280,-2.700589,0.104400,-0.897594,0.428282,0.000000,0.000000,0.000000,-1,-0.483941,0.185689,0.321605,-0.053985,0.431651,-0.226775
"2019-05-06 15:49:30.505 +0000",1557157770.504909,2.908912,1.129733,-2.705420,0.098438,-0.904298,0.415398,0.000000,0.000000,0.000000,-1,-0.913238,0.087585,0.238909,0.049313,0.376207,-0.087822
"2019-05-06 15:49:30.525 +0000",1557157770.524805,2.910302,1.149837,-2.702724,0.093673,-0.912697,0.397755,0.000000,0.000000,0.000000,-1,-1.010464,0.350617,0.119641,0.148987,0.238243,0.004528
"2019-05-06 15:49:30.545 +0000",1557157770.544703,2.914949,1.169246,-2.695430,0.087826,-0.920456,0.380850,0.000000,0.000000,0.000000,-1,-0.942794,0.757421,0.047982,0.184757,0.031372,0.118067
"2019-05-06 15:49:30.565 +0000",1557157770.564600,2.920630,1.185063,-2.684640,0.082460,-0.926523,0.367091,0.000000,0.000000,0.000000,-1,-0.644703,0.813443,-0.154425,0.131682,-0.179648,0.288274
"2019-05-06 15:49:30.584 +0000",1557157770.584498,2.911305,1.190808,-2.658028,0.084663,-0.928669,0.361119,0.000000,0.000000,0.000000,-1,-0.072169,0.631649,-0.677868,0.252678,-0.504330,0.442669
"2019-05-06 15:49:30.604 +0000",1557157770.604395,2.883513,1.182736,-2.620195,0.096575,-0.925645,0.365861,0.000000,0.000000,0.000000,-1,0.446908,0.134949,-0.853405,0.062879,-0.592589,0.508009
"2019-05-06 15:49:30.624 +0000",1557157770.624292,2.851639,1.167917,-2.583786,0.112095,-0.919936,0.375703,0.000000,0.000000,0.000000,-1,0.580550,0.121355,-0.860487,-0.006291,-0.449540,0.548614
"2019-05-06 15:49:30.644 +0000",1557157770.644190,2.834523,1.153256,-2.558490,0.122573,-0.914089,0.386545,0.000000,0.000000,0.000000,-1,0.511744,0.526819,-0.473233,-0.199981,0.163143,0.425162
"2019-05-06 15:49:30.664 +0000",1557157770.664088,2.846320,1.141420,-2.556704,0.121144,-0.909226,0.398287,0.000000,0.000000,0.000000,-1,0.560125,0.800582,0.014021,-0.361852,0.373841,0.111784
"2019-05-06 15:49:30.684 +0000",1557157770.683985,2.867650,1.138446,-2.566038,0.113354,-0.907983,0.403383,0.000000,0.000000,0.000000,-1,-0.259321,0.275480,0.326056,-0.205486,0.032526,-0.196183
"2019-05-06 15:49:30.704 +0000",1557157770.703882,2.877155,1.159048,-2.587833,0.104602,-0.916423,0.386300,0.000000,0.000000,0.000000,-1,-1.574494,-1.477335,1.107918,-0.176578,-0.442190,-0.471795
"2019-05-06 15:49:30.724 +0000",1557157770.723779,2.843523,1.192433,-2.582906,0.108484,-0.929270,0.353112,0.000000,0.000000,0.000000,-1,-1.361386,-0.921596,-0.504206,0.170416,-1.616872,-0.413369
"2019-05-06 15:49:30.744 +0000",1557157770.743677,2.782915,1.200375,-2.529032,0.127078,-0.932175,0.338970,0.000000,0.000000,0.000000,-1,-0.022574,-0.531760,-0.712909,-0.088916,-0.727127,0.193866
"2019-05-06 15:49:30.764 +0000",1557157770.763574,2.761010,1.191531,-2.520206,0.137529,-0.928937,0.343747,0.000000,0.000000,0.000000,-1,0.487566,-0.492386,-0.047842,-0.098207,0.523053,-0.207913
"2019-05-06 15:49:30.783 +0000",1557157770.783471,2.765169,1.188624,-2.528884,0.137091,-0.927857,0.346826,0.000000,0.000000,0.000000,-1,-0.258571,-0.178260,0.248640,-0.127249,0.650620,-0.519937
"2019-05-06 15:49:30.803 +0000",1557157770.803369,2.778269,1.210707,-2.551709,0.125222,-0.935865,0.329356,0.000000,0.000000,0.000000,-1,-1.335397,-0.603004,1.538463,-0.209710,1.042219,-0.740458
"2019-05-06 15:49:30.823 +0000",1557157770.823265,2.820853,1.247716,-2.610083,0.100094,-0.948262,0.301298,0.000000,0.000000,0.000000,-1,-1.520964,-0.384379,1.225575,0.042209,-0.064708,-0.364973
"2019-05-06 15:49:30.843 +0000",1557157770.843164,2.835252,1.285352,-2.631934,0.084918,-0.959537,0.268475,0.000000,0.000000,0.000000,-1,-1.789458,-0.448086,0.646704,0.232450,-0.671628,-0.204296
"2019-05-06 15:49:30.863 +0000",1557157770.863060,2.830467,1.319419,-2.638303,0.076146,-0.968571,0.236796,0.000000,0.000000,0.000000,-1,-1.303515,-0.654449,0.593464,0.030314,0.068012,-0.008586
"2019-05-06 15:49:30.883 +0000",1557157770.882958,2.841187,1.343002,-2.663123,0.066825,-0.974167,0.215716,0.000000,0.000000,0.000000,-1,-0.900344,-0.610360,0.657759,-0.162223,0.461166,0.049741
"2019-05-06 15:49:30.903 +0000",1557157770.902855,2.849972,1.364997,-2.682707,0.058752,-0.978898,0.195722,0.000000,0.000000,0.000000,-1,-1.159021,-0.516790,0.338921,-0.134756,0.223435,-0.148771
"2019-05-06 15:49:30.923 +0000",1557157770.922753,2.807989,1.392056,-2.652688,0.058218,-0.984068,0.167989,0.000000,0.000000,0.000000,-1,-1.544072,-0.661205,0.067271,-0.010320,-0.068056,-0.258122
"2019-05-06 15:49:30.943 +0000",1557157770.942650,2.761138,1.420551,-2.617557,0.055582,-0.988734,0.138977,0.000000,0.000000,0.000000,-1,-1.236301,-0.624400,0.443181,-0.095271,0.060023,-0.111267
"2019-05-06 15:49:30.963 +0000",1557157770.962548,2.773544,1.444367,-2.646529,0.045368,-0.992018,0.117649,0.000000,0.000000,0.000000,-1,-0.900002,-1.029024,0.759090,-0.139911,0.103957,-0.014317
"2019-05-06 15:49:30.982 +0000",1557157770.982444,2.837889,1.466021,-2.733923,0.031276,-0.994516,0.099797,0.000000,0.000000,0.000000,-1,-0.814962,-1.231008,0.885621,-0.061290,0.089548,-0.030675
"2019-05-06 15:49:31.002 +0000",1557157771.002342,2.953662,1.486742,-2.875835,0.015685,-0.996469,0.082477,0.000000,0.000000,0.000000,-1,-0.880503,-1.309459,0.924648,0.095369,0.062616,0.012693
"2019-05-06 15:49:31.022 +0000",1557157771.022239,-3.118454,1.506193,-3.113198,-0.001494,-0.997914,0.064543,0.000000,0.000000,0.000000,-1,-0.863525,-1.244045,1.011454,0.146529,0.095692,0.045778
"2019-05-06 15:49:31.042 +0000",1557157771.042136,-2.738137,1.517324,2.765416,-0.020984,-0.998571,0.049156,0.000000,0.000000,0.000000,-1,-0.701183,-1.138686,1.054815,0.124514,0.130300,0.099525
"2019-05-06 15:49:31.062 +0000",1557157771.062034,-2.327244,1.515737,2.331141,-0.040022,-0.998485,0.037769,0.000000,0.000000,0.000000,-1,-0.495676,-1.130183,0.954260,0.186094,0.053218,0.164486
"2019-05-06 15:49:31.082 +0000",1557157771.081932,-2.064835,1.505992,2.047377,-0.057016,-0.997901,0.030708,0.000000,0.000000,0.000000,-1,-0.345972,-0.978555,0.829307,0.188150,-0.102624,0.182946
"2019-05-06 15:49:31.102 +0000",1557157771.101829,-1.916317,1.494721,1.879925,-0.071510,-0.997108,0.025741,0.000000,0.000000,0.000000,-1,-0.252065,-0.870792,0.670624,0.214745,-0.112679,0.180650
"2019-05-06 15:49:31.122 +0000",1557157771.121726,-1.848603,1.485971,1.796754,-0.081476,-0.996404,0.023235,0.000000,0.000000,0.000000,-1,-0.136058,-0.663892,0.355698,0.437448,-0.115916,0.184132
"2019-05-06 15:49:31.142 +0000",1557157771.141624,-1.815914,1.481893,1.753576,-0.086135,-0.996051,0.021546,0.000000,0.000000,0.000000,-1,-0.124746,-0.392514,0.200129,0.522841,-0.019284,0.120803
"2019-05-06 15:49:31.162 +0000",1557157771.161521,-1.770260,1.479572,1.700441,-0.089290,-0.995842,0.018050,0.000000,0.000000,0.000000,-1,-0.305898,-0.232196,0.111161,0.321559,-0.070091,0.144105
"2019-05-06 15:49:31.181 +0000",1557157771.181419,-1.713570,1.480792,1.643259,-0.088968,-0.995952,0.012789,0.000000,0.000000,0.000000,-1,-0.176640,0.147291,-0.149295,0.292902,-0.266163,0.235792
"2019-05-06 15:49:31.201 +0000",1557157771.201315,-1.700106,1.488131,1.634972,-0.081881,-0.996585,0.010647,0.000000,0.000000,0.000000,-1,-0.015101,0.381174,-0.591181,0.381213,-0.437466,0.077411
"2019-05-06 15:49:31.221 +0000",1557157771.221214,-1.753288,1.503730,1.697606,-0.065902,-0.997752,0.012162,0.000000,0.000000,0.000000,-1,0.299561,0.501299,-0.972318,0.317962,-0.432912,0.053313
"2019-05-06 15:49:31.241 +0000",1557157771.241110,-2.037793,1.520303,1.991703,-0.045068,-0.998725,0.022723,0.000000,0.000000,0.000000,-1,0.852800,0.400328,-1.098873,0.059121,-0.427102,-0.007586
"2019-05-06 15:49:31.261 +0000",1557157771.261007,-2.661689,1.519811,2.624029,-0.023530,-0.998701,0.045208,0.000000,0.000000,0.000000,-1,1.415371,0.419914,-1.061704,-0.227095,-0.313082,-0.083111
"2019-05-06 15:49:31.281 +0000",1557157771.280905,-3.096445,1.492955,3.069641,-0.003510,-0.996972,0.077684,0.000000,0.000000,0.000000,-1,1.858114,0.550046,-1.000327,-0.423523,-0.111564,-0.096162
"2019-05-06 15:49:31.301 +0000",1557157771.300802,3.025317,1.453703,-3.042983,0.013553,-0.993152,0.116036,0.000000,0.000000,0.000000,-1,1.941862,0.157045,-0.765359,-0.534168,-0.105267,-0.099022
"2019-05-06 15:49:31.321 +0000",1557157771.320699,2.960451,1.415950,-2.983852,0.027785,-0.988035,0.151705,0.000000,0.000000,0.000000,-1,1.678333,-0.814064,-0.615692,-0.589964,-0.261812,-0.179400
"2019-05-06 15:49:31.341 +0000",1557157771.340598,2.901079,1.381191,-2.947933,0.044894,-0.982079,0.183046,0.000000,0.000000,0.000000,-1,1.646335,-1.462546,-0.749896,-0.489474,-0.375618,-0.068422
"2019-05-06 15:49:31.360 +0000",1557157771.360496,2.833795,1.344365,-2.910424,0.068015,-0.974474,0.213951,0.000000,0.000000,0.000000,-1,1.728680,-1.488807,-0.978084,-0.294685,-0.423384,0.026070
"2019-05-06 15:49:31.380 +0000",1557157771.380406,2.782569,1.304746,-2.876398,0.092380,-0.964817,0.246159,0.000000,0.000000,0.000000,-1,1.691259,-0.246466,-1.094008,0.076992,-0.334057,0.068111
"2019-05-06 15:49:31.400 +0000",1557157771.400303,2.761750,1.268681,-2.843804,0.110320,-0.954709,0.276333,0.000000,0.000000,0.000000,-1,1.345963,1.256257,-1.140909,0.191544,-0.185397,0.076283
"2019-05-06 15:49:31.420 +0000",1557157771.420200,2.760021,1.236230,-2.806125,0.122274,-0.944553,0.304744,0.000000,0.000000,0.000000,-1,1.214135,1.898107,-1.101637,0.088953,-0.059750,-0.119106
"2019-05-06 15:49:31.440 +0000",1557157771.440098,2.771582,1.210936,-2.778676,0.127344,-0.935946,0.328311,0.000000,0.000000,0.000000,-1,0.850710,1.755983,-0.686734,0.160437,0.523715,-0.188541
"2019-05-06 15:49:31.460 +0000",1557157771.459996,2.788342,1.193131,-2.763507,0.127569,-0.929528,0.345982,0.000000,0.000000,0.000000,-1,0.689276,1.363819,-0.533680,0.012979,0.527245,-0.157124
"2019-05-06 15:49:31.480 +0000",1557157771.479893,2.795180,1.176070,-2.746785,0.130567,-0.923102,0.361712,0.000000,0.000000,0.000000,-1,0.736052,0.874457,-0.653362,-0.184354,0.369498,-0.103457
"2019-05-06 15:49:31.500 +0000",1557157771.499789,2.794780,1.156788,-2.731147,0.136737,-0.915516,0.378331,0.000000,0.000000,0.000000,-1,0.887573,0.583977,-0.539880,-0.233813,0.373249,-0.062306
"2019-05-06 15:49:31.520 +0000",1557157771.519687,2.803261,1.137107,-2.728517,0.139477,-0.907421,0.396399,0.000000,0.000000,0.000000,-1,0.903497,0.517201,-0.200184,-0.227993,0.474240,-0.084555
"2019-05-06 15:49:31.540 +0000",1557157771.539585,2.823769,1.122137,-2.739792,0.135550,-0.901029,0.412035,0.000000,0.000000,0.000000,-1,0.632905,0.551778,0.134073,-0.198004,0.547270,-0.196794
"2019-05-06 15:49:31.559 +0000",1557157771.559483,2.849805,1.116371,-2.755161,0.126269,-0.898513,0.420392,0.000000,0.000000,0.000000,-1,0.084532,0.661904,0.316342,-0.117419,0.543274,-0.290281
"2019-05-06 15:49:31.579 +0000",1557157771.579379,2.874306,1.123670,-2.767330,0.114197,-0.901694,0.417022,0.000000,0.000000,0.000000,-1,-0.636754,0.697308,0.376924,0.018982,0.563162,-0.296875
"2019-05-06 15:49:31.599 +0000",1557157771.599276,2.893266,1.143921,-2.772592,0.101761,-0.910264,0.401328,0.000000,0.000000,0.000000,-1,-1.234998,0.735949,0.339270,0.142441,0.499314,-0.203116
"2019-05-06 15:49:31.619 +0000",1557157771.619174,2.906264,1.171972,-2.769506,0.090545,-0.921518,0.377631,0.000000,0.000000,0.000000,-1,-1.426026,0.861248,0.234190,0.192582,0.273767,-0.056418
"2019-05-06 15:49:31.639 +0000",1557157771.639071,2.919868,1.196908,-2.763917,0.080320,-0.930914,0.356297,0.000000,0.000000,0.000000,-1,-0.925214,0.994309,0.069207,0.157137,-0.186609,0.205822
"2019-05-06 15:49:31.659 +0000",1557157771.658969,2.918499,1.205515,-2.743533,0.079033,-0.934023,0.348360,0.000000,0.000000,0.000000,-1,-0.105232,0.679892,-0.633335,0.284203,-0.571974,0.463865
"2019-05-06 15:49:31.679 +0000",1557157771.678866,2.885511,1.198476,-2.699213,0.092142,-0.931486,0.351915,0.000000,0.000000,0.000000,-1,0.377649,0.161911,-1.051212,0.070410,-0.806399,0.449461
"2019-05-06 15:49:31.699 +0000",1557157771.698763,2.828782,1.182127,-2.638133,0.116618,-0.925414,0.360568,0.000000,0.000000,0.000000,-1,0.534941,-0.025830,-1.567408,0.078542,-0.615006,0.590253
"2019-05-06 15:49:31.719 +0000",1557157771.718661,2.785499,1.158321,-2.584874,0.139752,-0.916131,0.375729,0.000000,0.000000,0.000000,-1,1.117274,0.655869,-1.034292,-0.349835,-0.153220,0.685245
"2019-05-06 15:49:31.739 +0000",1557157771.738558,2.801380,1.129480,-2.579058,0.142528,-0.904190,0.402648,0.000000,0.000000,0.000000,-1,1.299790,1.341232,-0.222888,-0.403804,0.092179,0.329133
"2019-05-06 15:49:31.758 +0000",1557157771.758455,2.831746,1.115908,-2.590664,0.133967,-0.898310,0.418440,0.000000,0.000000,0.000000,-1,-0.008034,0.464881,0.248196,-0.297007,-0.399160,-0.421187
"2019-05-06 15:49:31.778 +0000",1557157771.778352,2.831252,1.134537,-2.599514,0.129040,-0.906339,0.402367,0.000000,0.000000,0.000000,-1,-1.452422,-1.207820,0.392517,-0.023419,-0.893298,-0.765938
"2019-05-06 15:49:31.798 +0000",1557157771.798250,2.781944,1.161482,-2.576120,0.140067,-0.917394,0.372517,0.000000,0.000000,0.000000,-1,-1.176592,-1.512947,-0.235686,0.219964,-0.663340,-0.218144
"2019-05-06 15:49:31.818 +0000",1557157771.818147,2.739160,1.170801,-2.558017,0.152517,-0.921063,0.358304,0.000000,0.000000,0.000000,-1,0.089778,-1.025409,-0.060957,-0.229085,-0.200656,0.165790
"2019-05-06 15:49:31.838 +0000",1557157771.838045,2.733421,1.164726,-2.564397,0.156789,-0.918680,0.362551,0.000000,0.000000,0.000000,-1,0.331275,-0.122294,0.075124,-0.199880,0.347101,-0.200305
"2019-05-06 15:49:31.858 +0000",1557157771.857942,2.744960,1.166610,-2.575063,0.151926,-0.919423,0.362740,0.000000,0.000000,0.000000,-1,-0.504889,0.035684,0.412633,-0.092539,0.744084,-0.512291
"2019-05-06 15:49:31.878 +0000",1557157771.877839,2.763405,1.193495,-2.599298,0.136032,-0.929662,0.342380,0.000000,0.000000,0.000000,-1,-1.431007,-0.340000,1.569115,-0.114929,0.898031,-0.686038
"2019-05-06 15:49:31.898 +0000",1557157771.897736,2.801247,1.233577,-2.645650,0.110447,-0.943678,0.311886,0.000000,0.000000,0.000000,-1,-1.813857,-0.235546,1.168599,0.200207,-0.390154,-0.419109
"2019-05-06 15:49:31.918 +0000",1557157771.917634,2.807527,1.275265,-2.660326,0.095497,-0.956647,0.275147,0.000000,0.000000,0.000000,-1,-1.792614,-0.540630,0.738904,0.078072,-0.552813,-0.195298
"2019-05-06 15:49:31.938 +0000",1557157771.937531,2.805893,1.305899,-2.672669,0.086248,-0.965119,0.247195,0.000000,0.000000,0.000000,-1,-0.994422,-0.829930,0.605698,-0.066457,0.075685,0.168973
"2019-05-06 15:49:31.957 +0000",1557157771.957429,2.813598,1.324756,-2.699300,0.078464,-0.969884,0.230582,0.000000,0.000000,0.000000,-1,-0.683065,-0.875272,0.652004,-0.145908,0.543539,0.021219
"2019-05-06 15:49:31.977 +0000",1557157771.977326,2.819425,1.344358,-2.718792,0.071084,-0.974472,0.212957,0.000000,0.000000,0.000000,-1,-1.082032,-0.529564,0.328010,-0.039926,0.330551,-0.140309
"2019-05-06 15:49:31.997 +0000",1557157771.997224,2.770460,1.371757,-2.679492,0.071710,-0.980257,0.184267,0.000000,0.000000,0.000000,-1,-1.719720,-0.498035,-0.134062,0.064047,-0.100264,-0.307802
"2019-05-06 15:49:32.017 +0000",1557157772.017121,2.686048,1.402045,-2.601616,0.073890,-0.985795,0.150824,0.000000,0.000000,0.000000,-1,-1.489073,-0.335783,0.190477,-0.036994,0.033311,-0.101843
"2019-05-06 15:49:32.037 +0000",1557157772.037018,2.665059,1.428794,-2.589603,0.064918,-0.989935,0.125758,0.000000,0.000000,0.000000,-1,-1.053761,-0.665068,0.838194,-0.170600,0.138052,0.074483
"2019-05-06 15:49:32.057 +0000",1557157772.056916,2.721030,1.455078,-2.664242,0.047139,-0.993312,0.105398,0.000000,0.000000,0.000000,-1,-0.924331,-1.084371,1.073704,-0.191289,0.168849,0.001169
"2019-05-06 15:49:32.077 +0000",1557157772.076813,2.819974,1.480256,-2.786499,0.028581,-0.995904,0.085781,0.000000,0.000000,0.000000,-1,-0.979265,-1.173984,1.007937,0.048674,0.085214,0.025227
"2019-05-06 15:49:32.097 +0000",1557157772.096710,2.972700,1.503822,-2.962270,0.011249,-0.997758,0.065970,0.000000,0.000000,0.000000,-1,-0.931159,-1.074641,0.921574,0.185147,0.044206,0.071481
"2019-05-06 15:49:32.117 +0000",1557157772.116607,-3.023828,1.521752,3.011695,-0.005760,-0.998798,0.048683,0.000000,0.000000,0.000000,-1,-0.793303,-1.180244,0.917899,0.188957,0.056491,0.088463
"2019-05-06 15:49:32.137 +0000",1557157772.136504,-2.574925,1.529816,2.538001,-0.021992,-0.999160,0.034564,0.000000,0.000000,0.000000,-1,-0.635438,-1.234015,0.800865,0.242619,0.131149,0.169492
"2019-05-06 15:49:32.156 +0000",1557157772.156402,-2.179419,1.527797,2.119782,-0.035267,-0.999076,0.024577,0.000000,0.000000,0.000000,-1,-0.454621,-0.969999,0.592554,0.304615,0.124243,0.252859
"2019-05-06 15:49:32.176 +0000",1557157772.176300,-1.922666,1.523023,1.847649,-0.044828,-0.998859,0.016459,0.000000,0.000000,0.000000,-1,-0.411600,-0.570650,0.415709,0.312040,0.006824,0.206228
"2019-05-06 15:49:32.196 +0000",1557157772.196196,-1.755038,1.518239,1.670726,-0.051643,-0.998619,0.009624,0.000000,0.000000,0.000000,-1,-0.328247,-0.336805,0.284544,0.331322,-0.150261,0.154164
"2019-05-06 15:49:32.216 +0000",1557157772.216095,-1.642176,1.515029,1.553063,-0.055599,-0.998445,0.003975,0.000000,0.000000,0.000000,-1,-0.263493,-0.161295,0.126502,0.370204,-0.258207,0.136360
"2019-05-06 15:49:32.236 +0000",1557157772.235991,-1.545059,1.513091,1.452459,-0.057654,-0.998336,-0.001484,0.000000,0.000000,0.000000,-1,-0.341713,-0.184671,0.111766,0.282217,-0.189012,0.125431
"2019-05-06 15:49:32.256 +0000",1557157772.255889,-1.430325,1.510600,1.337190,-0.059566,-0.998189,-0.008423,0.000000,0.000000,0.000000,-1,-0.281480,0.166419,0.073308,0.193050,-0.219508,0.224960
"2019-05-06 15:49:32.276 +0000",1557157772.275786,-1.373926,1.510762,1.286388,-0.058839,-0.998199,-0.011736,0.000000,0.000000,0.000000,-1,-0.032065,0.392446,-0.189867,0.269639,-0.449662,0.251619
"2019-05-06 15:49:32.296 +0000",1557157772.295684,-1.360050,1.518822,1.280433,-0.050802,-0.998650,-0.010868,0.000000,0.000000,0.000000,-1,0.193236,0.368521,-0.579242,0.198309,-0.520943,0.104633
"2019-05-06 15:49:32.316 +0000",1557157772.315581,-1.496154,1.534677,1.422596,-0.036007,-0.999348,-0.002693,0.000000,0.000000,0.000000,-1,0.702863,0.224501,-0.878587,0.059155,-0.492626,0.034843
"2019-05-06 15:49:32.335 +0000",1557157772.335478,-2.353834,1.546722,2.285047,-0.017061,-0.999710,0.016981,0.000000,0.000000,0.000000,-1,1.277789,0.263044,-0.976222,-0.125654,-0.399795,-0.022138
"2019-05-06 15:49:32.355 +0000",1557157772.355376,3.097924,1.524375,3.125228,0.002026,-0.998923,0.046359,0.000000,0.000000,0.000000,-1,1.681279,0.651637,-0.957453,-0.312115,-0.195413,-0.166674
"2019-05-06 15:49:32.375 +0000",1557157772.375258,2.929983,1.484333,-2.973412,0.018137,-0.996264,0.084429,0.000000,0.000000,0.000000,-1,2.116563,0.854350,-0.716398,-0.442530,-0.029859,-0.160738
"2019-05-06 15:49:32.395 +0000",1557157772.395157,2.924673,1.440982,-2.958327,0.027860,-0.991586,0.126416,0.000000,0.000000,0.000000,-1,2.014347,-0.052018,-0.371275,-0.607542,-0.137259,-0.173230
"2019-05-06 15:49:32.415 +0000",1557157772.415054,2.925818,1.405456,-2.972275,0.035239,-0.986362,0.160771,0.000000,0.000000,0.000000,-1,1.596076,-1.125349,-0.272378,-0.655875,-0.273205,-0.212697
"2019-05-06 15:49:32.435 +0000",1557157772.434951,2.894413,1.373291,-2.967555,0.048010,-0.980559,0.190260,0.000000,0.000000,0.000000,-1,1.578236,-1.468090,-0.590015,-0.432516,-0.315583,-0.109586
"2019-05-06 15:49:32.455 +0000",1557157772.454848,2.847939,1.338069,-2.946384,0.066757,-0.973041,0.220760,0.000000,0.000000,0.000000,-1,1.738273,-0.886298,-0.801211,-0.054321,-0.161221,0.012013
"2019-05-06 15:49:32.475 +0000",1557157772.474746,2.818209,1.301642,-2.922972,0.084502,-0.963996,0.252132,0.000000,0.000000,0.000000,-1,1.524226,0.190541,-0.892029,0.148363,-0.175500,0.077747
"2019-05-06 15:49:32.495 +0000",1557157772.494642,2.804114,1.268784,-2.891251,0.098486,-0.954740,0.280664,0.000000,0.000000,0.000000,-1,1.458891,1.316912,-1.028412,0.100901,-0.096896,-0.004389
"2019-05-06 15:49:32.515 +0000",1557157772.514540,2.804998,1.236816,-2.863408,0.108266,-0.944745,0.309411,0.000000,0.000000,0.000000,-1,1.258603,1.338289,-0.781163,0.052500,0.383054,-0.181116
"2019-05-06 15:49:32.534 +0000",1557157772.534437,2.817653,1.210895,-2.853173,0.112101,-0.935931,0.333865,0.000000,0.000000,0.000000,-1,1.132405,0.909169,-0.461705,0.030309,0.615161,-0.155658
"2019-05-06 15:49:32.554 +0000",1557157772.554334,2.828817,1.187380,-2.849576,0.115108,-0.927392,0.355941,0.000000,0.000000,0.000000,-1,1.085848,0.576821,-0.380300,-0.124065,0.529595,-0.115783
"2019-05-06 15:49:32.574 +0000",1557157772.574232,2.840153,1.165632,-2.850225,0.117027,-0.919038,0.376397,0.000000,0.000000,0.000000,-1,1.002715,0.544958,-0.244107,-0.175422,0.487443,-0.137689
"2019-05-06 15:49:32.594 +0000",1557157772.594129,2.856986,1.147946,-2.856275,0.115221,-0.911923,0.393853,0.000000,0.000000,0.000000,-1,0.720195,0.582429,0.007571,-0.182772,0.480710,-0.171090
"2019-05-06 15:49:32.614 +0000",1557157772.614027,2.880734,1.140122,-2.870670,0.107673,-0.908685,0.403359,0.000000,0.000000,0.000000,-1,0.176394,0.471396,0.316593,-0.109855,0.501687,-0.199242
"2019-05-06 15:49:32.634 +0000",1557157772.633924,2.904091,1.145371,-2.887143,0.097100,-0.910863,0.401123,0.000000,0.000000,0.000000,-1,-0.514215,0.355198,0.440928,-0.043649,0.514959,-0.190079
"2019-05-06 15:49:32.654 +0000",1557157772.653822,2.918657,1.162983,-2.897998,0.087687,-0.917990,0.386789,0.000000,0.000000,0.000000,-1,-1.053511,0.096159,0.360504,0.067480,0.448904,-0.078897
"2019-05-06 15:49:32.674 +0000",1557157772.673719,2.916992,1.187815,-2.897327,0.083227,-0.927555,0.364302,0.000000,0.000000,0.000000,-1,-1.342403,-0.182600,0.151153,0.124262,0.391819,0.042650
"2019-05-06 15:49:32.694 +0000",1557157772.693617,2.898811,1.213893,-2.882944,0.083991,-0.936983,0.339129,0.000000,0.000000,0.000000,-1,-1.240848,-0.255470,-0.024285,0.137201,0.223177,0.147093
"2019-05-06 15:49:32.714 +0000",1557157772.713514,2.880166,1.232127,-2.864555,0.085869,-0.943198,0.320944,0.000000,0.000000,0.000000,-1,-0.606664,0.221903,-0.171238,0.101921,-0.081796,0.319406
"2019-05-06 15:49:32.733 +0000",1557157772.733411,2.860712,1.233174,-2.834628,0.091822,-0.943545,0.318264,0.000000,0.000000,0.000000,-1,0.210032,0.501335,-0.803044,0.205176,-0.445753,0.473408
"2019-05-06 15:49:32.753 +0000",1557157772.753310,2.825437,1.220099,-2.792380,0.106816,-0.939133,0.326525,0.000000,0.000000,0.000000,-1,0.539674,-0.049327,-0.830666,-0.058750,-0.901931,0.444944
"2019-05-06 15:49:32.773 +0000",1557157772.773207,2.775628,1.202931,-2.742521,0.128692,-0.933097,0.335810,0.000000,0.000000,0.000000,-1,0.570577,-0.118390,-1.400901,0.069032,-0.578652,0.637731
"2019-05-06 15:49:32.793 +0000",1557157772.793103,2.742881,1.176961,-2.702569,0.148977,-0.923444,0.353634,0.000000,0.000000,0.000000,-1,1.322221,0.542385,-0.816648,-0.322164,-0.129824,0.666874
"2019-05-06 15:49:32.813 +0000",1557157772.812999,2.764058,1.148244,-2.711888,0.151171,-0.912045,0.381210,0.000000,0.000000,0.000000,-1,1.187415,0.555541,0.005228,-0.380526,-0.304736,0.049836
"2019-05-06 15:49:32.833 +0000",1557157772.832898,2.784020,1.143620,-2.732115,0.145007,-0.910139,0.388097,0.000000,0.000000,0.000000,-1,-0.534148,-0.559096,0.685247,-0.321535,-0.828691,-0.599020
"2019-05-06 15:49:32.853 +0000",1557157772.852795,2.781015,1.167273,-2.750532,0.138537,-0.919683,0.367411,0.000000,0.000000,0.000000,-1,-1.094217,-1.240907,0.574232,-0.203905,-0.503657,-0.554148
"2019-05-06 15:49:32.873 +0000",1557157772.872692,2.757710,1.182365,-2.753912,0.141846,-0.925504,0.351172,0.000000,0.000000,0.000000,-1,-0.166822,-1.403495,0.102819,-0.092697,-0.234210,-0.008047
"2019-05-06 15:49:32.893 +0000",1557157772.892590,2.732046,1.178684,-2.753296,0.152166,-0.924104,0.350538,0.000000,0.000000,0.000000,-1,0.324751,-0.931400,-0.221280,-0.076101,0.079973,-0.103681
"2019-05-06 15:49:32.912 +0000",1557157772.912487,2.713591,1.175244,-2.743986,0.159928,-0.922784,0.350561,0.000000,0.000000,0.000000,-1,-0.275014,-0.141881,-0.177727,0.020218,0.388192,-0.469915
"2019-05-06 15:49:32.932 +0000",1557157772.932384,2.697664,1.190176,-2.730245,0.159554,-0.928435,0.335487,0.000000,0.000000,0.000000,-1,-1.302613,-0.436484,0.450727,0.032707,0.691069,-0.685020
"2019-05-06 15:49:32.952 +0000",1557157772.952282,2.702256,1.229162,-2.749539,0.142501,-0.942208,0.303212,0.000000,0.000000,0.000000,-1,-1.797929,-0.735715,1.725289,-0.152495,0.469995,-0.614766
"2019-05-06 15:49:32.972 +0000",1557157772.972179,2.742954,1.276288,-2.807025,0.112672,-0.956945,0.267509,0.000000,0.000000,0.000000,-1,-1.718556,-0.678717,1.669317,-0.130921,-0.398447,-0.233619
"2019-05-06 15:49:32.992 +0000",1557157772.992077,2.773220,1.313226,-2.853267,0.091729,-0.967012,0.237644,0.000000,0.000000,0.000000,-1,-1.188303,-0.899510,0.852102,-0.151024,-0.429396,0.098629
"2019-05-06 15:49:33.012 +0000",1557157773.011974,2.760994,1.333700,-2.864881,0.087253,-0.972024,0.218073,0.000000,0.000000,0.000000,-1,-0.667126,-1.446440,0.220550,-0.005557,0.096032,0.153722
"2019-05-06 15:49:33.032 +0000",1557157773.031872,2.719718,1.347076,-2.856761,0.090845,-0.975079,0.202407,0.000000,0.000000,0.000000,-1,-0.702138,-1.803836,0.193981,-0.018152,0.485150,-0.102004
"2019-05-06 15:49:33.052 +0000",1557157773.051769,2.668389,1.366403,-2.836121,0.092503,-0.979184,0.180670,0.000000,0.000000,0.000000,-1,-1.247221,-1.302386,0.204337,-0.003453,0.260449,-0.207769
"2019-05-06 15:49:33.072 +0000",1557157773.071666,2.584439,1.392960,-2.771149,0.093540,-0.984229,0.150146,0.000000,0.000000,0.000000,-1,-1.589769,-0.754407,0.033742,-0.032322,-0.055993,-0.290252
"2019-05-06 15:49:33.092 +0000",1557157773.091563,2.484188,1.419477,-2.684487,0.092114,-0.988573,0.119325,0.000000,0.000000,0.000000,-1,-1.308390,-0.887024,0.387154,-0.067455,-0.002150,-0.047121
"2019-05-06 15:49:33.111 +0000",1557157773.111460,2.436548,1.444735,-2.658436,0.081480,-0.992065,0.095752,0.000000,0.000000,0.000000,-1,-0.920326,-1.261710,0.899520,-0.123533,0.140533,0.083173
"2019-05-06 15:49:33.131 +0000",1557157773.131358,2.455814,1.471377,-2.705226,0.062856,-0.995062,0.076817,0.000000,0.000000,0.000000,-1,-0.839858,-1.483624,1.132032,-0.117025,0.178045,0.048778
"2019-05-06 15:49:33.151 +0000",1557157773.151255,2.498806,1.500128,-2.779271,0.042327,-0.997504,0.056520,0.000000,0.000000,0.000000,-1,-1.045059,-1.549190,1.139532,0.077851,0.100333,0.005217
"2019-05-06 15:49:33.171 +0000",1557157773.171153,2.616825,1.530267,-2.926638,0.020299,-0.999179,0.035064,0.000000,0.000000,0.000000,-1,-0.932044,-1.428372,1.211237,0.126887,0.082385,0.048737
"2019-05-06 15:49:33.191 +0000",1557157773.191050,-2.974663,1.551260,2.635307,-0.003246,-0.999809,0.019263,0.000000,0.000000,0.000000,-1,-0.633053,-1.501859,1.181434,0.072887,0.144112,0.163263
"2019-05-06 15:49:33.211 +0000",1557157773.210948,-1.963458,1.544711,1.592767,-0.024096,-0.999660,0.009980,0.000000,0.000000,0.000000,-1,-0.327848,-1.610199,0.930119,0.156191,0.062068,0.258178
"2019-05-06 15:49:33.231 +0000",1557157773.230844,-1.712064,1.530678,1.309399,-0.039706,-0.999195,0.005647,0.000000,0.000000,0.000000,-1,-0.258643,-1.516289,0.664118,0.225101,-0.079143,0.154754
"2019-05-06 15:49:33.251 +0000",1557157773.250743,-1.600963,1.521197,1.173734,-0.049556,-0.998770,0.001495,0.000000,0.000000,0.000000,-1,-0.236176,-0.929447,0.316502,0.414348,-0.115671,0.154846
"2019-05-06 15:49:33.271 +0000",1557157773.270639,-1.538280,1.518054,1.095968,-0.052692,-0.998609,-0.001714,0.000000,0.000000,0.000000,-1,-0.152008,-0.566400,0.052368,0.582324,-0.169619,0.200109
"2019-05-06 15:49:33.291 +0000",1557157773.290538,-1.511095,1.516712,1.060493,-0.053962,-0.998538,-0.003225,0.000000,0.000000,0.000000,-1,-0.085650,-0.347443,0.094495,0.488471,-0.154477,0.197332
"2019-05-06 15:49:33.310 +0000",1557157773.310434,-1.457727,1.513963,1.002299,-0.056437,-0.998385,-0.006409,0.000000,0.000000,0.000000,-1,-0.215760,-0.036759,0.103274,0.245127,-0.211850,0.179001
"2019-05-06 15:49:33.330 +0000",1557157773.330330,-1.401055,1.513819,0.948801,-0.056131,-0.998377,-0.009620,0.000000,0.000000,0.000000,-1,-0.060401,0.299518,-0.145048,0.277658,-0.308904,0.289344
"2019-05-06 15:49:33.350 +0000",1557157773.350229,-1.383095,1.520104,0.938273,-0.049781,-0.998715,-0.009455,0.000000,0.000000,0.000000,-1,0.143021,0.450907,-0.493191,0.335852,-0.405597,0.178950
"2019-05-06 15:49:33.370 +0000",1557157773.370125,-1.480415,1.533720,1.045300,-0.036915,-0.999313,-0.003346,0.000000,0.000000,0.000000,-1,0.546159,0.482265,-0.742591,0.169392,-0.438889,0.132740
"2019-05-06 15:49:33.390 +0000",1557157773.390015,-2.124558,1.545961,1.698394,-0.021124,-0.999692,0.013061,0.000000,0.000000,0.000000,-1,1.141251,0.410484,-0.848392,-0.082178,-0.384799,0.044343
"2019-05-06 15:49:33.410 +0000",1557157773.409911,-3.068852,1.530591,2.650824,-0.002921,-0.999192,0.040088,0.000000,0.000000,0.000000,-1,1.571575,0.379888,-1.007454,-0.326165,-0.225585,-0.087451
"2019-05-06 15:49:33.430 +0000",1557157773.429810,2.916167,1.492890,2.958127,0.017396,-0.996967,0.075857,0.000000,0.000000,0.000000,-1,1.993412,0.485189,-1.020145,-0.535111,-0.090085,-0.127111
"2019-05-06 15:49:33.450 +0000",1557157773.449707,2.851101,1.449518,3.030444,0.034652,-0.992655,0.115912,0.000000,0.000000,0.000000,-1,1.966781,0.008066,-0.761621,-0.657882,-0.084234,-0.198081
"2019-05-06 15:49:33.470 +0000",1557157773.469604,2.827698,1.411328,3.042351,0.049030,-0.987312,0.151034,0.000000,0.000000,0.000000,-1,1.660314,-1.132565,-0.587521,-0.695224,-0.226403,-0.231051
"2019-05-06 15:49:33.490 +0000",1557157773.489501,2.790355,1.376588,3.051400,0.066400,-0.981201,0.181208,0.000000,0.000000,0.000000,-1,1.662076,-1.601553,-0.777325,-0.498941,-0.360718,-0.063761
"2019-05-06 15:49:33.509 +0000",1557157773.509399,2.743178,1.338361,3.070375,0.089365,-0.973108,0.212306,0.000000,0.000000,0.000000,-1,1.801030,-1.088895,-0.995063,-0.164683,-0.294027,0.079503
"2019-05-06 15:49:33.529 +0000",1557157773.529296,2.710977,1.297467,3.094838,0.112681,-0.962878,0.245296,0.000000,0.000000,0.000000,-1,1.686643,0.231276,-1.230803,0.182211,-0.311994,0.138355
"2019-05-06 15:49:33.549 +0000",1557157773.549193,2.698740,1.258016,3.125435,0.131857,-0.951482,0.278021,0.000000,0.000000,0.000000,-1,1.550601,1.361042,-1.253399,0.149179,-0.273311,0.071267
"2019-05-06 15:49:33.569 +0000",1557157773.569091,2.701199,1.221674,-3.128035,0.145824,-0.939673,0.309434,0.000000,0.000000,0.000000,-1,1.307956,1.691544,-1.102408,-0.002559,0.281714,-0.128190
"2019-05-06 15:49:33.589 +0000",1557157773.588987,2.714891,1.193483,-3.108698,0.152480,-0.929658,0.335390,0.000000,0.000000,0.000000,-1,0.972767,1.448915,-0.739498,0.086732,0.531281,-0.155199
"2019-05-06 15:49:33.609 +0000",1557157773.608886,2.732307,1.172402,-3.098968,0.154382,-0.921685,0.355897,0.000000,0.000000,0.000000,-1,0.887940,1.188660,-0.499094,-0.066812,0.453744,-0.138200
"2019-05-06 15:49:33.629 +0000",1557157773.628783,2.750491,1.152507,-3.096791,0.154845,-0.913785,0.375525,0.000000,0.000000,0.000000,-1,0.919825,0.851550,-0.354723,-0.183471,0.429105,-0.134498
"2019-05-06 15:49:33.649 +0000",1557157773.648681,2.770859,1.133672,-3.102536,0.153374,-0.905973,0.394575,0.000000,0.000000,0.000000,-1,0.919955,0.701392,-0.132841,-0.187539,0.428953,-0.115583
"2019-05-06 15:49:33.669 +0000",1557157773.668578,2.795594,1.118225,-3.115974,0.148297,-0.899326,0.411364,0.000000,0.000000,0.000000,-1,0.692696,0.546607,0.139026,-0.186108,0.441364,-0.178424
"2019-05-06 15:49:33.688 +0000",1557157773.688475,2.820254,1.111715,-3.133991,0.139956,-0.896460,0.420443,0.000000,0.000000,0.000000,-1,0.164130,0.284243,0.354238,-0.193346,0.533118,-0.250216
"2019-05-06 15:49:33.708 +0000",1557157773.708372,2.834603,1.117137,3.135558,0.132437,-0.898850,0.417768,0.000000,0.000000,0.000000,-1,-0.496970,-0.058181,0.366840,-0.130621,0.531296,-0.234632
"2019-05-06 15:49:33.728 +0000",1557157773.728270,2.836269,1.134176,3.131202,0.127118,-0.906186,0.403320,0.000000,0.000000,0.000000,-1,-1.022293,-0.108111,0.314067,-0.027387,0.500638,-0.120667
"2019-05-06 15:49:33.748 +0000",1557157773.748167,2.832972,1.157745,3.134752,0.121925,-0.915900,0.382441,0.000000,0.000000,0.000000,-1,-1.235140,0.117601,0.261050,0.050820,0.377952,-0.009302
"2019-05-06 15:49:33.768 +0000",1557157773.768064,2.830732,1.183202,-3.141153,0.115611,-0.925821,0.359847,0.000000,0.000000,0.000000,-1,-1.201102,0.364081,0.254597,0.120153,0.181619,0.092622
"2019-05-06 15:49:33.788 +0000",1557157773.787962,2.837863,1.201518,-3.136703,0.107951,-0.932588,0.344421,0.000000,0.000000,0.000000,-1,-0.547598,0.692058,0.034219,0.147176,-0.226469,0.359437
"2019-05-06 15:49:33.808 +0000",1557157773.807858,2.826063,1.204067,-3.112480,0.111269,-0.933505,0.340862,0.000000,0.000000,0.000000,-1,-0.007274,0.283713,-0.733328,0.317533,-0.726163,0.496708
"2019-05-06 15:49:33.828 +0000",1557157773.827756,2.790367,1.195854,-3.074413,0.125997,-0.930529,0.343861,0.000000,0.000000,0.000000,-1,0.316464,-0.255208,-0.897013,0.009410,-0.820143,0.547573
"2019-05-06 15:49:33.848 +0000",1557157773.847653,2.749183,1.179429,-3.033655,0.145874,-0.924388,0.352459,0.000000,0.000000,0.000000,-1,0.735205,0.045341,-1.003206,-0.034485,-0.314397,0.688099
"2019-05-06 15:49:33.868 +0000",1557157773.867551,2.742791,1.154478,-3.018794,0.157033,-0.914584,0.372662,0.000000,0.000000,0.000000,-1,1.289300,0.779825,-0.471556,-0.398228,0.093951,0.553257
"2019-05-06 15:49:33.887 +0000",1557157773.887448,2.776565,1.131801,-3.034192,0.151725,-0.905179,0.397026,0.000000,0.000000,0.000000,-1,0.860633,0.875097,0.208853,-0.434638,-0.243487,0.058739
"2019-05-06 15:49:33.907 +0000",1557157773.907346,2.807907,1.133039,-3.061171,0.138842,-0.905705,0.400527,0.000000,0.000000,0.000000,-1,-0.639887,-0.283204,0.878510,-0.359835,-0.736156,-0.473204
"2019-05-06 15:49:33.927 +0000",1557157773.927243,2.810018,1.157369,-3.082831,0.130783,-0.915749,0.379868,0.000000,0.000000,0.000000,-1,-1.109432,-1.400624,0.517579,-0.063537,-0.529411,-0.398331
"2019-05-06 15:49:33.947 +0000",1557157773.947141,2.769492,1.173879,-3.075399,0.140549,-0.922257,0.360122,0.000000,0.000000,0.000000,-1,-0.465651,-1.851635,-0.167395,0.073181,-0.393661,-0.037933
"2019-05-06 15:49:33.967 +0000",1557157773.967037,2.727876,1.173176,-3.064462,0.155671,-0.921985,0.354557,0.000000,0.000000,0.000000,-1,0.227282,-1.170125,-0.277634,-0.166337,-0.125363,-0.037738
"2019-05-06 15:49:33.987 +0000",1557157773.986936,2.704945,1.168933,-3.052957,0.165412,-0.920334,0.354435,0.000000,0.000000,0.000000,-1,-0.162257,-0.198319,-0.281331,-0.129462,0.304809,-0.348362
"2019-05-06 15:49:34.007 +0000",1557157774.006833,2.689387,1.180550,-3.037087,0.166223,-0.924815,0.342180,0.000000,0.000000,0.000000,-1,-1.191694,-0.231823,0.310274,-0.061075,0.696864,-0.647477
"2019-05-06 15:49:34.027 +0000",1557157774.026730,2.684763,1.216141,-3.044944,0.153182,-0.937766,0.311657,0.000000,0.000000,0.000000,-1,-1.715705,-0.776902,1.491771,-0.071685,0.618339,-0.711499
"2019-05-06 15:49:34.047 +0000",1557157774.046627,2.708416,1.260548,-3.085812,0.128149,-0.952258,0.277097,0.000000,0.000000,0.000000,-1,-1.697559,-0.805814,1.463108,0.067773,-0.285291,-0.292417
"2019-05-06 15:49:34.067 +0000",1557157774.066524,2.717329,1.298788,-3.115201,0.110597,-0.963233,0.244847,0.000000,0.000000,0.000000,-1,-1.363655,-1.106962,0.911553,-0.088715,-0.366128,-0.060811
"2019-05-06 15:49:34.086 +0000",1557157774.086422,2.710902,1.323704,-3.134111,0.102114,-0.969628,0.222249,0.000000,0.000000,0.000000,-1,-0.715858,-1.370165,0.563589,-0.117144,0.017235,0.172633
"2019-05-06 15:49:34.106 +0000",1557157774.106318,2.696725,1.338972,3.133021,0.098872,-0.973249,0.207391,0.000000,0.000000,0.000000,-1,-0.598148,-1.622411,0.478560,-0.137080,0.402677,-0.020196
"2019-05-06 15:49:34.126 +0000",1557157774.126217,2.672025,1.357160,3.125567,0.095937,-0.977266,0.189067,0.000000,0.000000,0.000000,-1,-1.078479,-1.438569,0.380929,-0.056676,0.253283,-0.250866
"2019-05-06 15:49:34.146 +0000",1557157774.146115,2.598151,1.382639,-3.108113,0.096720,-0.982350,0.160102,0.000000,0.000000,0.000000,-1,-1.529419,-1.119404,-0.015327,0.015218,-0.076686,-0.311103
"2019-05-06 15:49:34.166 +0000",1557157774.166012,2.479136,1.406568,-3.010083,0.100556,-0.986545,0.128910,0.000000,0.000000,0.000000,-1,-1.322853,-1.250910,0.029973,0.027740,-0.067776,-0.091556
"2019-05-06 15:49:34.186 +0000",1557157774.185908,2.385339,1.427643,-2.942446,0.097896,-0.989771,0.103776,0.000000,0.000000,0.000000,-1,-0.968708,-1.372172,0.596162,-0.096187,0.160441,0.054443
"2019-05-06 15:49:34.206 +0000",1557157774.205806,2.360667,1.451223,-2.945632,0.083973,-0.992860,0.084727,0.000000,0.000000,0.000000,-1,-0.742457,-1.453843,0.959595,-0.107761,0.192750,0.045979
"2019-05-06 15:49:34.226 +0000",1557157774.225703,2.351072,1.476465,-2.965821,0.066944,-0.995554,0.066262,0.000000,0.000000,0.000000,-1,-0.937081,-1.513276,0.985402,0.050670,0.066996,0.025626
"2019-05-06 15:49:34.246 +0000",1557157774.245602,2.315566,1.505685,-2.959356,0.047839,-0.997881,0.044102,0.000000,0.000000,0.000000,-1,-1.066910,-1.364663,1.087600,0.155652,0.093218,0.042996
"2019-05-06 15:49:34.265 +0000",1557157774.265498,2.291545,1.536302,-2.961344,0.025912,-0.999405,0.022761,0.000000,0.000000,0.000000,-1,-0.957184,-1.302886,1.201123,0.137799,0.139099,0.150609
"2019-05-06 15:49:34.285 +0000",1557157774.285396,2.758735,1.565275,2.828261,0.002066,-0.999985,0.005130,0.000000,0.000000,0.000000,-1,-0.752134,-1.352653,1.178819,0.117288,0.117661,0.211544
"2019-05-06 15:49:34.305 +0000",1557157774.305293,-1.237304,1.549597,0.514665,-0.020031,-0.999775,-0.006939,0.000000,0.000000,0.000000,-1,-0.477598,-1.261320,1.017855,0.125713,0.080342,0.240201
"2019-05-06 15:49:34.325 +0000",1557157774.325189,-1.205961,1.530014,0.459380,-0.038086,-0.999169,-0.014546,0.000000,0.000000,0.000000,-1,-0.385154,-1.112080,0.741310,0.206772,-0.066048,0.156010
"2019-05-06 15:49:34.345 +0000",1557157774.345088,-1.172788,1.516517,0.407018,-0.050013,-0.998527,-0.021028,0.000000,0.000000,0.000000,-1,-0.349678,-0.832488,0.435022,0.325205,-0.105797,0.158860
"2019-05-06 15:49:34.365 +0000",1557157774.364985,-1.142110,1.507248,0.362075,-0.057759,-0.997981,-0.026398,0.000000,0.000000,0.000000,-1,-0.252510,-0.578751,0.335026,0.391072,-0.119618,0.172852
"2019-05-06 15:49:34.385 +0000",1557157774.384880,-1.128550,1.499575,0.338581,-0.064317,-0.997465,-0.030456,0.000000,0.000000,0.000000,-1,-0.239933,-0.437704,0.316732,0.350999,-0.151568,0.213454
"2019-05-06 15:49:34.405 +0000",1557157774.404777,-1.104697,1.491191,0.307484,-0.071039,-0.996833,-0.035738,0.000000,0.000000,0.000000,-1,-0.337631,-0.208564,0.304584,0.189814,-0.188286,0.247148
"2019-05-06 15:49:34.425 +0000",1557157774.424676,-1.051913,1.484040,0.253906,-0.075243,-0.996239,-0.042970,0.000000,0.000000,0.000000,-1,-0.361666,0.093671,0.086485,0.241335,-0.332069,0.252229
"2019-05-06 15:49:34.445 +0000",1557157774.444572,-0.989934,1.482388,0.195178,-0.073813,-0.996095,-0.048451,0.000000,0.000000,0.000000,-1,-0.111564,0.243085,-0.226881,0.378927,-0.392547,0.196446
"2019-05-06 15:49:34.464 +0000",1557157774.464470,-0.956776,1.489924,0.166721,-0.066027,-0.996732,-0.046544,0.000000,0.000000,0.000000,-1,0.363186,0.236282,-0.512911,0.320467,-0.490512,0.186543
"2019-05-06 15:49:34.484 +0000",1557157774.484366,-1.013330,1.506756,0.228070,-0.054307,-0.997950,-0.033857,0.000000,0.000000,0.000000,-1,0.928450,0.264333,-0.619200,0.144029,-0.536992,0.074460
"2019-05-06 15:49:34.504 +0000",1557157774.504264,-1.302453,1.527791,0.524680,-0.041450,-0.999075,-0.011398,0.000000,0.000000,0.000000,-1,1.331781,0.485628,-0.672969,-0.090356,-0.309885,-0.114701
"2019-05-06 15:49:34.524 +0000",1557157774.524161,-2.162798,1.538505,1.400644,-0.026791,-0.999479,0.018016,0.000000,0.000000,0.000000,-1,1.716197,1.037927,-0.789583,-0.267185,-0.070666,-0.135478
"2019-05-06 15:49:34.544 +0000",1557157774.544059,-2.913486,1.513179,2.172865,-0.013022,-0.998341,0.056094,0.000000,0.000000,0.000000,-1,2.112094,0.901979,-0.645842,-0.450265,-0.053234,-0.101016
"2019-05-06 15:49:34.564 +0000",1557157774.563956,-3.115601,1.472455,2.383818,-0.002552,-0.995168,0.098150,0.000000,0.000000,0.000000,-1,2.089972,-0.183753,-0.489066,-0.580990,-0.188990,-0.121251
"2019-05-06 15:49:34.584 +0000",1557157774.583854,3.070292,1.431662,2.467980,0.009880,-0.990336,0.138332,0.000000,0.000000,0.000000,-1,2.005369,-1.062091,-0.663088,-0.510612,-0.286473,-0.117962
"2019-05-06 15:49:34.604 +0000",1557157774.603751,2.973987,1.390264,2.542149,0.029954,-0.983748,0.177038,0.000000,0.000000,0.000000,-1,1.958694,-1.157307,-1.009281,-0.310227,-0.311021,-0.004950
"2019-05-06 15:49:34.624 +0000",1557157774.623648,2.894875,1.348482,2.606480,0.053848,-0.975390,0.213811,0.000000,0.000000,0.000000,-1,1.909882,-0.331671,-1.125722,0.034012,-0.145994,0.035044
"2019-05-06 15:49:34.644 +0000",1557157774.643546,2.844712,1.309119,2.665539,0.075680,-0.965957,0.247384,0.000000,0.000000,0.000000,-1,1.469929,1.083682,-1.323418,0.160007,-0.251023,0.013557
"2019-05-06 15:49:34.663 +0000",1557157774.663444,2.818890,1.275394,2.724884,0.092325,-0.956685,0.276098,0.000000,0.000000,0.000000,-1,1.341204,1.818384,-1.270344,0.052802,-0.005107,-0.124700
"2019-05-06 15:49:34.683 +0000",1557157774.683340,2.818223,1.244246,2.763095,0.101931,-0.947155,0.304151,0.000000,0.000000,0.000000,-1,1.228722,1.658650,-0.831255,0.065168,0.352062,-0.229551
"2019-05-06 15:49:34.703 +0000",1557157774.703238,2.830675,1.219512,2.778869,0.105273,-0.938932,0.327606,0.000000,0.000000,0.000000,-1,0.960725,1.105291,-0.496013,-0.000140,0.456418,-0.196975
"2019-05-06 15:49:34.723 +0000",1557157774.723136,2.841299,1.200905,2.785817,0.106936,-0.932367,0.345336,0.000000,0.000000,0.000000,-1,0.795805,0.615783,-0.325708,-0.203997,0.415735,-0.158263
"2019-05-06 15:49:34.743 +0000",1557157774.743034,2.848808,1.184411,2.787046,0.108764,-0.926277,0.360806,0.000000,0.000000,0.000000,-1,0.808980,0.318534,-0.188030,-0.238891,0.442024,-0.136227
"2019-05-06 15:49:34.763 +0000",1557157774.762930,2.863205,1.167249,2.778805,0.107911,-0.919674,0.377565,0.000000,0.000000,0.000000,-1,0.944718,0.394304,0.010340,-0.173036,0.444530,-0.037889
"2019-05-06 15:49:34.783 +0000",1557157774.782827,2.887741,1.149100,2.761774,0.102791,-0.912396,0.396192,0.000000,0.000000,0.000000,-1,0.950946,0.517097,0.166531,-0.094506,0.443707,-0.125760
"2019-05-06 15:49:34.803 +0000",1557157774.802725,2.917271,1.135016,2.741970,0.093898,-0.906541,0.411542,0.000000,0.000000,0.000000,-1,0.555059,0.603198,0.268063,-0.044811,0.534287,-0.242108
"2019-05-06 15:49:34.823 +0000",1557157774.822622,2.940243,1.133117,2.728492,0.084764,-0.905738,0.415276,0.000000,0.000000,0.000000,-1,-0.295863,0.448709,0.233314,0.049803,0.582053,-0.287270
"2019-05-06 15:49:34.843 +0000",1557157774.842519,2.950249,1.148901,2.725650,0.077876,-0.912315,0.402017,0.000000,0.000000,0.000000,-1,-1.190179,0.331193,0.195889,0.145681,0.552009,-0.226755
"2019-05-06 15:49:34.862 +0000",1557157774.862416,2.952405,1.178774,2.731278,0.071850,-0.924138,0.375241,0.000000,0.000000,0.000000,-1,-1.705219,0.416938,0.133371,0.135257,0.394201,-0.084454
"2019-05-06 15:49:34.882 +0000",1557157774.882313,2.950986,1.209950,2.743533,0.066890,-0.935598,0.346672,0.000000,0.000000,0.000000,-1,-1.260538,0.609487,-0.018403,0.094136,-0.010202,0.179741
"2019-05-06 15:49:34.902 +0000",1557157774.902211,2.939586,1.223203,2.768696,0.068344,-0.940195,0.333710,0.000000,0.000000,0.000000,-1,-0.242181,0.545334,-0.683850,0.113968,-0.472372,0.544663
"2019-05-06 15:49:34.922 +0000",1557157774.922108,2.894219,1.216980,2.823592,0.084839,-0.938057,0.335933,0.000000,0.000000,0.000000,-1,0.352847,-0.041146,-1.161420,0.174225,-0.954673,0.583958
"2019-05-06 15:49:34.942 +0000",1557157774.942007,2.831203,1.201769,2.883875,0.110171,-0.932679,0.343472,0.000000,0.000000,0.000000,-1,0.574468,-0.308542,-1.276339,-0.040072,-0.909301,0.641056
"2019-05-06 15:49:34.962 +0000",1557157774.961903,2.797085,1.177713,2.915898,0.129365,-0.923732,0.360532,0.000000,0.000000,0.000000,-1,1.377607,-0.040770,-0.543127,-0.302217,0.094600,0.724917
"2019-05-06 15:49:34.982 +0000",1557157774.981802,2.826416,1.147148,2.897862,0.127431,-0.911595,0.390840,0.000000,0.000000,0.000000,-1,1.525110,1.173036,0.129985,-0.403524,0.191823,0.294463
"2019-05-06 15:49:35.002 +0000",1557157775.001698,2.869708,1.130100,2.870578,0.114554,-0.904455,0.410901,0.000000,0.000000,0.000000,-1,0.285258,0.411001,0.474213,-0.190604,-0.388499,-0.336026
"2019-05-06 15:49:35.022 +0000",1557157775.021596,2.881235,1.144581,2.851414,0.106427,-0.910537,0.399495,0.000000,0.000000,0.000000,-1,-1.331934,-0.876108,0.399736,0.029422,-0.814667,-0.685734
"2019-05-06 15:49:35.041 +0000",1557157775.041492,2.834186,1.172528,2.875516,0.117350,-0.921734,0.369642,0.000000,0.000000,0.000000,-1,-1.373513,-1.550195,-0.473317,0.370931,-0.593952,-0.260237
"2019-05-06 15:49:35.061 +0000",1557157775.061390,2.762967,1.185885,2.918779,0.138793,-0.926832,0.348884,0.000000,0.000000,0.000000,-1,-0.380349,-1.524627,-0.478561,-0.066542,-0.491503,0.136788
"2019-05-06 15:49:35.081 +0000",1557157775.081288,2.734016,1.185320,2.933359,0.149041,-0.926619,0.345200,0.000000,0.000000,0.000000,-1,0.148103,-0.177518,-0.067036,-0.201532,0.085753,-0.080323
"2019-05-06 15:49:35.101 +0000",1557157775.101184,2.745450,1.186301,2.924463,0.144733,-0.926988,0.346042,0.000000,0.000000,0.000000,-1,-0.308240,0.358329,0.491365,-0.162785,0.471574,-0.366977
"2019-05-06 15:49:35.121 +0000",1557157775.121083,2.779374,1.209264,2.888309,0.125336,-0.935356,0.330757,0.000000,0.000000,0.000000,-1,-1.383476,-0.585005,1.652493,-0.192750,0.879158,-0.746253
"2019-05-06 15:49:35.141 +0000",1557157775.140979,2.851655,1.253736,2.793361,0.089134,-0.950156,0.298762,0.000000,0.000000,0.000000,-1,-1.684280,-0.896258,2.428112,-0.062218,0.392188,-0.541835
"2019-05-06 15:49:35.161 +0000",1557157775.160876,2.925695,1.299649,2.698510,0.057377,-0.963464,0.261619,0.000000,0.000000,0.000000,-1,-2.011947,-0.869544,1.276692,0.244716,-0.509497,-0.226035
"2019-05-06 15:49:35.181 +0000",1557157775.180774,2.936216,1.338048,2.669736,0.047038,-0.973036,0.225805,0.000000,0.000000,0.000000,-1,-1.485600,-0.881120,0.357377,0.196217,-0.262682,0.143549
"2019-05-06 15:49:35.201 +0000",1557157775.200671,2.909519,1.363007,2.676811,0.047447,-0.978489,0.200766,0.000000,0.000000,0.000000,-1,-1.097106,-1.038101,0.167012,0.091850,0.536625,0.105722
"2019-05-06 15:49:35.221 +0000",1557157775.220569,2.890454,1.387878,2.683870,0.045203,-0.983317,0.176194,0.000000,0.000000,0.000000,-1,-1.402864,-0.169058,0.318578,-0.005912,0.543635,-0.106751
"2019-05-06 15:49:35.240 +0000",1557157775.240467,2.876513,1.420370,2.698236,0.039261,-0.988707,0.144626,0.000000,0.000000,0.000000,-1,-1.779156,0.038954,0.223116,-0.038636,0.148528,-0.271228
"2019-05-06 15:49:35.260 +0000",1557157775.260364,2.836999,1.454574,2.737177,0.034777,-0.993254,0.110623,0.000000,0.000000,0.000000,-1,-1.515951,-0.115305,0.349376,-0.108508,-0.024477,-0.137249
"2019-05-06 15:49:35.280 +0000",1557157775.280262,2.880782,1.480556,2.688302,0.023238,-0.995931,0.087071,0.000000,0.000000,0.000000,-1,-0.860181,-0.508421,0.817587,-0.249450,0.015768,0.104351
"2019-05-06 15:49:35.300 +0000",1557157775.300158,3.041601,1.496367,2.508649,0.007423,-0.997231,0.073990,0.000000,0.000000,0.000000,-1,-0.489354,-1.300743,0.871111,-0.223015,0.029977,0.035110
"2019-05-06 15:49:35.320 +0000",1557157775.320056,-3.027361,1.506013,2.264152,-0.007379,-0.997902,0.064317,0.000000,0.000000,0.000000,-1,-0.527139,-1.571206,0.800472,0.066751,-0.009208,0.079222
"2019-05-06 15:49:35.340 +0000",1557157775.339953,-2.758274,1.513935,1.965583,-0.021255,-0.998384,0.052706,0.000000,0.000000,0.000000,-1,-0.668064,-1.291199,0.785627,0.260406,0.056016,0.052106
"2019-05-06 15:49:35.360 +0000",1557157775.359850,-2.402202,1.516236,1.585856,-0.036747,-0.998512,0.040294,0.000000,0.000000,0.000000,-1,-0.568078,-1.074177,0.882731,0.275562,0.110649,0.100209
"2019-05-06 15:49:35.380 +0000",1557157775.379741,-2.106730,1.506898,1.269681,-0.054904,-0.997959,0.032609,0.000000,0.000000,0.000000,-1,-0.350546,-0.944436,0.995181,0.223087,0.131565,0.163192
"2019-05-06 15:49:35.400 +0000",1557157775.399638,-1.923585,1.491846,1.067534,-0.074012,-0.996885,0.027250,0.000000,0.000000,0.000000,-1,-0.319994,-0.927501,0.958013,0.155738,0.005277,0.136476
"2019-05-06 15:49:35.420 +0000",1557157775.419536,-1.813636,1.476760,0.939781,-0.091144,-0.995582,0.022579,0.000000,0.000000,0.000000,-1,-0.294947,-0.773796,0.786730,0.168308,-0.084237,0.158055
"2019-05-06 15:49:35.439 +0000",1557157775.439433,-1.747705,1.465006,0.860103,-0.103944,-0.994409,0.018583,0.000000,0.000000,0.000000,-1,-0.210816,-0.604129,0.510062,0.356522,-0.141989,0.237490
"2019-05-06 15:49:35.459 +0000",1557157775.459330,-1.711507,1.457590,0.813854,-0.111849,-0.993599,0.015843,0.000000,0.000000,0.000000,-1,-0.208523,-0.363682,0.363010,0.501665,-0.089424,0.152278
"2019-05-06 15:49:35.479 +0000",1557157775.479227,-1.659257,1.451321,0.756366,-0.118726,-0.992871,0.010530,0.000000,0.000000,0.000000,-1,-0.386752,-0.020844,0.304827,0.395047,-0.070147,0.122801
"2019-05-06 15:49:35.499 +0000",1557157775.499125,-1.603963,1.448417,0.706686,-0.122007,-0.992521,0.004048,0.000000,0.000000,0.000000,-1,-0.185224,0.524870,-0.025775,0.395673,-0.333575,0.208431
"2019-05-06 15:49:35.519 +0000",1557157775.519022,-1.554114,1.454467,0.670916,-0.116050,-0.993241,-0.001936,0.000000,0.000000,0.000000,-1,-0.180204,0.917683,-0.560640,0.479972,-0.460998,0.020735
"2019-05-06 15:49:35.539 +0000",1557157775.538921,-1.523846,1.470256,0.660053,-0.100260,-0.994950,-0.004711,0.000000,0.000000,0.000000,-1,0.166559,0.996008,-0.989541,0.392817,-0.435195,0.002834
"2019-05-06 15:49:35.559 +0000",1557157775.558817,-1.610318,1.491553,0.765741,-0.079100,-0.996862,0.003128,0.000000,0.000000,0.000000,-1,0.824416,0.910387,-1.077502,0.113982,-0.522227,0.008606
"2019-05-06 15:49:35.579 +0000",1557157775.578715,-1.964772,1.506893,1.138335,-0.058969,-0.997959,0.024514,0.000000,0.000000,0.000000,-1,1.399867,0.829780,-0.955443,-0.178259,-0.425991,-0.100564
"2019-05-06 15:49:35.599 +0000",1557157775.598612,-2.496179,1.501840,1.690047,-0.041448,-0.997623,0.055044,0.000000,0.000000,0.000000,-1,1.786546,1.113471,-0.882081,-0.369746,-0.238216,-0.174582
"2019-05-06 15:49:35.619 +0000",1557157775.618509,-2.851869,1.474161,2.067221,-0.027565,-0.995334,0.092464,0.000000,0.000000,0.000000,-1,2.002411,0.759266,-0.653227,-0.464791,-0.150997,-0.086559
"2019-05-06 15:49:35.638 +0000",1557157775.638407,-3.010836,1.438279,2.231409,-0.017228,-0.991232,0.131002,0.000000,0.000000,0.000000,-1,1.915472,-0.338701,-0.451100,-0.591415,-0.201593,-0.089849
"2019-05-06 15:49:35.658 +0000",1557157775.658304,-3.100916,1.400937,2.309960,-0.006874,-0.985609,0.168903,0.000000,0.000000,0.000000,-1,1.968215,-0.768005,-0.460532,-0.533577,-0.233721,-0.136219
"2019-05-06 15:49:35.678 +0000",1557157775.678202,3.108128,1.361325,2.372164,0.006957,-0.978141,0.207827,0.000000,0.000000,0.000000,-1,2.001851,-0.528135,-0.738937,-0.273956,-0.242791,-0.106402
"2019-05-06 15:49:35.698 +0000",1557157775.698099,3.044329,1.321771,2.434386,0.023934,-0.969153,0.245294,0.000000,0.000000,0.000000,-1,1.827442,0.318775,-0.892120,0.130180,-0.151285,-0.105478
"2019-05-06 15:49:35.718 +0000",1557157775.717996,3.004840,1.287854,2.493907,0.038060,-0.960238,0.276576,0.000000,0.000000,0.000000,-1,1.317853,1.514111,-1.126624,0.270015,-0.131376,-0.050166
"2019-05-06 15:49:35.738 +0000",1557157775.737893,2.971756,1.263165,2.565346,0.051180,-0.953053,0.298446,0.000000,0.000000,0.000000,-1,0.933952,1.911977,-1.299568,0.206312,-0.078517,-0.098037
"2019-05-06 15:49:35.758 +0000",1557157775.757791,2.946646,1.239931,2.630487,0.062930,-0.945762,0.318708,0.000000,0.000000,0.000000,-1,0.991970,1.725381,-1.028813,0.120953,0.296561,-0.175596
"2019-05-06 15:49:35.778 +0000",1557157775.777689,2.944783,1.216925,2.665925,0.067761,-0.938038,0.339842,0.000000,0.000000,0.000000,-1,1.034649,1.439780,-0.633863,0.005161,0.443776,-0.159483
"2019-05-06 15:49:35.798 +0000",1557157775.797586,2.952842,1.194182,2.684134,0.069006,-0.929915,0.361242,0.000000,0.000000,0.000000,-1,1.117510,1.097464,-0.460017,-0.201926,0.403655,-0.178351
"2019-05-06 15:49:35.817 +0000",1557157775.817483,2.963397,1.170217,2.694599,0.069120,-0.920835,0.383777,0.000000,0.000000,0.000000,-1,1.157382,1.035231,-0.355622,-0.217085,0.396696,-0.177814
"2019-05-06 15:49:35.837 +0000",1557157775.837381,2.983338,1.147885,2.697320,0.064680,-0.911898,0.405289,0.000000,0.000000,0.000000,-1,1.018755,1.187338,-0.126113,-0.137662,0.472246,-0.196304
"2019-05-06 15:49:35.857 +0000",1557157775.857279,3.010657,1.131273,2.693513,0.055555,-0.904955,0.421866,0.000000,0.000000,0.000000,-1,0.604458,1.186944,-0.000016,-0.051252,0.577028,-0.245138
"2019-05-06 15:49:35.877 +0000",1557157775.877175,3.033980,1.125596,2.692208,0.046253,-0.902524,0.428147,0.000000,0.000000,0.000000,-1,-0.016715,1.017398,-0.026875,-0.004810,0.502118,-0.258302
"2019-05-06 15:49:35.897 +0000",1557157775.897075,3.046170,1.132089,2.696996,0.040471,-0.905301,0.422838,0.000000,0.000000,0.000000,-1,-0.636579,0.637669,-0.111196,0.104579,0.486264,-0.173204
"2019-05-06 15:49:35.917 +0000",1557157775.916972,3.045886,1.148910,2.708695,0.039130,-0.912318,0.407608,0.000000,0.000000,0.000000,-1,-1.045703,0.493583,-0.231071,0.188821,0.432109,-0.080567
"2019-05-06 15:49:35.937 +0000",1557157775.936867,3.042046,1.171664,2.726800,0.038622,-0.921399,0.386694,0.000000,0.000000,0.000000,-1,-1.222542,0.813635,-0.244232,0.118529,0.197033,0.039850
"2019-05-06 15:49:35.957 +0000",1557157775.956764,3.045866,1.191700,2.745131,0.035373,-0.929000,0.368387,0.000000,0.000000,0.000000,-1,-0.689290,1.237385,-0.316181,0.054120,-0.130052,0.201926
"2019-05-06 15:49:35.977 +0000",1557157775.976662,3.044942,1.195435,2.776548,0.035378,-0.930375,0.364899,0.000000,0.000000,0.000000,-1,0.194736,1.571317,-0.779239,0.228691,-0.445785,0.470993
"2019-05-06 15:49:35.997 +0000",1557157775.996558,3.038621,1.183306,2.813048,0.038841,-0.925860,0.375864,0.000000,0.000000,0.000000,-1,0.845966,1.092214,-0.685684,0.026177,-1.041898,0.650488
"2019-05-06 15:49:36.016 +0000",1557157776.016457,3.030276,1.160373,2.845694,0.044323,-0.916952,0.396528,0.000000,0.000000,0.000000,-1,1.309855,1.254058,-0.766532,0.020252,-0.694239,0.685915
"2019-05-06 15:49:36.036 +0000",1557157776.036354,3.039885,1.129483,2.864021,0.043367,-0.904191,0.424920,0.000000,0.000000,0.000000,-1,1.599980,1.354035,-0.370574,-0.113558,0.331758,0.464210
"2019-05-06 15:49:36.056 +0000",1557157776.056251,3.061844,1.099083,2.872343,0.036201,-0.890791,0.452968,0.000000,0.000000,0.000000,-1,1.298802,1.549118,-0.300306,-0.266227,0.195433,-0.008861
"2019-05-06 15:49:36.076 +0000",1557157776.076148,3.077551,1.083733,2.881427,0.029953,-0.883711,0.467073,0.000000,0.000000,0.000000,-1,-0.013224,0.550233,-0.175976,0.003814,-0.421922,-0.261811
"2019-05-06 15:49:36.096 +0000",1557157776.096045,3.075473,1.103260,2.886032,0.029778,-0.892681,0.449704,0.000000,0.000000,0.000000,-1,-1.692694,-0.189671,-0.117115,0.086586,-0.914234,-0.688977
"2019-05-06 15:49:36.116 +0000",1557157776.115943,3.047352,1.132492,2.905780,0.039937,-0.905473,0.422522,0.000000,0.000000,0.000000,-1,-1.009067,-0.700826,-0.390405,0.273067,-0.401412,-0.101736
"2019-05-06 15:49:36.136 +0000",1557157776.135840,3.024894,1.138442,2.919130,0.048787,-0.907982,0.416160,0.000000,0.000000,0.000000,-1,0.226265,-0.329869,-0.144088,-0.058827,-0.172829,0.210625
"2019-05-06 15:49:36.156 +0000",1557157776.155739,3.016632,1.132271,2.926673,0.052921,-0.905379,0.421294,0.000000,0.000000,0.000000,-1,0.185546,0.159183,-0.293086,-0.054309,0.163039,-0.285582
"2019-05-06 15:49:36.176 +0000",1557157776.175635,3.005861,1.135873,2.944984,0.057014,-0.906902,0.417466,0.000000,0.000000,0.000000,-1,-0.682195,0.384417,-0.331848,0.091149,0.438015,-0.565507
"2019-05-06 15:49:36.196 +0000",1557157776.195533,3.001300,1.157802,2.954828,0.056123,-0.915923,0.397410,0.000000,0.000000,0.000000,-1,-1.446176,0.081462,0.346613,0.121291,0.555923,-0.653544
"2019-05-06 15:49:36.215 +0000",1557157776.215430,3.026341,1.191398,2.934785,0.042590,-0.928888,0.367905,0.000000,0.000000,0.000000,-1,-1.799227,0.578442,0.604267,0.317792,0.046838,-0.391296
"2019-05-06 15:49:36.235 +0000",1557157776.235328,3.056875,1.230284,2.916198,0.028259,-0.942584,0.332773,0.000000,0.000000,0.000000,-1,-1.891219,0.642666,0.473602,0.337860,-0.316877,-0.313608
"2019-05-06 15:49:36.255 +0000",1557157776.255224,3.089353,1.264095,2.894923,0.015765,-0.953335,0.301504,0.000000,0.000000,0.000000,-1,-1.409680,0.635999,0.455322,0.087125,0.036053,-0.024679
"2019-05-06 15:49:36.275 +0000",1557157776.275122,3.127476,1.288180,2.868871,0.003937,-0.960329,0.278841,0.000000,0.000000,0.000000,-1,-1.017706,0.681337,0.366383,-0.065552,0.264269,0.051847
"2019-05-06 15:49:36.295 +0000",1557157776.295019,-3.117783,1.308166,2.843409,-0.006181,-0.965711,0.259548,0.000000,0.000000,0.000000,-1,-1.096658,0.653956,0.315241,-0.118987,0.323148,-0.137233
"2019-05-06 15:49:36.315 +0000",1557157776.314917,-3.082118,1.336074,2.818833,-0.013824,-0.972579,0.232162,0.000000,0.000000,0.000000,-1,-1.718125,0.522755,0.157691,-0.022996,0.170119,-0.319518
"2019-05-06 15:49:36.335 +0000",1557157776.334814,-3.054020,1.373774,2.798276,-0.017121,-0.980654,0.195001,0.000000,0.000000,0.000000,-1,-2.002176,0.278584,0.035063,0.010834,0.059526,-0.291223
"2019-05-06 15:49:36.355 +0000",1557157776.354711,-3.012823,1.411650,2.760249,-0.020350,-0.987363,0.157163,0.000000,0.000000,0.000000,-1,-1.763362,0.080970,0.293894,-0.017308,0.144712,-0.080060
"2019-05-06 15:49:36.375 +0000",1557157776.374609,-2.914722,1.439880,2.659407,-0.029363,-0.991443,0.127198,0.000000,0.000000,0.000000,-1,-1.292363,-0.232639,0.620764,-0.075251,0.155322,0.011886
"2019-05-06 15:49:36.395 +0000",1557157776.394526,-2.758177,1.458641,2.496491,-0.041869,-0.993717,0.103795,0.000000,0.000000,0.000000,-1,-1.132869,-0.277941,0.662198,-0.057146,0.071033,-0.010258
"2019-05-06 15:49:36.414 +0000",1557157776.414424,-2.552930,1.471980,2.283918,-0.054779,-0.995122,0.082051,0.000000,0.000000,0.000000,-1,-1.104403,-0.364163,0.705477,0.068985,0.055394,-0.047978
"2019-05-06 15:49:36.434 +0000",1557157776.434321,-2.296071,1.478884,2.016264,-0.068683,-0.995779,0.060883,0.000000,0.000000,0.000000,-1,-1.050039,-0.587752,0.774959,0.117526,0.026587,-0.033418
"2019-05-06 15:49:36.454 +0000",1557157776.454219,-2.049318,1.476366,1.755438,-0.083699,-0.995545,0.043417,0.000000,0.000000,0.000000,-1,-0.783787,-0.757357,0.798489,0.131718,-0.028946,0.099481
"2019-05-06 15:49:36.474 +0000",1557157776.474116,-1.896616,1.466096,1.584400,-0.099009,-0.994524,0.033451,0.000000,0.000000,0.000000,-1,-0.371852,-0.988972,0.835490,0.180567,-0.070478,0.217312
"2019-05-06 15:49:36.494 +0000",1557157776.494014,-1.826881,1.451135,1.493945,-0.115483,-0.992849,0.030237,0.000000,0.000000,0.000000,-1,-0.242462,-0.963253,0.870055,0.208195,-0.165171,0.139120
"2019-05-06 15:49:36.514 +0000",1557157776.513911,-1.767505,1.437591,1.418560,-0.130250,-0.991141,0.025957,0.000000,0.000000,0.000000,-1,-0.356255,-0.575193,0.637979,0.435029,-0.200997,0.127913
"2019-05-06 15:49:36.534 +0000",1557157776.533808,-1.719516,1.430621,1.359919,-0.138174,-0.990192,0.020702,0.000000,0.000000,0.000000,-1,-0.307775,-0.493619,0.194034,0.644842,-0.194516,0.168797
"2019-05-06 15:49:36.554 +0000",1557157776.553705,-1.684287,1.429949,1.314494,-0.139478,-0.990097,0.015898,0.000000,0.000000,0.000000,-1,-0.315997,-0.487267,0.068661,0.520475,-0.105896,0.133318
"2019-05-06 15:49:36.574 +0000",1557157776.573604,-1.639569,1.427491,1.264172,-0.142477,-0.989749,0.009814,0.000000,0.000000,0.000000,-1,-0.341966,0.084488,0.134902,0.301626,-0.096035,0.118070
"2019-05-06 15:49:36.594 +0000",1557157776.593500,-1.598930,1.427576,1.231760,-0.142675,-0.989761,0.004015,0.000000,0.000000,0.000000,-1,-0.119236,0.680675,-0.120601,0.397116,-0.369217,0.224089
"2019-05-06 15:49:36.613 +0000",1557157776.613397,-1.573870,1.434169,1.224826,-0.136202,-0.990681,0.000419,0.000000,0.000000,0.000000,-1,0.020307,1.128682,-0.567358,0.535707,-0.378277,0.019662
"2019-05-06 15:49:36.633 +0000",1557157776.633295,-1.572508,1.449825,1.248054,-0.120677,-0.992692,0.000207,0.000000,0.000000,0.000000,-1,0.318649,1.229768,-0.944360,0.477793,-0.373305,0.005515
"2019-05-06 15:49:36.653 +0000",1557157776.653192,-1.666937,1.469828,1.365189,-0.100332,-0.994907,0.009676,0.000000,0.000000,0.000000,-1,0.883915,1.049618,-1.083503,0.198598,-0.385662,-0.040697
"2019-05-06 15:49:36.673 +0000",1557157776.673090,-1.926841,1.485892,1.647336,-0.079484,-0.996398,0.029560,0.000000,0.000000,0.000000,-1,1.315178,1.120009,-1.015731,-0.137298,-0.298265,-0.150424
"2019-05-06 15:49:36.693 +0000",1557157776.692987,-2.321158,1.486981,2.067950,-0.061234,-0.996490,0.057087,0.000000,0.000000,0.000000,-1,1.630749,1.277463,-0.936517,-0.364349,-0.145417,-0.190647
"2019-05-06 15:49:36.713 +0000",1557157776.712885,-2.671908,1.468739,2.441885,-0.046111,-0.994797,0.090847,0.000000,0.000000,0.000000,-1,1.891054,0.809194,-0.688789,-0.496064,-0.135742,-0.106777
"2019-05-06 15:49:36.733 +0000",1557157776.732781,-2.869997,1.436426,2.647912,-0.035939,-0.990986,0.129057,0.000000,0.000000,0.000000,-1,2.001603,-0.192495,-0.438619,-0.592448,-0.270473,-0.175230
"2019-05-06 15:49:36.753 +0000",1557157776.752679,-2.990934,1.398221,2.762066,-0.025773,-0.985146,0.169775,0.000000,0.000000,0.000000,-1,2.172552,-0.502569,-0.464084,-0.536208,-0.261879,-0.086111
"2019-05-06 15:49:36.773 +0000",1557157776.772576,-3.073952,1.353869,2.834889,-0.014547,-0.976563,0.214738,0.000000,0.000000,0.000000,-1,2.329625,-0.476265,-0.416370,-0.283945,-0.176986,-0.040666
"2019-05-06 15:49:36.792 +0000",1557157776.792474,-3.123867,1.309568,2.882649,-0.004578,-0.966073,0.258226,0.000000,0.000000,0.000000,-1,2.167813,0.303851,-0.521124,0.149567,-0.196097,0.012678
"2019-05-06 15:49:36.812 +0000",1557157776.812371,3.134076,1.271803,2.925726,0.002214,-0.955634,0.294549,0.000000,0.000000,0.000000,-1,1.554910,1.211073,-0.619239,0.317076,0.033713,-0.064142
"2019-05-06 15:49:36.832 +0000",1557157776.832268,3.123535,1.247932,2.967010,0.005729,-0.948330,0.317233,0.000000,0.000000,0.000000,-1,0.891023,1.658662,-0.765346,0.150323,-0.006809,-0.149982
"2019-05-06 15:49:36.852 +0000",1557157776.852165,3.104362,1.233057,3.023936,0.012334,-0.943506,0.331126,0.000000,0.000000,0.000000,-1,0.609511,1.767864,-1.132641,0.184398,0.030527,-0.097193
"2019-05-06 15:49:36.872 +0000",1557157776.872062,3.073578,1.221395,3.095039,0.023266,-0.939578,0.341544,0.000000,0.000000,0.000000,-1,0.488934,1.836929,-1.286111,0.054523,0.152118,-0.051078
"2019-05-06 15:49:36.892 +0000",1557157776.891960,3.037720,1.209183,-3.113363,0.036682,-0.935327,0.351876,0.000000,0.000000,0.000000,-1,0.546827,1.564374,-1.402812,-0.084915,0.285318,-0.111688
"2019-05-06 15:49:36.912 +0000",1557157776.911858,2.999737,1.192928,-3.042643,0.052161,-0.929453,0.365234,0.000000,0.000000,0.000000,-1,0.782460,1.242756,-1.286219,-0.129935,0.425501,-0.117340
"2019-05-06 15:49:36.932 +0000",1557157776.931755,2.974663,1.173352,-2.990276,0.064313,-0.922053,0.381683,0.000000,0.000000,0.000000,-1,0.800438,1.153626,-0.963595,-0.098019,0.549235,-0.119308
"2019-05-06 15:49:36.952 +0000",1557157776.951652,2.969891,1.157483,-2.958776,0.068625,-0.915795,0.395740,0.000000,0.000000,0.000000,-1,0.540926,1.321913,-0.514869,-0.107398,0.640328,-0.236682
"2019-05-06 15:49:36.972 +0000",1557157776.971551,2.985174,1.150035,-2.946468,0.063630,-0.912778,0.403468,0.000000,0.000000,0.000000,-1,0.086993,1.259462,-0.151408,-0.078782,0.703168,-0.360408
"2019-05-06 15:49:36.991 +0000",1557157776.991446,3.000300,1.154119,-2.938386,0.056995,-0.914439,0.400691,0.000000,0.000000,0.000000,-1,-0.517282,1.023076,-0.131934,-0.025897,0.648722,-0.345592
"2019-05-06 15:49:37.011 +0000",1557157777.011345,3.007258,1.168884,-2.925792,0.052391,-0.920315,0.387655,0.000000,0.000000,0.000000,-1,-0.995135,0.835591,-0.175399,0.044090,0.502010,-0.203039
"2019-05-06 15:49:37.031 +0000",1557157777.031241,3.004839,1.191196,-2.907582,0.050516,-0.928813,0.367089,0.000000,0.000000,0.000000,-1,-1.237603,0.661792,-0.205605,0.093542,0.263362,-0.030022
"2019-05-06 15:49:37.051 +0000",1557157777.051139,3.000729,1.212145,-2.888330,0.049281,-0.936371,0.347535,0.000000,0.000000,0.000000,-1,-0.808135,0.781927,-0.215024,0.082890,-0.154709,0.231414
"2019-05-06 15:49:37.071 +0000",1557157777.071037,2.990917,1.218676,-2.861664,0.051770,-0.938643,0.340981,0.000000,0.000000,0.000000,-1,0.017246,0.691213,-0.670538,0.154865,-0.559266,0.515952
"2019-05-06 15:49:37.091 +0000",1557157777.090934,2.963829,1.209930,-2.820525,0.062436,-0.935591,0.347521,0.000000,0.000000,0.000000,-1,0.583543,0.416647,-0.912304,0.044971,-0.808137,0.536695
"2019-05-06 15:49:37.111 +0000",1557157777.110832,2.920791,1.190569,-2.769789,0.081282,-0.928580,0.362122,0.000000,0.000000,0.000000,-1,0.921674,0.147915,-1.220816,0.067522,-0.774819,0.672470
"2019-05-06 15:49:37.131 +0000",1557157777.130728,2.893405,1.163892,-2.730169,0.097219,-0.918350,0.383642,0.000000,0.000000,0.000000,-1,1.401223,0.821108,-0.790527,-0.190527,-0.080551,0.664500
"2019-05-06 15:49:37.151 +0000",1557157777.150626,2.910175,1.128765,-2.720201,0.098114,-0.903885,0.416372,0.000000,0.000000,0.000000,-1,1.820347,1.699128,-0.484363,-0.317215,0.056701,0.412912
"2019-05-06 15:49:37.171 +0000",1557157777.170523,2.936121,1.099583,-2.719066,0.092622,-0.891018,0.444419,0.000000,0.000000,0.000000,-1,0.668945,0.495180,-0.100975,-0.195970,-0.686634,-0.093894
"2019-05-06 15:49:37.190 +0000",1557157777.190421,2.930382,1.109019,-2.723145,0.093405,-0.895262,0.435640,0.000000,0.000000,0.000000,-1,-1.365624,-0.916987,0.201359,0.161997,-1.053789,-1.023195
"2019-05-06 15:49:37.210 +0000",1557157777.210318,2.888390,1.137758,-2.702790,0.105120,-0.907695,0.406250,0.000000,0.000000,0.000000,-1,-1.346080,-1.449755,-0.223702,0.227308,-0.181721,-0.199234
"2019-05-06 15:49:37.230 +0000",1557157777.230215,2.849156,1.153500,-2.688755,0.116840,-0.914188,0.388084,0.000000,0.000000,0.000000,-1,-0.298781,-1.119121,0.053816,-0.326526,-0.084393,0.293832
"2019-05-06 15:49:37.250 +0000",1557157777.250113,2.838533,1.154069,-2.693788,0.120800,-0.914419,0.386323,0.000000,0.000000,0.000000,-1,0.149103,-0.329949,0.170925,-0.284298,0.185583,-0.072755
"2019-05-06 15:49:37.270 +0000",1557157777.270010,2.845073,1.156239,-2.701115,0.117691,-0.915295,0.385207,0.000000,0.000000,0.000000,-1,-0.448953,0.048869,0.095245,-0.044968,0.463467,-0.358977
"2019-05-06 15:49:37.290 +0000",1557157777.289907,2.838714,1.176972,-2.697220,0.114453,-0.923448,0.366256,0.000000,0.000000,0.000000,-1,-1.514004,-0.424423,0.523359,0.095279,0.642595,-0.633056
"2019-05-06 15:49:37.310 +0000",1557157777.309805,2.834477,1.214829,-2.707333,0.105355,-0.937310,0.332191,0.000000,0.000000,0.000000,-1,-1.986104,-0.775398,0.761818,0.281013,0.205697,-0.540123
"2019-05-06 15:49:37.330 +0000",1557157777.329702,2.819366,1.261364,-2.708467,0.096434,-0.952507,0.288845,0.000000,0.000000,0.000000,-1,-2.305005,-0.856537,0.779877,0.314592,-0.406151,-0.403514
"2019-05-06 15:49:37.350 +0000",1557157777.349600,2.813290,1.304129,-2.717557,0.084968,-0.964654,0.249444,0.000000,0.000000,0.000000,-1,-1.549596,-0.610063,0.845553,-0.051307,0.120340,0.095817
"2019-05-06 15:49:37.369 +0000",1557157777.369497,2.837129,1.330557,-2.751922,0.071328,-0.971281,0.226992,0.000000,0.000000,0.000000,-1,-0.797907,-0.378359,0.740971,-0.123208,0.356108,0.198591
"2019-05-06 15:49:37.389 +0000",1557157777.389376,2.854691,1.349535,-2.776669,0.062103,-0.975621,0.210490,0.000000,0.000000,0.000000,-1,-0.977921,-0.291877,0.360904,-0.094025,0.315572,-0.044565
"2019-05-06 15:49:37.409 +0000",1557157777.409274,2.825289,1.375164,-2.754009,0.060465,-0.980925,0.184743,0.000000,0.000000,0.000000,-1,-1.654200,-0.411859,-0.062799,0.084524,0.151167,-0.317418
"2019-05-06 15:49:37.429 +0000",1557157777.429171,2.724423,1.408613,-2.659520,0.065425,-0.986877,0.147626,0.000000,0.000000,0.000000,-1,-1.926240,-0.389871,-0.211418,0.073659,0.059051,-0.273496
"2019-05-06 15:49:37.449 +0000",1557157777.449069,2.603234,1.440157,-2.544513,0.066792,-0.991479,0.111842,0.000000,0.000000,0.000000,-1,-1.618119,-0.342946,0.243711,-0.080571,0.143853,0.017903
"2019-05-06 15:49:37.469 +0000",1557157777.468965,2.541564,1.469234,-2.490628,0.057250,-0.994847,0.083678,0.000000,0.000000,0.000000,-1,-1.130798,-0.548091,0.767593,-0.206695,0.195180,0.032915
"2019-05-06 15:49:37.489 +0000",1557157777.488864,2.573438,1.493980,-2.537262,0.041293,-0.997051,0.064685,0.000000,0.000000,0.000000,-1,-0.779873,-0.852402,0.927177,-0.132785,0.125606,0.065289
"2019-05-06 15:49:37.509 +0000",1557157777.508760,2.687164,1.517574,-2.669901,0.023351,-0.998584,0.047798,0.000000,0.000000,0.000000,-1,-0.906572,-1.025202,0.977466,0.083827,0.025943,0.058907
"2019-05-06 15:49:37.529 +0000",1557157777.528657,2.984397,1.542801,-2.989269,0.004382,-0.999608,0.027649,0.000000,0.000000,0.000000,-1,-1.047886,-1.177408,1.016855,0.135571,0.018346,0.000076
"2019-05-06 15:49:37.549 +0000",1557157777.548554,-2.051736,1.553043,2.022430,-0.015733,-0.999842,0.008210,0.000000,0.000000,0.000000,-1,-0.843718,-1.237293,1.066296,0.109453,0.031184,0.089248
"2019-05-06 15:49:37.568 +0000",1557157777.568453,-1.477911,1.532865,1.424538,-0.037759,-0.999281,-0.003517,0.000000,0.000000,0.000000,-1,-0.405941,-1.144662,1.150164,0.112481,-0.041476,0.244927
"2019-05-06 15:49:37.588 +0000",1557157777.588349,-1.429892,1.509704,1.354665,-0.060449,-0.998134,-0.008574,0.000000,0.000000,0.000000,-1,-0.236064,-1.042909,1.084401,0.165597,-0.138035,0.203399
"2019-05-06 15:49:37.608 +0000",1557157777.608247,-1.429503,1.491522,1.334811,-0.078402,-0.996859,-0.011152,0.000000,0.000000,0.000000,-1,-0.165462,-0.889056,0.653429,0.423007,-0.152066,0.260816
"2019-05-06 15:49:37.628 +0000",1557157777.628144,-1.424332,1.483646,1.313778,-0.086108,-0.996205,-0.012703,0.000000,0.000000,0.000000,-1,-0.107389,-0.705478,0.125909,0.611285,-0.162029,0.257408
"2019-05-06 15:49:37.648 +0000",1557157777.648041,-1.402287,1.483161,1.280489,-0.086283,-0.996162,-0.014679,0.000000,0.000000,0.000000,-1,-0.177385,-0.434023,-0.029479,0.502360,-0.106682,0.210571
"2019-05-06 15:49:37.668 +0000",1557157777.667939,-1.367614,1.483401,1.242097,-0.085489,-0.996184,-0.017613,0.000000,0.000000,0.000000,-1,-0.055835,0.229265,-0.050643,0.303965,-0.140932,0.215931
"2019-05-06 15:49:37.688 +0000",1557157777.687836,-1.394007,1.487551,1.277207,-0.081854,-0.996537,-0.014624,0.000000,0.000000,0.000000,-1,0.383863,0.520047,-0.327903,0.384482,-0.457992,0.282949
"2019-05-06 15:49:37.708 +0000",1557157777.707734,-1.473725,1.498624,1.371154,-0.071771,-0.997397,-0.006989,0.000000,0.000000,0.000000,-1,0.540187,0.819126,-0.608276,0.299035,-0.677347,0.056565
"2019-05-06 15:49:37.728 +0000",1557157777.727601,-1.694826,1.511830,1.612719,-0.058479,-0.998262,0.007291,0.000000,0.000000,0.000000,-1,1.200077,1.090776,-0.586513,0.127815,-0.485716,-0.051099
"2019-05-06 15:49:37.747 +0000",1557157777.747498,-2.212525,1.509985,2.148277,-0.048684,-0.998152,0.036378,0.000000,0.000000,0.000000,-1,1.767475,0.596685,-0.473507,0.009149,-0.299822,-0.185960
"2019-05-06 15:49:37.767 +0000",1557157777.767396,-2.686190,1.485131,2.631488,-0.037632,-0.996333,0.076841,0.000000,0.000000,0.000000,-1,2.255831,0.225046,-0.738451,-0.205013,-0.214132,-0.154646
"2019-05-06 15:49:37.787 +0000",1557157777.787293,-2.966696,1.448467,2.914593,-0.021233,-0.992527,0.120164,0.000000,0.000000,0.000000,-1,2.078631,-0.106253,-0.845849,-0.506889,-0.227413,-0.044984
"2019-05-06 15:49:37.807 +0000",1557157777.807191,-3.108627,1.412188,3.049867,-0.005206,-0.987448,0.157859,0.000000,0.000000,0.000000,-1,1.769287,-0.751038,-0.649032,-0.616330,-0.297098,-0.141883
"2019-05-06 15:49:37.827 +0000",1557157777.827087,3.082247,1.377882,3.124514,0.011371,-0.981450,0.191383,0.000000,0.000000,0.000000,-1,1.757841,-1.057134,-0.721468,-0.495593,-0.217586,-0.056328
"2019-05-06 15:49:37.847 +0000",1557157777.846985,3.007085,1.338713,-3.105488,0.030844,-0.973189,0.227928,0.000000,0.000000,0.000000,-1,2.022959,-1.228175,-0.794311,-0.327643,-0.154252,0.026162
"2019-05-06 15:49:37.867 +0000",1557157777.866883,2.942121,1.295093,-3.061336,0.053942,-0.962234,0.266826,0.000000,0.000000,0.000000,-1,2.051452,-0.906444,-1.000098,0.056486,-0.147416,0.008000
"2019-05-06 15:49:37.887 +0000",1557157777.886779,2.886990,1.254629,-3.010052,0.078310,-0.950434,0.300903,0.000000,0.000000,0.000000,-1,1.491639,0.406642,-1.309221,0.265196,-0.246679,0.053879
"2019-05-06 15:49:37.907 +0000",1557157777.906677,2.851714,1.224717,-2.949816,0.096959,-0.940710,0.325060,0.000000,0.000000,0.000000,-1,0.976177,1.589335,-1.407789,0.096309,-0.053736,-0.088274
"2019-05-06 15:49:37.927 +0000",1557157777.926573,2.834685,1.200756,-2.893704,0.109260,-0.932313,0.344754,0.000000,0.000000,0.000000,-1,0.701839,1.829340,-1.094251,0.068017,0.453538,-0.299130
"2019-05-06 15:49:37.946 +0000",1557157777.946472,2.831015,1.185719,-2.856597,0.114796,-0.926769,0.357660,0.000000,0.000000,0.000000,-1,0.391442,1.275064,-0.696300,0.022869,0.609005,-0.204919
"2019-05-06 15:49:37.966 +0000",1557157777.966369,2.828135,1.174107,-2.831982,0.119136,-0.922345,0.367540,0.000000,0.000000,0.000000,-1,0.466410,0.731462,-0.610011,-0.165568,0.629285,-0.125032
"2019-05-06 15:49:37.986 +0000",1557157777.986266,2.820781,1.159406,-2.810861,0.126098,-0.916566,0.379482,0.000000,0.000000,0.000000,-1,0.706494,0.570031,-0.631749,-0.166458,0.540101,-0.137661
"2019-05-06 15:49:38.006 +0000",1557157778.006163,2.822855,1.140891,-2.796314,0.130607,-0.909005,0.395792,0.000000,0.000000,0.000000,-1,0.813296,1.085556,-0.437623,-0.154060,0.574715,-0.179682
"2019-05-06 15:49:38.026 +0000",1557157778.026061,2.851091,1.125506,-2.796644,0.123373,-0.902486,0.412673,0.000000,0.000000,0.000000,-1,0.607854,1.625337,-0.028525,-0.168539,0.682149,-0.329161
"2019-05-06 15:49:38.046 +0000",1557157778.045958,2.890887,1.121569,-2.804083,0.107737,-0.900783,0.420693,0.000000,0.000000,0.000000,-1,-0.227215,1.598094,0.199015,-0.108073,0.674800,-0.439202
"2019-05-06 15:49:38.066 +0000",1557157778.065857,2.918251,1.137587,-2.805829,0.092978,-0.907623,0.409359,0.000000,0.000000,0.000000,-1,-1.289188,0.928860,0.217401,0.047388,0.544220,-0.300930
"2019-05-06 15:49:38.086 +0000",1557157778.085753,2.917571,1.169424,-2.793255,0.086791,-0.920526,0.380920,0.000000,0.000000,0.000000,-1,-1.792375,0.224815,-0.036430,0.113282,0.367303,-0.026641
"2019-05-06 15:49:38.106 +0000",1557157778.105651,2.896484,1.199536,-2.768365,0.088035,-0.931871,0.351946,0.000000,0.000000,0.000000,-1,-1.199166,0.175501,-0.141217,0.150566,-0.143095,0.360533
"2019-05-06 15:49:38.126 +0000",1557157778.125547,2.879008,1.210861,-2.740468,0.091427,-0.935920,0.340141,0.000000,0.000000,0.000000,-1,-0.172853,0.611723,-0.690684,0.299076,-0.457696,0.684517
"2019-05-06 15:49:38.145 +0000",1557157778.145444,2.847242,1.201417,-2.692746,0.104743,-0.932552,0.345508,0.000000,0.000000,0.000000,-1,0.590491,0.686960,-1.061489,0.378533,-0.645009,0.569241
"2019-05-06 15:49:38.165 +0000",1557157778.165343,2.827036,1.180355,-2.655080,0.117755,-0.924741,0.361922,0.000000,0.000000,0.000000,-1,0.865542,0.900923,-1.032063,-0.028430,-0.886508,0.677369
"2019-05-06 15:49:38.185 +0000",1557157778.185239,2.817719,1.157430,-2.617199,0.127836,-0.915774,0.380810,0.000000,0.000000,0.000000,-1,0.986908,1.682857,-0.902452,-0.013685,-0.356672,0.615039
"2019-05-06 15:49:38.205 +0000",1557157778.205137,2.845482,1.128592,-2.604753,0.124872,-0.903811,0.409309,0.000000,0.000000,0.000000,-1,1.558577,2.088661,-0.481428,-0.421640,-0.083998,0.407555
"2019-05-06 15:49:38.225 +0000",1557157778.225034,2.873618,1.104869,-2.606960,0.118952,-0.893405,0.433218,0.000000,0.000000,0.000000,-1,0.394041,0.036684,-0.016502,-0.149775,-0.815228,-0.260244
"2019-05-06 15:49:38.245 +0000",1557157778.244932,2.854011,1.118103,-2.606040,0.124059,-0.899272,0.419427,0.000000,0.000000,0.000000,-1,-1.504543,-1.440221,0.101121,0.078288,-0.696614,-1.011316
"2019-05-06 15:49:38.265 +0000",1557157778.264829,2.795284,1.148241,-2.574321,0.139197,-0.912044,0.385747,0.000000,0.000000,0.000000,-1,-1.437337,-1.453290,-0.298566,0.127252,-0.313374,-0.080113
"2019-05-06 15:49:38.285 +0000",1557157778.284727,2.756815,1.161976,-2.554009,0.149213,-0.917590,0.368461,0.000000,0.000000,0.000000,-1,-0.168242,-0.435534,0.014522,-0.300428,-0.239606,0.201470
"2019-05-06 15:49:38.305 +0000",1557157778.304624,2.762783,1.162235,-2.560247,0.146923,-0.917693,0.369124,0.000000,0.000000,0.000000,-1,0.017614,0.366192,0.239028,-0.168988,0.108260,-0.251738
"2019-05-06 15:49:38.325 +0000",1557157778.324521,2.781549,1.170718,-2.570677,0.137223,-0.921031,0.364516,0.000000,0.000000,0.000000,-1,-0.761903,0.419420,0.463832,0.013244,0.439387,-0.436630
"2019-05-06 15:49:38.344 +0000",1557157778.344418,2.799544,1.198768,-2.588096,0.121926,-0.931592,0.342448,0.000000,0.000000,0.000000,-1,-1.509568,-0.312015,1.239531,-0.038629,0.579755,-0.594096
"2019-05-06 15:49:38.364 +0000",1557157778.364316,2.836577,1.239025,-2.641072,0.097816,-0.945467,0.310683,0.000000,0.000000,0.000000,-1,-1.778872,-0.794816,1.575714,0.047890,0.152514,-0.420028
"2019-05-06 15:49:38.384 +0000",1557157778.384224,2.873518,1.283049,-2.693812,0.075170,-0.958886,0.273657,0.000000,0.000000,0.000000,-1,-1.874863,-0.469114,1.209025,0.123011,-0.207252,-0.311987
"2019-05-06 15:49:38.404 +0000",1557157778.404120,2.913809,1.318760,-2.743176,0.056314,-0.968407,0.242935,0.000000,0.000000,0.000000,-1,-1.194645,-0.361399,0.945399,-0.027047,0.038399,0.113328
"2019-05-06 15:49:38.424 +0000",1557157778.424019,2.940743,1.340946,-2.780276,0.045453,-0.973701,0.223252,0.000000,0.000000,0.000000,-1,-0.898724,-0.575769,0.441469,0.080051,0.670554,0.056213
"2019-05-06 15:49:38.444 +0000",1557157778.443916,2.930947,1.363177,-2.777993,0.043100,-0.978524,0.201574,0.000000,0.000000,0.000000,-1,-1.406709,-0.083539,-0.131277,0.090948,0.590646,-0.170965
"2019-05-06 15:49:38.464 +0000",1557157778.463813,2.846192,1.396132,-2.692667,0.050591,-0.984785,0.166251,0.000000,0.000000,0.000000,-1,-2.133327,0.041402,-0.475626,0.169288,0.031828,-0.410896
"2019-05-06 15:49:38.484 +0000",1557157778.483710,2.713236,1.434209,-2.553599,0.056559,-0.990686,0.123861,0.000000,0.000000,0.000000,-1,-2.046211,0.284729,-0.144221,-0.073084,0.053324,-0.123953
"2019-05-06 15:49:38.504 +0000",1557157778.503607,2.617566,1.466451,-2.454905,0.052117,-0.994561,0.090179,0.000000,0.000000,0.000000,-1,-1.311078,-0.144025,0.668612,-0.271477,0.052544,0.190048
"2019-05-06 15:49:38.524 +0000",1557157778.523505,2.734241,1.494441,-2.582436,0.030221,-0.997086,0.070039,0.000000,0.000000,0.000000,-1,-0.723234,-0.928568,1.451504,-0.493081,0.157807,0.039367
"2019-05-06 15:49:38.543 +0000",1557157778.543402,3.093165,1.513523,-2.965408,0.002771,-0.998360,0.057174,0.000000,0.000000,0.000000,-1,-0.603312,-1.236650,1.397639,0.069540,0.019784,0.075379
"2019-05-06 15:49:38.563 +0000",1557157778.563299,-2.692024,1.522464,2.795837,-0.020996,-0.998832,0.043514,0.000000,0.000000,0.000000,-1,-0.755738,-1.174747,1.112136,0.295258,-0.042824,0.091145
"2019-05-06 15:49:38.583 +0000",1557157778.583197,-2.190832,1.520957,2.272493,-0.040545,-0.998758,0.028948,0.000000,0.000000,0.000000,-1,-0.729971,-1.020214,0.975116,0.277407,0.064112,0.056593
"2019-05-06 15:49:38.603 +0000",1557157778.603094,-1.874214,1.509287,1.933901,-0.058662,-0.998109,0.018366,0.000000,0.000000,0.000000,-1,-0.406791,-1.156881,0.913559,0.151237,0.104173,0.198675
"2019-05-06 15:49:38.623 +0000",1557157778.622992,-1.755122,1.492802,1.789574,-0.076593,-0.996960,0.014280,0.000000,0.000000,0.000000,-1,-0.251342,-1.293877,0.930471,0.080500,-0.091297,0.174105
"2019-05-06 15:49:38.643 +0000",1557157778.642889,-1.678522,1.476850,1.688844,-0.093265,-0.995590,0.010086,0.000000,0.000000,0.000000,-1,-0.349992,-1.044134,0.728764,0.241367,-0.102905,0.158463
"2019-05-06 15:49:38.663 +0000",1557157778.662785,-1.628961,1.467283,1.620853,-0.103154,-0.994647,0.006007,0.000000,0.000000,0.000000,-1,-0.212227,-0.850371,0.264199,0.552250,-0.144467,0.223318
"2019-05-06 15:49:38.683 +0000",1557157778.682683,-1.605211,1.465348,1.581971,-0.105190,-0.994445,0.003622,0.000000,0.000000,0.000000,-1,-0.235885,-0.638724,0.009840,0.599041,-0.126297,0.108775
"2019-05-06 15:49:38.703 +0000",1557157778.702580,-1.547424,1.465265,1.512995,-0.105308,-0.994437,-0.002462,0.000000,0.000000,0.000000,-1,-0.425670,-0.257408,-0.024976,0.340842,-0.097238,0.075292
"2019-05-06 15:49:38.722 +0000",1557157778.722478,-1.483638,1.468007,1.449490,-0.102219,-0.994722,-0.008932,0.000000,0.000000,0.000000,-1,-0.196549,0.204349,-0.328373,0.434998,-0.336821,0.296865
"2019-05-06 15:49:38.742 +0000",1557157778.742375,-1.444620,1.479742,1.418293,-0.090205,-0.995857,-0.011443,0.000000,0.000000,0.000000,-1,0.003837,0.651064,-0.864401,0.559901,-0.436500,0.029082
"2019-05-06 15:49:38.762 +0000",1557157778.762274,-1.423255,1.501550,1.413540,-0.068438,-0.997603,-0.010171,0.000000,0.000000,0.000000,-1,0.311185,0.850590,-1.273587,0.425433,-0.437501,-0.035681
