timestamp,timeIntervalSince1970,attitude.roll,attitude.pitch,attitude.yaw,gravity.x,gravity.y,gravity.z,magneticField.x,magneticField.y,magneticField.z,magneticField.accuracy,rotationRate.x,rotationRate.y,rotationRate.z,userAcceleration.x,userAcceleration.y,userAcceleration.z
"2019-05-06 15:53:54.197 +0000",1557158034.197254,0.024343,0.010264,-0.001576,0.024340,-0.010263,-0.999651,0.000000,0.000000,0.000000,-1,0.218631,-0.378610,-0.288409,-0.037813,0.022455,-0.052351
"2019-05-06 15:53:54.217 +0000",1557158034.217242,0.011335,0.017369,-0.006930,0.011333,-0.017368,-0.999785,0.000000,0.000000,0.000000,-1,0.288568,-0.603368,-0.211353,-0.007503,-0.099743,-0.090105
"2019-05-06 15:53:54.237 +0000",1557158034.237199,-0.003167,0.023496,-0.007629,-0.003166,-0.023494,-0.999719,0.000000,0.000000,0.000000,-1,0.367632,-0.784458,0.063201,0.085274,-0.141621,-0.047934
"2019-05-06 15:53:54.257 +0000",1557158034.257189,-0.016392,0.032186,-0.005385,-0.016383,-0.032181,-0.999348,0.000000,0.000000,0.000000,-1,0.420535,-0.602952,0.079298,0.105891,-0.060058,0.026264
"2019-05-06 15:53:54.277 +0000",1557158034.277177,-0.027011,0.038154,-0.008474,-0.026988,-0.038145,-0.998908,0.000000,0.000000,0.000000,-1,0.162147,-0.702392,-0.326557,-0.056859,0.024869,0.099692
"2019-05-06 15:53:54.297 +0000",1557158034.297135,-0.048152,0.035291,-0.013475,-0.048104,-0.035284,-0.998219,0.000000,0.000000,0.000000,-1,-0.260394,-1.055019,-0.142791,-0.019218,-0.132227,0.155690
"2019-05-06 15:53:54.317 +0000",1557158034.317125,-0.064642,0.024694,-0.017674,-0.064578,-0.024692,-0.997607,0.000000,0.000000,0.000000,-1,-0.712558,-0.599759,-0.225939,0.038989,-0.131238,0.295230
"2019-05-06 15:53:54.337 +0000",1557158034.337112,-0.069568,0.013035,-0.022288,-0.069506,-0.013034,-0.997496,0.000000,0.000000,0.000000,-1,-0.414718,-0.204413,-0.167036,0.047000,-0.131268,0.232527
"2019-05-06 15:53:54.357 +0000",1557158034.357069,-0.076826,0.010584,-0.024636,-0.076746,-0.010583,-0.996994,0.000000,0.000000,0.000000,-1,-0.050768,-0.529890,-0.067690,0.036204,-0.151251,0.049210
"2019-05-06 15:53:54.377 +0000",1557158034.377058,-0.094603,0.008271,-0.028319,-0.094459,-0.008271,-0.995494,0.000000,0.000000,0.000000,-1,-0.131068,-1.040882,-0.277473,-0.107766,-0.088851,0.043224
"2019-05-06 15:53:54.397 +0000",1557158034.397017,-0.120906,0.009662,-0.036161,-0.120606,-0.009662,-0.992653,0.000000,0.000000,0.000000,-1,0.113667,-1.533884,-0.417307,-0.056075,-0.114346,-0.003700
"2019-05-06 15:53:54.417 +0000",1557158034.417006,-0.162911,0.014637,-0.042464,-0.162174,-0.014637,-0.986654,0.000000,0.000000,0.000000,-1,0.241886,-2.563402,-0.298134,-0.026714,-0.185269,-0.120997
"2019-05-06 15:53:54.437 +0000",1557158034.436992,-0.227612,0.017606,-0.047314,-0.225617,-0.017605,-0.974057,0.000000,0.000000,0.000000,-1,-0.062907,-3.360983,-0.236474,-0.203567,-0.064426,-0.094211
"2019-05-06 15:53:54.457 +0000",1557158034.456950,-0.286778,0.013228,-0.053713,-0.282838,-0.013228,-0.959076,0.000000,0.000000,0.000000,-1,-0.437789,-2.905682,-0.368277,-0.131743,0.057173,0.383896
"2019-05-06 15:53:54.477 +0000",1557158034.476938,-0.345637,0.011250,-0.065133,-0.338775,-0.011250,-0.940800,0.000000,0.000000,0.000000,-1,0.379898,-2.145133,-0.506451,-0.058381,-0.005291,0.327534
"2019-05-06 15:53:54.497 +0000",1557158034.496927,-0.376415,0.016059,-0.072202,-0.367542,-0.016059,-0.929868,0.000000,0.000000,0.000000,-1,-0.587070,-1.804917,-0.487200,0.044300,-0.349710,-0.190691
"2019-05-06 15:53:54.517 +0000",1557158034.516885,-0.420245,-0.012473,-0.119435,-0.407952,0.012473,-0.912918,0.000000,0.000000,0.000000,-1,-3.083195,-2.560716,-2.258319,0.311913,-0.099341,-0.345017
"2019-05-06 15:53:54.537 +0000",1557158034.536873,-0.481130,-0.039331,-0.195176,-0.462423,0.039321,-0.885787,0.000000,0.000000,0.000000,-1,-2.593127,-3.126791,-3.023113,0.026251,-0.066832,0.275405
"2019-05-06 15:53:54.557 +0000",1557158034.556832,-0.548539,-0.054561,-0.260257,-0.520665,0.054534,-0.852018,0.000000,0.000000,0.000000,-1,-2.062366,-3.328303,-2.042752,-0.223811,-0.367888,0.362012
"2019-05-06 15:53:54.577 +0000",1557158034.576820,-0.624038,-0.063163,-0.298715,-0.583151,0.063121,-0.809908,0.000000,0.000000,0.000000,-1,-0.922124,-3.823497,-1.072535,-0.183572,-0.423885,0.259950
"2019-05-06 15:53:54.597 +0000",1557158034.596809,-0.690966,-0.050328,-0.309500,-0.636475,0.050307,-0.769655,0.000000,0.000000,0.000000,-1,0.851045,-2.943995,-0.801269,-0.029006,-0.052016,0.296434
"2019-05-06 15:53:54.617 +0000",1557158034.616768,-0.739768,-0.012664,-0.301885,-0.674063,0.012663,-0.738566,0.000000,0.000000,0.000000,-1,2.060294,-2.283602,-1.086176,-0.018442,0.147752,0.153498
"2019-05-06 15:53:54.637 +0000",1557158034.636755,-0.787654,0.036283,-0.289393,-0.708234,-0.036275,-0.705045,0.000000,0.000000,0.000000,-1,2.177413,-2.627007,-1.333582,-0.102237,0.136755,-0.061938
"2019-05-06 15:53:54.657 +0000",1557158034.656713,-0.849871,0.080475,-0.283106,-0.748764,-0.080388,-0.657944,0.000000,0.000000,0.000000,-1,1.485790,-3.363318,-1.440935,-0.125870,0.098211,-0.172104
"2019-05-06 15:53:54.677 +0000",1557158034.676702,-0.904692,0.118963,-0.276374,-0.780678,-0.118682,-0.613561,0.000000,0.000000,0.000000,-1,1.646861,-2.055279,-1.064716,-0.265373,0.176620,-0.181804
"2019-05-06 15:53:54.697 +0000",1557158034.696690,-0.941891,0.142668,-0.276004,-0.800456,-0.142185,-0.582283,0.000000,0.000000,0.000000,-1,-0.797530,-2.295197,-1.184755,-0.042424,0.077716,-1.424904
"2019-05-06 15:53:54.717 +0000",1557158034.716649,-0.959894,0.143816,-0.305424,-0.810675,-0.143321,-0.567685,0.000000,0.000000,0.000000,-1,-1.071316,-0.830443,-0.689456,-0.182902,0.226008,-0.295658
"2019-05-06 15:53:54.737 +0000",1557158034.736638,-0.979344,0.138323,-0.335075,-0.822203,-0.137883,-0.552242,0.000000,0.000000,0.000000,-1,-1.556358,-1.506625,-0.588645,-0.138643,0.058613,-0.295018
"2019-05-06 15:53:54.757 +0000",1557158034.756626,-1.016303,0.132796,-0.371265,-0.842682,-0.132406,-0.521877,0.000000,0.000000,0.000000,-1,-1.635552,-2.318243,-0.820180,-0.084549,0.050222,-0.220448
"2019-05-06 15:53:54.777 +0000",1557158034.776584,-1.055780,0.132719,-0.402532,-0.862631,-0.132330,-0.488217,0.000000,0.000000,0.000000,-1,-1.152566,-2.063633,-0.758921,-0.014139,0.024999,-0.067355
"2019-05-06 15:53:54.797 +0000",1557158034.796573,-1.088224,0.136593,-0.424057,-0.877553,-0.136169,-0.459737,0.000000,0.000000,0.000000,-1,-0.710856,-1.593489,-0.638156,-0.013133,0.029739,0.010930
"2019-05-06 15:53:54.817 +0000",1557158034.816533,-1.112128,0.142270,-0.441352,-0.887584,-0.141790,-0.438281,0.000000,0.000000,0.000000,-1,-0.621973,-1.345924,-0.678054,-0.045415,0.053762,0.091357
"2019-05-06 15:53:54.837 +0000",1557158034.836521,-1.144173,0.147917,-0.458950,-0.900427,-0.147378,-0.409280,0.000000,0.000000,0.000000,-1,-0.707475,-1.958243,-0.583455,0.009238,-0.125601,0.079065
"2019-05-06 15:53:54.857 +0000",1557158034.856509,-1.181800,0.151792,-0.475903,-0.914651,-0.151210,-0.374899,0.000000,0.000000,0.000000,-1,-0.625102,-1.986498,-0.494694,0.071572,-0.040868,0.166586
"2019-05-06 15:53:54.876 +0000",1557158034.876467,-1.214761,0.158843,-0.483173,-0.925487,-0.158175,-0.344173,0.000000,0.000000,0.000000,-1,0.110487,-1.519020,-0.412985,0.012096,0.031009,0.106731
"2019-05-06 15:53:54.896 +0000",1557158034.896454,-1.238284,0.167794,-0.471866,-0.931950,-0.167008,-0.321835,0.000000,0.000000,0.000000,-1,0.988139,-0.845668,-0.123773,-0.008770,0.042618,0.054592
"2019-05-06 15:53:54.916 +0000",1557158034.916444,-1.257475,0.169278,-0.481430,-0.937718,-0.168471,-0.303814,0.000000,0.000000,0.000000,-1,-1.625246,-1.181258,-0.372006,0.157017,-0.043977,-0.958240
"2019-05-06 15:53:54.936 +0000",1557158034.936402,-1.283800,0.165781,-0.511085,-0.945949,-0.165023,-0.279192,0.000000,0.000000,0.000000,-1,-1.179624,-1.804684,-0.228961,-0.035176,0.002471,0.000383
"2019-05-06 15:53:54.956 +0000",1557158034.956389,-1.316045,0.165114,-0.528363,-0.954564,-0.164365,-0.248578,0.000000,0.000000,0.000000,-1,-0.695010,-1.627756,-0.145693,-0.058116,-0.052966,0.137250
"2019-05-06 15:53:54.976 +0000",1557158034.976348,-1.331622,0.161809,-0.547405,-0.958843,-0.161104,-0.233806,0.000000,0.000000,0.000000,-1,-1.083702,-0.594527,-0.016675,-0.000675,-0.085616,-0.072117
"2019-05-06 15:53:54.996 +0000",1557158034.996336,-1.336264,0.157560,-0.558835,-0.960575,-0.156909,-0.229510,0.000000,0.000000,0.000000,-1,-0.253502,-0.149762,0.099510,0.032490,0.037860,-0.072614
"2019-05-06 15:53:55.016 +0000",1557158035.016334,-1.335766,0.157573,-0.557216,-0.960459,-0.156922,-0.229987,0.000000,0.000000,0.000000,-1,0.188423,0.069792,-0.043244,0.098337,0.071182,-0.181573
"2019-05-06 15:53:55.036 +0000",1557158035.036293,-1.339417,0.161315,-0.555574,-0.960714,-0.160617,-0.226343,0.000000,0.000000,0.000000,-1,0.041811,-0.420962,-0.228736,0.023244,-0.043317,-0.132071
"2019-05-06 15:53:55.056 +0000",1557158035.056281,-1.353948,0.164249,-0.558314,-0.963437,-0.163512,-0.212258,0.000000,0.000000,0.000000,-1,-0.130623,-0.827044,-0.106888,-0.025195,-0.124162,0.044274
"2019-05-06 15:53:55.076 +0000",1557158035.076238,-1.364748,0.164334,-0.559420,-0.965660,-0.163596,-0.201837,0.000000,0.000000,0.000000,-1,0.009280,-0.306169,0.005158,0.020393,-0.060724,0.095697
"2019-05-06 15:53:55.096 +0000",1557158035.096227,-1.363157,0.165240,-0.556745,-0.965192,-0.164489,-0.203342,0.000000,0.000000,0.000000,-1,0.231918,0.287478,-0.033410,0.070706,0.061828,-0.002957
"2019-05-06 15:53:55.116 +0000",1557158035.116216,-1.355819,0.167966,-0.550471,-0.963232,-0.167177,-0.210323,0.000000,0.000000,0.000000,-1,0.370634,0.448843,-0.074563,0.050818,0.099856,-0.117726
"2019-05-06 15:53:55.136 +0000",1557158035.136174,-1.350778,0.170721,-0.543738,-0.961706,-0.169893,-0.215075,0.000000,0.000000,0.000000,-1,0.322435,0.148229,-0.073107,-0.019907,0.052919,-0.102415
"2019-05-06 15:53:55.156 +0000",1557158035.156163,-1.360144,0.172483,-0.541689,-0.963385,-0.171629,-0.205995,0.000000,0.000000,0.000000,-1,-0.039578,-0.871163,-0.040560,-0.108408,-0.072908,-0.028990
"2019-05-06 15:53:55.176 +0000",1557158035.176151,-1.385014,0.171151,-0.546165,-0.968433,-0.170316,-0.182017,0.000000,0.000000,0.000000,-1,-0.323393,-1.427732,0.053326,-0.048993,-0.084460,0.005229
"2019-05-06 15:53:55.196 +0000",1557158035.196108,-1.410016,0.168741,-0.553282,-0.973083,-0.167941,-0.157815,0.000000,0.000000,0.000000,-1,-0.359795,-1.184313,0.056491,0.080505,0.048160,0.013711
"2019-05-06 15:53:55.216 +0000",1557158035.216097,-1.425892,0.167136,-0.557863,-0.975731,-0.166359,-0.142385,0.000000,0.000000,0.000000,-1,-0.145974,-0.643809,0.025077,0.150902,0.085182,-0.014063
"2019-05-06 15:53:55.236 +0000",1557158035.236055,-1.434686,0.169038,-0.557986,-0.976630,-0.168234,-0.133756,0.000000,0.000000,0.000000,-1,0.080134,-0.389316,-0.201741,0.125114,0.063131,-0.064944
"2019-05-06 15:53:55.256 +0000",1557158035.256045,-1.447151,0.178062,-0.556493,-0.976675,-0.177122,-0.121381,0.000000,0.000000,0.000000,-1,0.352048,-0.857625,-0.631305,0.020193,-0.073961,-0.028781
"2019-05-06 15:53:55.276 +0000",1557158035.276033,-1.460529,0.189787,-0.556228,-0.976080,-0.188650,-0.108068,0.000000,0.000000,0.000000,-1,-0.358419,-0.468620,-0.502848,0.057104,0.125844,0.019933
"2019-05-06 15:53:55.296 +0000",1557158035.295991,-1.474361,0.199424,-0.567244,-0.975627,-0.198104,-0.094378,0.000000,0.000000,0.000000,-1,-0.431412,-1.001508,-0.581569,-0.033971,-0.054825,-0.116834
"2019-05-06 15:53:55.316 +0000",1557158035.315980,-1.493447,0.211849,-0.571973,-0.974721,-0.210268,-0.075545,0.000000,0.000000,0.000000,-1,-0.034160,-0.900031,-0.675028,0.009801,0.016344,-0.064790
"2019-05-06 15:53:55.336 +0000",1557158035.335968,-1.505131,0.225785,-0.570206,-0.972518,-0.223871,-0.063953,0.000000,0.000000,0.000000,-1,0.224307,-0.391547,-0.699982,0.015945,-0.005789,-0.041806
"2019-05-06 15:53:55.356 +0000",1557158035.355927,-1.515753,0.240942,-0.565185,-0.969643,-0.238617,-0.053426,0.000000,0.000000,0.000000,-1,0.282394,-0.676187,-0.760816,-0.074272,-0.144622,-0.043040
"2019-05-06 15:53:55.376 +0000",1557158035.375915,-1.536803,0.254574,-0.561880,-0.967211,-0.251834,-0.032891,0.000000,0.000000,0.000000,-1,0.121581,-1.158705,-0.660614,-0.086515,-0.180738,0.053903
"2019-05-06 15:53:55.396 +0000",1557158035.395873,-1.561728,0.269456,-0.563655,-0.963876,-0.266207,-0.008741,0.000000,0.000000,0.000000,-1,-0.176671,-1.339993,-0.817601,0.084787,-0.024381,-0.008059
"2019-05-06 15:53:55.416 +0000",1557158035.415861,-1.589746,0.289291,-0.568602,-0.958274,-0.285273,0.018161,0.000000,0.000000,0.000000,-1,-0.268468,-1.522030,-1.147339,0.093498,-0.080434,-0.029483
"2019-05-06 15:53:55.436 +0000",1557158035.435850,-1.612219,0.313596,-0.571499,-0.950414,-0.308481,0.039391,0.000000,0.000000,0.000000,-1,-0.099229,-0.900698,-1.170043,-0.013438,0.023203,0.122703
"2019-05-06 15:53:55.456 +0000",1557158035.455807,-1.626673,0.332875,-0.571095,-0.943632,-0.326761,0.052782,0.000000,0.000000,0.000000,-1,-0.030576,-0.812784,-0.922984,-0.102953,0.010538,-0.048159
"2019-05-06 15:53:55.476 +0000",1557158035.475796,-1.654498,0.355817,-0.573790,-0.934081,-0.348356,0.078367,0.000000,0.000000,0.000000,-1,-0.343941,-1.854602,-1.338083,-0.004915,0.091398,-0.183500
"2019-05-06 15:53:55.496 +0000",1557158035.495754,-1.692147,0.387611,-0.582434,-0.919006,-0.377978,0.112073,0.000000,0.000000,0.000000,-1,-0.649912,-2.009977,-1.577071,-0.076523,0.111056,0.011951
"2019-05-06 15:53:55.516 +0000",1557158035.515743,-1.721466,0.418410,-0.590247,-0.903384,-0.406308,0.137152,0.000000,0.000000,0.000000,-1,-0.522433,-1.397676,-1.466763,-0.008557,-0.039249,0.086694
"2019-05-06 15:53:55.536 +0000",1557158035.535731,-1.741348,0.448176,-0.596707,-0.888163,-0.433322,0.152964,0.000000,0.000000,0.000000,-1,-0.585512,-1.075726,-1.428156,0.085566,0.076984,0.048223
"2019-05-06 15:53:55.556 +0000",1557158035.555689,-1.759121,0.478691,-0.604776,-0.871905,-0.460618,0.166170,0.000000,0.000000,0.000000,-1,-0.423761,-0.905110,-1.413702,-0.004148,-0.063186,0.139036
"2019-05-06 15:53:55.576 +0000",1557158035.575677,-1.763993,0.503346,-0.607916,-0.859677,-0.482359,0.168184,0.000000,0.000000,0.000000,-1,-0.393811,-0.121597,-1.056750,0.078106,-0.367205,-0.054537
"2019-05-06 15:53:55.596 +0000",1557158035.595666,-1.762676,0.524447,-0.609291,-0.849715,-0.500735,0.165074,0.000000,0.000000,0.000000,-1,-0.166097,0.089610,-1.120656,0.047042,-0.010267,-0.088490
"2019-05-06 15:53:55.616 +0000",1557158035.615625,-1.760200,0.550976,-0.606085,-0.836777,-0.523519,0.160412,0.000000,0.000000,0.000000,-1,-0.110268,0.305572,-1.424214,0.063660,0.084509,-0.017651
"2019-05-06 15:53:55.636 +0000",1557158035.635613,-1.756861,0.576170,-0.605002,-0.824082,-0.544816,0.155126,0.000000,0.000000,0.000000,-1,-0.163008,0.054551,-1.124015,-0.025131,-0.104338,0.065455
"2019-05-06 15:53:55.656 +0000",1557158035.655571,-1.762348,0.597872,-0.604937,-0.811418,-0.562885,0.157358,0.000000,0.000000,0.000000,-1,-0.214577,-0.431218,-1.066994,-0.003218,-0.159741,-0.044702
"2019-05-06 15:53:55.676 +0000",1557158035.675559,-1.771950,0.617664,-0.602710,-0.798796,-0.579132,0.162883,0.000000,0.000000,0.000000,-1,-0.018568,-0.308927,-0.964120,0.051420,-0.141495,-0.082668
"2019-05-06 15:53:55.696 +0000",1557158035.695548,-1.773356,0.634787,-0.598222,-0.788736,-0.593006,0.161987,0.000000,0.000000,0.000000,-1,-0.015254,0.272746,-0.828999,0.192270,-0.088147,0.009430
"2019-05-06 15:53:55.716 +0000",1557158035.715506,-1.761819,0.652124,-0.601057,-0.780340,-0.606876,0.150903,0.000000,0.000000,0.000000,-1,-0.475363,0.513007,-0.835432,0.221013,-0.113720,0.214225
"2019-05-06 15:53:55.735 +0000",1557158035.735495,-1.752070,0.670935,-0.615536,-0.770407,-0.621718,0.141205,0.000000,0.000000,0.000000,-1,-0.894760,-0.306187,-0.861876,0.013419,-0.255754,0.050369
"2019-05-06 15:53:55.755 +0000",1557158035.755484,-1.749930,0.690866,-0.633862,-0.758362,-0.637205,0.137320,0.000000,0.000000,0.000000,-1,-0.738212,-0.442490,-0.883096,-0.136825,-0.026064,-0.045599
"2019-05-06 15:53:55.775 +0000",1557158035.775441,-1.753166,0.710581,-0.638607,-0.745413,-0.652274,0.137468,0.000000,0.000000,0.000000,-1,-0.125814,-0.214570,-0.862903,-0.047311,0.077765,-0.273668
"2019-05-06 15:53:55.795 +0000",1557158035.795430,-1.755967,0.722276,-0.631823,-0.737477,-0.661094,0.138142,0.000000,0.000000,0.000000,-1,0.228876,0.260204,-0.553844,0.072712,0.157828,0.012752
"2019-05-06 15:53:55.815 +0000",1557158035.815388,-1.752010,0.729654,-0.628650,-0.733200,-0.666612,0.134340,0.000000,0.000000,0.000000,-1,-0.127212,0.168391,-0.279954,-0.010529,0.032960,0.160186
"2019-05-06 15:53:55.835 +0000",1557158035.835377,-1.752943,0.737052,-0.641822,-0.728204,-0.672108,0.134126,0.000000,0.000000,0.000000,-1,-0.737491,-0.834239,-0.291211,-0.013526,0.058644,-0.066301
"2019-05-06 15:53:55.855 +0000",1557158035.855365,-1.750604,0.744498,-0.654111,-0.723571,-0.677603,0.131524,0.000000,0.000000,0.000000,-1,-0.308721,0.070209,-0.320800,-0.000794,0.070151,-0.068017
"2019-05-06 15:53:55.875 +0000",1557158035.875323,-1.746378,0.754344,-0.647895,-0.717517,-0.684811,0.127294,0.000000,0.000000,0.000000,-1,0.336347,0.645323,-0.702775,0.001224,0.170056,-0.082524
"2019-05-06 15:53:55.895 +0000",1557158035.895311,-1.740499,0.769339,-0.632507,-0.708051,-0.695660,0.121325,0.000000,0.000000,0.000000,-1,0.415279,0.804243,-0.866837,-0.048815,0.049084,0.000608
"2019-05-06 15:53:55.915 +0000",1557158035.915269,-1.743248,0.784706,-0.622289,-0.697100,-0.706617,0.121422,0.000000,0.000000,0.000000,-1,0.099046,-0.161253,-0.795412,-0.128446,-0.161776,-0.101891
"2019-05-06 15:53:55.935 +0000",1557158035.935259,-1.753671,0.798289,-0.618041,-0.686295,-0.716163,0.126924,0.000000,0.000000,0.000000,-1,0.042263,-0.442307,-0.657435,0.065446,-0.093590,-0.098558
"2019-05-06 15:53:55.955 +0000",1557158035.955246,-1.765133,0.807776,-0.612399,-0.678098,-0.722752,0.133464,0.000000,0.000000,0.000000,-1,0.111184,-0.250339,-0.392797,0.171079,-0.045803,0.014653
"2019-05-06 15:53:55.975 +0000",1557158035.975204,-1.763974,0.812465,-0.612489,-0.674919,-0.725984,0.132026,0.000000,0.000000,0.000000,-1,-0.216308,0.226655,-0.195885,0.205727,-0.042113,0.303994
"2019-05-06 15:53:55.995 +0000",1557158035.995193,-1.749644,0.821687,-0.630081,-0.670125,-0.732296,0.121145,0.000000,0.000000,0.000000,-1,-0.986184,-0.192991,-0.485423,0.115040,0.034298,0.139719
"2019-05-06 15:53:56.015 +0000",1557158036.015161,-1.734942,0.840082,-0.663586,-0.658431,-0.744698,0.109060,0.000000,0.000000,0.000000,-1,-1.353699,-0.389364,-0.785694,-0.067369,0.079323,0.066721
"2019-05-06 15:53:56.035 +0000",1557158036.035120,-1.714004,0.857122,-0.693325,-0.647915,-0.755961,0.093426,0.000000,0.000000,0.000000,-1,-0.969058,0.003249,-0.644278,-0.114597,0.054515,-0.125851
"2019-05-06 15:53:56.055 +0000",1557158036.055107,-1.701167,0.873202,-0.710646,-0.636925,-0.766390,0.083510,0.000000,0.000000,0.000000,-1,-0.514210,-0.102779,-0.706500,0.022392,0.078935,-0.282317
"2019-05-06 15:53:56.075 +0000",1557158036.075063,-1.696296,0.883820,-0.715722,-0.629214,-0.773167,0.079384,0.000000,0.000000,0.000000,-1,-0.104477,0.122439,-0.460247,0.105640,-0.053188,-0.069877
"2019-05-06 15:53:56.095 +0000",1557158036.095053,-1.698003,0.893578,-0.713536,-0.621565,-0.779319,0.079496,0.000000,0.000000,0.000000,-1,0.050576,-0.115882,-0.479852,-0.021715,-0.131555,-0.053190
"2019-05-06 15:53:56.115 +0000",1557158036.115041,-1.704822,0.899611,-0.710334,-0.616338,-0.783085,0.083103,0.000000,0.000000,0.000000,-1,0.078859,-0.237222,-0.229774,-0.094493,-0.240582,0.005566
"2019-05-06 15:53:56.135 +0000",1557158036.134999,-1.712410,0.903494,-0.705007,-0.612674,-0.785494,0.087348,0.000000,0.000000,0.000000,-1,0.172969,-0.079383,-0.176279,0.051349,0.018984,-0.067389
"2019-05-06 15:53:56.155 +0000",1557158036.154989,-1.712526,0.905327,-0.698887,-0.611237,-0.786627,0.087215,0.000000,0.000000,0.000000,-1,0.133729,0.396445,-0.106934,0.095063,0.027442,0.109471
"2019-05-06 15:53:56.175 +0000",1557158036.174979,-1.702445,0.911136,-0.698959,-0.607545,-0.790201,0.080448,0.000000,0.000000,0.000000,-1,-0.141959,0.503683,-0.391369,-0.043318,0.049035,0.093457
"2019-05-06 15:53:56.195 +0000",1557158036.194935,-1.692488,0.920800,-0.702727,-0.600708,-0.796086,0.073464,0.000000,0.000000,0.000000,-1,-0.180854,0.236333,-0.462198,-0.113510,0.002354,-0.085397
"2019-05-06 15:53:56.215 +0000",1557158036.214925,-1.689853,0.928688,-0.704221,-0.594646,-0.800835,0.071133,0.000000,0.000000,0.000000,-1,0.030399,-0.041084,-0.334590,-0.021260,-0.018135,-0.212903
"2019-05-06 15:53:56.235 +0000",1557158036.234884,-1.701424,0.933257,-0.694297,-0.590149,-0.803563,0.077531,0.000000,0.000000,0.000000,-1,0.378926,-0.182772,-0.217345,0.057846,-0.040981,-0.112596
"2019-05-06 15:53:56.255 +0000",1557158036.254873,-1.715963,0.934476,-0.678880,-0.587990,-0.804288,0.085961,0.000000,0.000000,0.000000,-1,0.474502,-0.047560,-0.097851,0.087242,-0.077899,0.011878
"2019-05-06 15:53:56.275 +0000",1557158036.274858,-1.728539,0.935998,-0.661916,-0.585653,-0.805191,0.093157,0.000000,0.000000,0.000000,-1,0.479345,0.076316,-0.228343,0.050695,-0.057007,0.011488
"2019-05-06 15:53:56.295 +0000",1557158036.294817,-1.739858,0.940366,-0.645877,-0.581088,-0.807774,0.099186,0.000000,0.000000,0.000000,-1,0.391679,0.075980,-0.335396,-0.050840,-0.030864,0.037990
"2019-05-06 15:53:56.315 +0000",1557158036.314807,-1.747121,0.945605,-0.634595,-0.576178,-0.810851,0.102660,0.000000,0.000000,0.000000,-1,0.225860,0.089974,-0.287114,-0.025796,0.033980,-0.033752
"2019-05-06 15:53:56.335 +0000",1557158036.334794,-1.749998,0.949564,-0.628863,-0.572717,-0.813162,0.103745,0.000000,0.000000,0.000000,-1,0.063899,0.092071,-0.197292,0.076517,0.046575,0.021759
"2019-05-06 15:53:56.355 +0000",1557158036.354753,-1.747567,0.953594,-0.628508,-0.569737,-0.815501,0.101775,0.000000,0.000000,0.000000,-1,-0.058211,0.161644,-0.239135,0.030934,0.000895,0.047318
"2019-05-06 15:53:56.375 +0000",1557158036.374741,-1.746067,0.959929,-0.627348,-0.564791,-0.819151,0.100017,0.000000,0.000000,0.000000,-1,0.024651,0.083343,-0.352122,-0.045912,-0.051317,-0.055660
"2019-05-06 15:53:56.395 +0000",1557158036.394701,-1.752611,0.966686,-0.620700,-0.558668,-0.823008,0.102708,0.000000,0.000000,0.000000,-1,0.193632,-0.142261,-0.371593,0.006559,-0.021566,-0.125962
"2019-05-06 15:53:56.415 +0000",1557158036.414687,-1.766381,0.971783,-0.608796,-0.553078,-0.825892,0.109575,0.000000,0.000000,0.000000,-1,0.324871,-0.196212,-0.267791,0.100472,-0.059407,-0.041307
"2019-05-06 15:53:56.435 +0000",1557158036.434678,-1.778536,0.974810,-0.595365,-0.549257,-0.827595,0.115772,0.000000,0.000000,0.000000,-1,0.339424,0.037384,-0.236700,0.167802,-0.073879,0.070080
"2019-05-06 15:53:56.455 +0000",1557158036.454635,-1.785670,0.979192,-0.582317,-0.544869,-0.830047,0.118914,0.000000,0.000000,0.000000,-1,0.295284,0.269596,-0.330648,0.070534,-0.094224,0.056608
"2019-05-06 15:53:56.475 +0000",1557158036.474625,-1.790295,0.985050,-0.569860,-0.539558,-0.833299,0.120371,0.000000,0.000000,0.000000,-1,0.261455,0.267738,-0.369207,-0.027611,0.014986,-0.039454
"2019-05-06 15:53:56.495 +0000",1557158036.494582,-1.797487,0.992591,-0.559699,-0.532539,-0.837445,0.122833,0.000000,0.000000,0.000000,-1,0.137268,-0.113857,-0.505000,0.034050,0.126660,-0.115936
"2019-05-06 15:53:56.515 +0000",1557158036.514569,-1.808046,1.000588,-0.553794,-0.524687,-0.841788,0.126871,0.000000,0.000000,0.000000,-1,0.009117,-0.290744,-0.335943,0.052198,0.013694,0.027868
"2019-05-06 15:53:56.535 +0000",1557158036.534558,-1.810597,1.006628,-0.555106,-0.519413,-0.845034,0.126999,0.000000,0.000000,0.000000,-1,-0.168598,-0.104456,-0.312447,0.059482,0.043657,0.047622
"2019-05-06 15:53:56.555 +0000",1557158036.554518,-1.805084,1.014677,-0.557168,-0.513472,-0.849310,0.122551,0.000000,0.000000,0.000000,-1,-0.122017,0.398481,-0.401391,-0.125978,-0.077539,0.070565
"2019-05-06 15:53:56.575 +0000",1557158036.574505,-1.793318,1.023446,-0.558723,-0.507595,-0.853907,0.114853,0.000000,0.000000,0.000000,-1,-0.187447,0.501900,-0.439582,-0.073460,-0.014120,0.025345
"2019-05-06 15:53:56.594 +0000",1557158036.594494,-1.777480,1.032236,-0.570095,-0.501985,-0.858448,0.105255,0.000000,0.000000,0.000000,-1,-0.523124,0.210774,-0.273200,0.123185,-0.077786,0.070770
"2019-05-06 15:53:56.614 +0000",1557158036.614451,-1.749066,1.035577,-0.597811,-0.501947,-0.860157,0.090442,0.000000,0.000000,0.000000,-1,-0.797360,0.245808,0.098751,0.298623,-0.080105,0.075909
"2019-05-06 15:53:56.634 +0000",1557158036.634439,-1.716297,1.035499,-0.627942,-0.504707,-0.860117,0.073958,0.000000,0.000000,0.000000,-1,-0.718625,0.438392,0.220494,0.150733,-0.042593,-0.025435
"2019-05-06 15:53:56.654 +0000",1557158036.654398,-1.686066,1.031881,-0.648454,-0.509799,-0.858266,0.059026,0.000000,0.000000,0.000000,-1,-0.352639,0.759257,0.264439,0.021228,0.027349,-0.047124
"2019-05-06 15:53:56.674 +0000",1557158036.674387,-1.664684,1.028999,-0.656601,-0.513406,-0.856783,0.048344,0.000000,0.000000,0.000000,-1,-0.119817,0.686169,0.094658,-0.051765,0.182284,-0.081273
"2019-05-06 15:53:56.694 +0000",1557158036.694376,-1.652905,1.030298,-0.657749,-0.512829,-0.857453,0.042203,0.000000,0.000000,0.000000,-1,0.006512,0.442775,-0.183121,-0.071933,0.161118,-0.104443
"2019-05-06 15:53:56.714 +0000",1557158036.714335,-1.651303,1.037850,-0.654318,-0.506428,-0.861314,0.040859,0.000000,0.000000,0.000000,-1,0.081424,0.124130,-0.475392,-0.000866,0.038758,-0.078869
"2019-05-06 15:53:56.734 +0000",1557158036.734322,-1.650508,1.045492,-0.649576,-0.499884,-0.865172,0.039931,0.000000,0.000000,0.000000,-1,0.086273,0.403768,-0.289530,0.120642,-0.105226,0.034104
"2019-05-06 15:53:56.754 +0000",1557158036.754311,-1.638184,1.047104,-0.647514,-0.498946,-0.865979,0.033674,0.000000,0.000000,0.000000,-1,0.011124,0.857523,-0.029636,0.105483,0.041333,0.124514
"2019-05-06 15:53:56.774 +0000",1557158036.774268,-1.618095,1.047817,-0.647143,-0.498905,-0.866335,0.023615,0.000000,0.000000,0.000000,-1,-0.026435,1.029856,-0.049220,-0.020000,0.064195,0.005026
"2019-05-06 15:53:56.794 +0000",1557158036.794256,-1.600908,1.050494,-0.649268,-0.496917,-0.867669,0.014968,0.000000,0.000000,0.000000,-1,-0.053409,0.558998,-0.235081,-0.034836,0.041222,-0.126189
"2019-05-06 15:53:56.814 +0000",1557158036.814218,-1.594772,1.058412,-0.649050,-0.490116,-0.871578,0.011753,0.000000,0.000000,0.000000,-1,-0.022651,0.277360,-0.465552,0.062809,0.010952,0.018795
"2019-05-06 15:53:56.834 +0000",1557158036.834204,-1.575541,1.065935,-0.653757,-0.483681,-0.875241,0.002295,0.000000,0.000000,0.000000,-1,-0.202033,1.078396,-0.332382,0.103462,-0.137393,0.191995
"2019-05-06 15:53:56.854 +0000",1557158036.854193,-1.545342,1.074349,-0.668476,-0.476150,-0.879280,-0.012122,0.000000,0.000000,0.000000,-1,-0.382899,0.634318,-0.484773,-0.035752,0.038536,-0.095711
"2019-05-06 15:53:56.874 +0000",1557158036.874151,-1.529520,1.081363,-0.678351,-0.469725,-0.882599,-0.019399,0.000000,0.000000,0.000000,-1,-0.071452,0.087740,-0.343081,0.096251,0.301026,-0.255335
"2019-05-06 15:53:56.894 +0000",1557158036.894140,-1.540120,1.085812,-0.667357,-0.465975,-0.884682,-0.014299,0.000000,0.000000,0.000000,-1,0.432371,0.014286,-0.130899,0.087145,-0.264884,-0.086089
"2019-05-06 15:53:56.914 +0000",1557158036.914129,-1.553335,1.086097,-0.644147,-0.465871,-0.884815,-0.008136,0.000000,0.000000,0.000000,-1,0.571851,0.580524,0.050670,0.085195,0.180607,0.094241
"2019-05-06 15:53:56.934 +0000",1557158036.934086,-1.556382,1.086243,-0.622970,-0.465764,-0.884883,-0.006714,0.000000,0.000000,0.000000,-1,0.420028,0.857604,-0.037195,-0.032694,-0.067525,0.058624
"2019-05-06 15:53:56.954 +0000",1557158036.954075,-1.552056,1.087607,-0.611113,-0.464524,-0.885518,-0.008707,0.000000,0.000000,0.000000,-1,0.183576,0.519658,-0.131753,0.050415,-0.451534,0.016031
"2019-05-06 15:53:56.974 +0000",1557158036.974032,-1.555190,1.090774,-0.604270,-0.461743,-0.886984,-0.007207,0.000000,0.000000,0.000000,-1,0.132696,-0.051143,-0.070889,0.131100,-0.552942,-0.031337
"2019-05-06 15:53:56.994 +0000",1557158036.994021,-1.561793,1.086928,-0.599581,-0.465188,-0.885202,-0.004188,0.000000,0.000000,0.000000,-1,0.151382,-0.101996,0.333016,0.154077,-0.026404,0.005088
"2019-05-06 15:53:57.014 +0000",1557158037.013998,-1.569540,1.075250,-0.589942,-0.475512,-0.879709,-0.000597,0.000000,0.000000,0.000000,-1,0.223739,0.113895,0.704404,0.133440,-0.039038,0.035906
"2019-05-06 15:53:57.034 +0000",1557158037.033955,-1.572115,1.062353,-0.586476,-0.486818,-0.873503,0.000642,0.000000,0.000000,0.000000,-1,-0.014309,-0.057288,0.625597,0.018114,-0.172563,0.016417
"2019-05-06 15:53:57.054 +0000",1557158037.053945,-1.569776,1.057060,-0.591491,-0.491434,-0.870915,-0.000501,0.000000,0.000000,0.000000,-1,-0.058053,-0.165302,0.575310,0.005945,0.013783,-0.064333
"2019-05-06 15:53:57.074 +0000",1557158037.073902,-1.574867,1.048350,-0.591151,-0.498997,-0.866601,0.002031,0.000000,0.000000,0.000000,-1,0.024706,-0.253680,0.347130,-0.011974,0.036462,-0.004991
"2019-05-06 15:53:57.094 +0000",1557158037.093890,-1.586651,1.045729,-0.585995,-0.501208,-0.865290,0.007947,0.000000,0.000000,0.000000,-1,0.189019,-0.426848,0.030445,-0.013760,0.167124,-0.046949
"2019-05-06 15:53:57.114 +0000",1557158037.113879,-1.596091,1.063188,-0.583284,-0.485933,-0.873909,0.012294,0.000000,0.000000,0.000000,-1,-0.039850,-0.270105,-0.201292,-0.045912,0.030922,0.109684
"2019-05-06 15:53:57.134 +0000",1557158037.133839,-1.593727,1.070795,-0.590893,-0.479301,-0.877582,0.010992,0.000000,0.000000,0.000000,-1,-0.262488,-0.182234,-0.460751,-0.047173,0.017627,0.090784
"2019-05-06 15:53:57.154 +0000",1557158037.153827,-1.576540,1.086443,-0.609590,-0.465629,-0.884976,0.002674,0.000000,0.000000,0.000000,-1,-0.561421,0.143567,-0.667691,-0.014413,0.043011,0.079464
"2019-05-06 15:53:57.174 +0000",1557158037.173815,-1.542315,1.101119,-0.643366,-0.452415,-0.891714,-0.012889,0.000000,0.000000,0.000000,-1,-0.911402,0.286108,-0.740162,0.082481,-0.044458,0.075923
"2019-05-06 15:53:57.194 +0000",1557158037.193773,-1.498059,1.111292,-0.685916,-0.442331,-0.896273,-0.032231,0.000000,0.000000,0.000000,-1,-0.895419,0.321415,-0.352973,0.118158,-0.021544,-0.069210
"2019-05-06 15:53:57.214 +0000",1557158037.213762,-1.468492,1.110871,-0.719457,-0.441560,-0.896086,-0.045332,0.000000,0.000000,0.000000,-1,-0.685019,-0.093345,0.053272,0.032335,-0.021868,-0.038622
"2019-05-06 15:53:57.234 +0000",1557158037.233720,-1.443846,1.107832,-0.748108,-0.443008,-0.894733,-0.056544,0.000000,0.000000,0.000000,-1,-0.766242,0.014395,-0.004117,-0.006088,0.042758,0.045237
"2019-05-06 15:53:57.254 +0000",1557158037.253709,-1.409311,1.107738,-0.785724,-0.440875,-0.894691,-0.071820,0.000000,0.000000,0.000000,-1,-0.823284,0.074821,-0.167219,0.030093,-0.015649,-0.061511
"2019-05-06 15:53:57.274 +0000",1557158037.273698,-1.389774,1.107864,-0.806788,-0.439277,-0.894747,-0.080399,0.000000,0.000000,0.000000,-1,-0.187887,-0.048639,-0.010067,0.049857,-0.085874,-0.237304
"2019-05-06 15:53:57.294 +0000",1557158037.293654,-1.390787,1.107433,-0.807556,-0.439738,-0.894554,-0.080023,0.000000,0.000000,0.000000,-1,-0.014262,-0.118187,0.000049,-0.053777,-0.026527,-0.032266
"2019-05-06 15:53:57.314 +0000",1557158037.313642,-1.393642,1.108505,-0.808648,-0.439020,-0.895033,-0.078598,0.000000,0.000000,0.000000,-1,0.011568,-0.213562,-0.068530,-0.014105,-0.005465,-0.053176
"2019-05-06 15:53:57.334 +0000",1557158037.333631,-1.400662,1.110192,-0.805255,-0.438072,-0.895784,-0.075259,0.000000,0.000000,0.000000,-1,0.122378,-0.166234,-0.022962,0.068733,-0.027922,-0.016508
"2019-05-06 15:53:57.354 +0000",1557158037.353590,-1.409439,1.109955,-0.796277,-0.438925,-0.895679,-0.071445,0.000000,0.000000,0.000000,-1,0.230349,0.027619,0.048911,0.047888,0.066974,-0.009762
"2019-05-06 15:53:57.374 +0000",1557158037.373579,-1.415541,1.112990,-0.789698,-0.436665,-0.897024,-0.068345,0.000000,0.000000,0.000000,-1,0.104694,-0.068288,-0.275236,-0.065395,0.134100,-0.009704
"2019-05-06 15:53:57.394 +0000",1557158037.393537,-1.412670,1.123586,-0.797282,-0.427057,-0.901657,-0.068098,0.000000,0.000000,0.000000,-1,-0.205413,-0.269649,-0.673329,-0.097998,0.128937,0.013288
"2019-05-06 15:53:57.414 +0000",1557158037.413524,-1.400656,1.135078,-0.816907,-0.415968,-0.906567,-0.071464,0.000000,0.000000,0.000000,-1,-0.468787,-0.186819,-0.539913,0.010709,0.010464,0.053931
"2019-05-06 15:53:57.434 +0000",1557158037.433513,-1.377321,1.139510,-0.841597,-0.410240,-0.908429,-0.080377,0.000000,0.000000,0.000000,-1,-0.413630,0.188675,-0.202996,0.080177,-0.051853,0.040475
"2019-05-06 15:53:57.453 +0000",1557158037.453472,-1.339838,1.147953,-0.871503,-0.399459,-0.911926,-0.093934,0.000000,0.000000,0.000000,-1,-0.114606,0.394584,-0.020948,0.042052,-0.049881,-0.046935
"2019-05-06 15:53:57.473 +0000",1557158037.473461,-1.328811,1.147540,-0.874838,-0.398765,-0.911756,-0.098424,0.000000,0.000000,0.000000,-1,-0.093630,0.380545,0.015335,0.007545,0.039045,-0.033809
"2019-05-06 15:53:57.493 +0000",1557158037.493450,-1.327527,1.142519,-0.872423,-0.403076,-0.909682,-0.100037,0.000000,0.000000,0.000000,-1,-0.333383,0.237322,0.040392,-0.022827,0.016891,0.037690
"2019-05-06 15:53:57.513 +0000",1557158037.513406,-1.305008,1.139822,-0.893108,-0.403087,-0.908559,-0.109732,0.000000,0.000000,0.000000,-1,-0.490011,0.214539,-0.003151,0.003108,0.017263,0.031455
"2019-05-06 15:53:57.533 +0000",1557158037.533395,-1.279649,1.138050,-0.913573,-0.401717,-0.907817,-0.120380,0.000000,0.000000,0.000000,-1,-0.338434,0.411060,-0.282694,-0.018999,0.033412,0.003986
"2019-05-06 15:53:57.553 +0000",1557158037.553354,-1.258471,1.144965,-0.927334,-0.393094,-0.910696,-0.126928,0.000000,0.000000,0.000000,-1,-0.072996,0.442123,-0.472049,-0.046512,0.074880,-0.049311
"2019-05-06 15:53:57.573 +0000",1557158037.573341,-1.243600,1.152875,-0.934671,-0.384329,-0.913935,-0.130439,0.000000,0.000000,0.000000,-1,0.041951,0.369045,-0.349236,-0.009302,-0.011435,-0.014595
"2019-05-06 15:53:57.593 +0000",1557158037.593332,-1.234055,1.156865,-0.938057,-0.379622,-0.915547,-0.132896,0.000000,0.000000,0.000000,-1,-0.039045,0.306655,-0.148453,0.022612,-0.036052,0.031868
"2019-05-06 15:53:57.613 +0000",1557158037.613289,-1.228650,1.166461,-0.936523,-0.370604,-0.919364,-0.131992,0.000000,0.000000,0.000000,-1,-0.097096,0.451388,-0.004654,0.071883,-0.000832,0.047336
"2019-05-06 15:53:57.633 +0000",1557158037.633277,-1.211535,1.166997,-0.943966,-0.367830,-0.919575,-0.138142,0.000000,0.000000,0.000000,-1,-0.146937,0.525432,-0.130338,0.041307,0.037235,0.038624
"2019-05-06 15:53:57.653 +0000",1557158037.653236,-1.189148,1.172734,-0.959232,-0.359744,-0.921814,-0.144374,0.000000,0.000000,0.000000,-1,-0.220182,0.296186,-0.157730,0.033160,-0.014481,0.004604
"2019-05-06 15:53:57.673 +0000",1557158037.673224,-1.173803,1.172072,-0.969691,-0.358049,-0.921557,-0.150113,0.000000,0.000000,0.000000,-1,-0.176930,0.266590,0.009721,0.063722,-0.040983,0.005628
"2019-05-06 15:53:57.693 +0000",1557158037.693212,-1.164361,1.170046,-0.974054,-0.358329,-0.920769,-0.154225,0.000000,0.000000,0.000000,-1,-0.045068,0.365658,0.113225,0.045356,0.124916,0.008534
"2019-05-06 15:53:57.713 +0000",1557158037.713170,-1.155510,1.165771,-0.969443,-0.360549,-0.919093,-0.158977,0.000000,0.000000,0.000000,-1,-0.107328,0.804103,0.234509,0.168791,0.153864,0.153239
"2019-05-06 15:53:57.733 +0000",1557158037.733160,-1.130415,1.162711,-0.985580,-0.358989,-0.917882,-0.169172,0.000000,0.000000,0.000000,-1,-0.344831,0.386168,-0.021439,0.010310,-0.020457,0.009184
"2019-05-06 15:53:57.753 +0000",1557158037.753148,-1.114037,1.161245,-0.997039,-0.357377,-0.917300,-0.175622,0.000000,0.000000,0.000000,-1,-0.016640,0.131254,0.035390,0.017075,-0.050047,-0.085181
"2019-05-06 15:53:57.773 +0000",1557158037.773106,-1.119475,1.160315,-0.992472,-0.359094,-0.916929,-0.174048,0.000000,0.000000,0.000000,-1,0.073335,-0.183809,0.098235,-0.023794,-0.123186,-0.055170
"2019-05-06 15:53:57.793 +0000",1557158037.793094,-1.125982,1.159856,-0.990034,-0.360599,-0.916746,-0.171889,0.000000,0.000000,0.000000,-1,0.018068,-0.157512,-0.039442,0.055667,-0.086230,-0.026460
"2019-05-06 15:53:57.813 +0000",1557158037.813052,-1.118182,1.164954,-1.000977,-0.355040,-0.918770,-0.172650,0.000000,0.000000,0.000000,-1,0.002832,-0.197667,-0.279772,-0.006838,-0.082359,-0.037815
"2019-05-06 15:53:57.833 +0000",1557158037.833040,-1.118226,1.169565,-1.007495,-0.351234,-0.920581,-0.170780,0.000000,0.000000,0.000000,-1,-0.037979,-0.400799,-0.223419,-0.007485,-0.106031,-0.066433
"2019-05-06 15:53:57.853 +0000",1557158037.853029,-1.123292,1.170636,-1.013142,-0.351205,-0.920999,-0.168572,0.000000,0.000000,0.000000,-1,-0.089469,-0.539811,-0.014342,-0.029242,-0.129950,-0.059685
"2019-05-06 15:53:57.873 +0000",1557158037.872987,-1.128487,1.168769,-1.017029,-0.353629,-0.920270,-0.167481,0.000000,0.000000,0.000000,-1,-0.126909,-0.399804,0.059733,-0.007485,-0.020648,-0.016830
"2019-05-06 15:53:57.893 +0000",1557158037.892976,-1.128452,1.165289,-1.022838,-0.356516,-0.918903,-0.168863,0.000000,0.000000,0.000000,-1,-0.063984,-0.230663,0.009829,-0.027487,0.000445,-0.014990
"2019-05-06 15:53:57.913 +0000",1557158037.912964,-1.129560,1.165007,-1.025573,-0.356937,-0.918791,-0.168579,0.000000,0.000000,0.000000,-1,-0.049738,-0.171121,-0.004728,-0.016949,0.032973,-0.019059
"2019-05-06 15:53:57.933 +0000",1557158037.932921,-1.130292,1.161960,-1.028167,-0.359591,-0.917584,-0.169510,0.000000,0.000000,0.000000,-1,-0.011015,-0.219192,0.048663,-0.000867,-0.011554,-0.040787
"2019-05-06 15:53:57.953 +0000",1557158037.952909,-1.135673,1.160110,-1.027561,-0.362037,-0.916847,-0.168288,0.000000,0.000000,0.000000,-1,-0.040467,-0.247032,0.108080,-0.010277,-0.024956,-0.032700
"2019-05-06 15:53:57.973 +0000",1557158037.972869,-1.138745,1.156649,-1.028390,-0.365431,-0.915460,-0.168503,0.000000,0.000000,0.000000,-1,0.005704,-0.200216,0.088356,-0.004060,0.006540,-0.020294
"2019-05-06 15:53:57.993 +0000",1557158037.992856,-1.143847,1.156015,-1.026363,-0.366815,-0.915205,-0.166876,0.000000,0.000000,0.000000,-1,0.020701,-0.120120,-0.002857,0.015893,0.024595,-0.000131
"2019-05-06 15:53:58.013 +0000",1557158038.012808,-1.149586,1.156203,-1.022711,-0.367609,-0.915280,-0.164698,0.000000,0.000000,0.000000,-1,0.020527,-0.076271,-0.077137,0.007013,0.036496,-0.004400
"2019-05-06 15:53:58.033 +0000",1557158038.032763,-1.150996,1.158358,-1.021718,-0.366040,-0.916146,-0.163375,0.000000,0.000000,0.000000,-1,0.085165,0.053247,-0.084696,0.014721,0.000634,0.006927
"2019-05-06 15:53:58.053 +0000",1557158038.052752,-1.157271,1.160455,-1.016227,-0.365298,-0.916985,-0.160303,0.000000,0.000000,0.000000,-1,0.081639,-0.165991,-0.021828,0.010607,-0.041557,-0.064535
"2019-05-06 15:53:58.073 +0000",1557158038.072742,-1.164075,1.160482,-1.014082,-0.366357,-0.916995,-0.157804,0.000000,0.000000,0.000000,-1,0.039704,-0.168174,0.012067,-0.048804,-0.019803,-0.019442
"2019-05-06 15:53:58.093 +0000",1557158038.092699,-1.175855,1.159647,-1.004211,-0.368897,-0.916662,-0.153772,0.000000,0.000000,0.000000,-1,-0.028653,0.008293,-0.003200,-0.020385,0.001699,0.030527
"2019-05-06 15:53:58.113 +0000",1557158038.112689,-1.171782,1.159478,-1.007393,-0.368410,-0.916595,-0.155333,0.000000,0.000000,0.000000,-1,-0.060243,0.074345,-0.022219,0.030138,0.046508,-0.000871
"2019-05-06 15:53:58.133 +0000",1557158038.132646,-1.163803,1.160136,-1.013164,-0.366605,-0.916858,-0.158029,0.000000,0.000000,0.000000,-1,-0.009689,0.161501,-0.036249,0.012097,0.011889,-0.029685
"2019-05-06 15:53:58.153 +0000",1557158038.152636,-1.157786,1.161243,-1.014810,-0.364718,-0.917299,-0.159825,0.000000,0.000000,0.000000,-1,-0.021892,0.222299,-0.077586,-0.006788,0.013795,0.000431
"2019-05-06 15:53:58.173 +0000",1557158038.172625,-1.155781,1.161914,-1.015799,-0.363833,-0.917566,-0.160307,0.000000,0.000000,0.000000,-1,0.028727,-0.097883,-0.034115,-0.001996,-0.012991,-0.049531
"2019-05-06 15:53:58.193 +0000",1557158038.192582,-1.160483,1.162714,-1.013211,-0.363910,-0.917884,-0.158302,0.000000,0.000000,0.000000,-1,0.051102,-0.077815,-0.020043,-0.002164,-0.010217,0.008186
"2019-05-06 15:53:58.213 +0000",1557158038.212570,-1.167707,1.163129,-1.006760,-0.364694,-0.918048,-0.155520,0.000000,0.000000,0.000000,-1,-0.025956,0.038197,-0.047458,-0.005286,0.015689,0.043902
"2019-05-06 15:53:58.233 +0000",1557158038.232560,-1.165803,1.163947,-1.007879,-0.363706,-0.918372,-0.155918,0.000000,0.000000,0.000000,-1,0.003909,0.044473,-0.041946,0.010297,0.029655,-0.013211
"2019-05-06 15:53:58.253 +0000",1557158038.252518,-1.161143,1.163518,-1.011587,-0.363337,-0.918202,-0.157768,0.000000,0.000000,0.000000,-1,-0.039049,0.048764,-0.017599,-0.000600,0.008718,-0.011010
"2019-05-06 15:53:58.273 +0000",1557158038.272505,-1.159163,1.163729,-1.012550,-0.362846,-0.918286,-0.158410,0.000000,0.000000,0.000000,-1,0.019685,0.050753,-0.019428,-0.024208,-0.012287,-0.029090
"2019-05-06 15:53:58.292 +0000",1557158038.292464,-1.158399,1.163010,-1.011615,-0.363330,-0.918001,-0.158951,0.000000,0.000000,0.000000,-1,0.052752,0.067697,-0.015893,-0.006650,-0.002378,-0.016693
"2019-05-06 15:53:58.312 +0000",1557158038.312454,-1.158213,1.163298,-1.010913,-0.363058,-0.918115,-0.158913,0.000000,0.000000,0.000000,-1,0.008669,0.013558,-0.004657,0.006048,0.001077,-0.015464
"2019-05-06 15:53:58.332 +0000",1557158038.332440,-1.155390,1.163534,-1.013398,-0.362410,-0.918209,-0.159850,0.000000,0.000000,0.000000,-1,0.060770,0.001789,0.001886,0.013533,0.007030,-0.022844
"2019-05-06 15:53:58.352 +0000",1557158038.352400,-1.158238,1.163984,-1.010447,-0.362485,-0.918387,-0.158651,0.000000,0.000000,0.000000,-1,0.058495,-0.023728,0.006012,0.020078,0.011237,-0.008616
"2019-05-06 15:53:58.372 +0000",1557158038.372387,-1.158578,1.164878,-1.009683,-0.361787,-0.918740,-0.158199,0.000000,0.000000,0.000000,-1,0.063984,0.010329,-0.000248,0.020036,-0.007133,0.001156
"2019-05-06 15:53:58.392 +0000",1557158038.392378,-1.161112,1.165101,-1.007270,-0.361998,-0.918828,-0.157200,0.000000,0.000000,0.000000,-1,0.036843,-0.066193,0.016292,0.017867,-0.024501,-0.014126
"2019-05-06 15:53:58.412 +0000",1557158038.412334,-1.161547,1.165604,-1.008948,-0.361643,-0.919026,-0.156859,0.000000,0.000000,0.000000,-1,0.003499,-0.142528,0.005008,0.009226,-0.001658,-0.001314
"2019-05-06 15:53:58.432 +0000",1557158038.432323,-1.163105,1.168711,-1.009244,-0.359264,-0.920247,-0.155162,0.000000,0.000000,0.000000,-1,0.005638,-0.160626,0.004722,0.044017,0.002660,0.004695
"2019-05-06 15:53:58.452 +0000",1557158038.452281,-1.165203,1.169377,-1.010870,-0.359025,-0.920507,-0.154166,0.000000,0.000000,0.000000,-1,0.009759,-0.174456,0.012045,0.014313,0.004492,0.013205
"2019-05-06 15:53:58.472 +0000",1557158038.472270,-1.166514,1.170510,-1.013055,-0.358268,-0.920949,-0.153285,0.000000,0.000000,0.000000,-1,-0.058953,-0.146352,-0.051136,-0.002862,0.033880,0.038218
"2019-05-06 15:53:58.492 +0000",1557158038.492259,-1.162405,1.171782,-1.020900,-0.356559,-0.921444,-0.154290,0.000000,0.000000,0.000000,-1,-0.038097,-0.218674,-0.036590,0.014411,-0.010150,-0.030143
"2019-05-06 15:53:58.512 +0000",1557158038.512216,-1.161964,1.171914,-1.025963,-0.356380,-0.921495,-0.154399,0.000000,0.000000,0.000000,-1,-0.058384,-0.216422,-0.043104,-0.009999,0.003405,0.001018
"2019-05-06 15:53:58.532 +0000",1557158038.532205,-1.161865,1.172196,-1.030185,-0.356126,-0.921605,-0.154331,0.000000,0.000000,0.000000,-1,-0.061374,-0.172827,-0.047166,-0.030394,0.001729,-0.024761
"2019-05-06 15:53:58.552 +0000",1557158038.552192,-1.162066,1.171803,-1.033190,-0.356490,-0.921452,-0.154404,0.000000,0.000000,0.000000,-1,-0.045140,-0.134561,-0.057474,-0.027528,0.003667,-0.006424
"2019-05-06 15:53:58.572 +0000",1557158038.572152,-1.161852,1.172552,-1.036029,-0.355823,-0.921743,-0.154205,0.000000,0.000000,0.000000,-1,-0.029006,-0.113329,-0.061552,-0.013577,0.012960,-0.017731
"2019-05-06 15:53:58.592 +0000",1557158038.592139,-1.160200,1.172804,-1.039753,-0.355355,-0.921841,-0.154701,0.000000,0.000000,0.000000,-1,-0.007543,-0.095214,-0.075172,-0.007529,0.023022,-0.024193
"2019-05-06 15:53:58.612 +0000",1557158038.612097,-1.160026,1.174376,-1.041621,-0.353999,-0.922449,-0.154183,0.000000,0.000000,0.000000,-1,0.002206,-0.078196,-0.083567,-0.008412,0.006800,-0.016410
"2019-05-06 15:53:58.632 +0000",1557158038.632086,-1.159194,1.175605,-1.043985,-0.352831,-0.922923,-0.154024,0.000000,0.000000,0.000000,-1,0.004228,-0.090941,-0.081474,-0.006620,-0.000234,-0.016050
"2019-05-06 15:53:58.652 +0000",1557158038.652076,-1.158386,1.176917,-1.046549,-0.351598,-0.923427,-0.153824,0.000000,0.000000,0.000000,-1,-0.009782,-0.088832,-0.067695,0.007115,0.002986,-0.007996
"2019-05-06 15:53:58.672 +0000",1557158038.672033,-1.155993,1.177353,-1.050816,-0.350860,-0.923594,-0.154502,0.000000,0.000000,0.000000,-1,-0.013268,-0.101612,-0.050715,-0.001451,0.012050,-0.015297
"2019-05-06 15:53:58.692 +0000",1557158038.692021,-1.155423,1.176520,-1.053268,-0.351475,-0.923275,-0.155012,0.000000,0.000000,0.000000,-1,0.000483,-0.089965,-0.041957,-0.019405,0.010250,-0.017488
"2019-05-06 15:53:58.712 +0000",1557158038.712010,-1.155135,1.176206,-1.054672,-0.351696,-0.923154,-0.155231,0.000000,0.000000,0.000000,-1,0.023019,-0.040049,-0.041521,-0.010441,0.003827,-0.015652
"2019-05-06 15:53:58.732 +0000",1557158038.731970,-1.153707,1.176440,-1.056468,-0.351276,-0.923244,-0.155645,0.000000,0.000000,0.000000,-1,0.018961,-0.022873,-0.068059,-0.011792,0.004802,-0.014826
"2019-05-06 15:53:58.752 +0000",1557158038.751957,-1.153470,1.177405,-1.057497,-0.350425,-0.923614,-0.155368,0.000000,0.000000,0.000000,-1,0.022971,-0.047388,-0.052168,0.007956,0.007980,-0.004255
"2019-05-06 15:53:58.772 +0000",1557158038.771914,-1.153336,1.178447,-1.058899,-0.349524,-0.924013,-0.155025,0.000000,0.000000,0.000000,-1,0.009881,-0.085629,-0.042844,0.003699,0.007601,-0.013402
"2019-05-06 15:53:58.792 +0000",1557158038.791904,-1.151179,1.178564,-1.062506,-0.349090,-0.924058,-0.155734,0.000000,0.000000,0.000000,-1,0.034450,-0.091900,-0.064043,-0.012818,0.001725,-0.036024
"2019-05-06 15:53:58.812 +0000",1557158038.811893,-1.152234,1.178911,-1.063289,-0.348961,-0.924191,-0.155235,0.000000,0.000000,0.000000,-1,0.047202,-0.114145,-0.078932,-0.020134,-0.001316,-0.017586
"2019-05-06 15:53:58.832 +0000",1557158038.831849,-1.154513,1.180232,-1.062862,-0.348197,-0.924694,-0.153946,0.000000,0.000000,0.000000,-1,0.046541,-0.078914,-0.112801,-0.017358,0.004543,-0.006745
"2019-05-06 15:53:58.852 +0000",1557158038.851838,-1.154594,1.181367,-1.063872,-0.347249,-0.925126,-0.153493,0.000000,0.000000,0.000000,-1,0.057255,-0.058704,-0.117877,-0.019313,0.019013,-0.026103
"2019-05-06 15:53:58.872 +0000",1557158038.871826,-1.156896,1.181860,-1.062239,-0.347184,-0.925313,-0.152510,0.000000,0.000000,0.000000,-1,0.077415,-0.020618,-0.093959,-0.041610,0.013478,-0.008165
"2019-05-06 15:53:58.892 +0000",1557158038.891786,-1.160382,1.181601,-1.058429,-0.347933,-0.925215,-0.151394,0.000000,0.000000,0.000000,-1,0.125303,0.026948,-0.065558,-0.044660,0.019453,-0.016453
"2019-05-06 15:53:58.912 +0000",1557158038.911773,-1.165859,1.181730,-1.051347,-0.348647,-0.925264,-0.149439,0.000000,0.000000,0.000000,-1,0.166112,0.083201,-0.075522,-0.048783,0.017000,-0.013677
"2019-05-06 15:53:58.932 +0000",1557158038.931732,-1.171122,1.183038,-1.043311,-0.348314,-0.925759,-0.147131,0.000000,0.000000,0.000000,-1,0.194278,0.136373,-0.102662,-0.034742,0.017388,-0.003824
"2019-05-06 15:53:58.952 +0000",1557158038.951719,-1.176909,1.185998,-1.033911,-0.346627,-0.926874,-0.144061,0.000000,0.000000,0.000000,-1,0.222276,0.170338,-0.114000,-0.010016,0.015818,0.010195
"2019-05-06 15:53:58.972 +0000",1557158038.971709,-1.183289,1.189330,-1.023427,-0.344679,-0.928120,-0.140678,0.000000,0.000000,0.000000,-1,0.212594,0.190401,-0.090446,-0.001909,0.020283,0.014443
"2019-05-06 15:53:58.992 +0000",1557158038.991667,-1.187060,1.192043,-1.015304,-0.342870,-0.929126,-0.138434,0.000000,0.000000,0.000000,-1,0.178156,0.188214,-0.059704,0.002737,-0.003949,-0.001779
"2019-05-06 15:53:59.012 +0000",1557158039.011642,-1.190191,1.193958,-1.008327,-0.341649,-0.929833,-0.136699,0.000000,0.000000,0.000000,-1,0.145699,0.156249,-0.024844,0.000356,-0.016029,0.009120
"2019-05-06 15:53:59.032 +0000",1557158039.031630,-1.193761,1.195421,-1.001139,-0.340871,-0.930370,-0.134978,0.000000,0.000000,0.000000,-1,0.138138,0.165742,-0.007788,0.002339,-0.011387,0.010100
"2019-05-06 15:53:59.052 +0000",1557158039.051589,-1.196440,1.196775,-0.994098,-0.340058,-0.930866,-0.133603,0.000000,0.000000,0.000000,-1,0.156646,0.230571,-0.019100,0.005753,0.008823,0.003354
"2019-05-06 15:53:59.072 +0000",1557158039.071578,-1.199798,1.198271,-0.986460,-0.339206,-0.931411,-0.131955,0.000000,0.000000,0.000000,-1,0.175615,0.179519,-0.017131,0.006595,0.019714,0.004545
"2019-05-06 15:53:59.092 +0000",1557158039.091536,-1.203957,1.199692,-0.978049,-0.338516,-0.931928,-0.130069,0.000000,0.000000,0.000000,-1,0.163799,0.191171,-0.003272,-0.000412,-0.007037,0.008181
"2019-05-06 15:53:59.112 +0000",1557158039.111524,-1.207786,1.200895,-0.969302,-0.337964,-0.932363,-0.128373,0.000000,0.000000,0.000000,-1,0.162878,0.248483,0.009788,-0.005389,-0.015269,0.005830
"2019-05-06 15:53:59.132 +0000",1557158039.131512,-1.211926,1.202017,-0.959911,-0.337513,-0.932768,-0.126606,0.000000,0.000000,0.000000,-1,0.155277,0.249346,0.044989,0.013614,0.000914,0.013523
"2019-05-06 15:53:59.151 +0000",1557158039.151472,-1.215632,1.202423,-0.950655,-0.337625,-0.932914,-0.125222,0.000000,0.000000,0.000000,-1,0.163887,0.248285,0.038625,0.003976,0.011253,0.002267
"2019-05-06 15:53:59.171 +0000",1557158039.171459,-1.220502,1.202638,-0.940401,-0.338042,-0.932992,-0.123508,0.000000,0.000000,0.000000,-1,0.206744,0.234496,0.011109,-0.011018,0.025948,-0.005688
"2019-05-06 15:53:59.191 +0000",1557158039.191447,-1.226724,1.203270,-0.928163,-0.338249,-0.933219,-0.121203,0.000000,0.000000,0.000000,-1,0.228211,0.255702,0.007130,-0.011498,0.015922,-0.004667
"2019-05-06 15:53:59.211 +0000",1557158039.211405,-1.234587,1.203438,-0.914239,-0.339043,-0.933280,-0.118488,0.000000,0.000000,0.000000,-1,0.234571,0.277893,0.024428,-0.028633,0.001273,0.002674
"2019-05-06 15:53:59.231 +0000",1557158039.231396,-1.243450,1.203410,-0.898549,-0.340105,-0.933269,-0.115487,0.000000,0.000000,0.000000,-1,0.282899,0.319249,0.011159,-0.033491,0.014873,0.003121
"2019-05-06 15:53:59.251 +0000",1557158039.251352,-1.253551,1.203727,-0.880149,-0.340973,-0.933383,-0.111953,0.000000,0.000000,0.000000,-1,0.323883,0.412624,0.009846,-0.032943,0.026614,0.014450
"2019-05-06 15:53:59.271 +0000",1557158039.271342,-1.264242,1.204170,-0.860513,-0.341756,-0.933542,-0.108177,0.000000,0.000000,0.000000,-1,0.369795,0.395537,-0.000528,-0.044154,0.033197,-0.000542
"2019-05-06 15:53:59.291 +0000",1557158039.291328,-1.275210,1.206419,-0.839586,-0.340912,-0.934346,-0.103810,0.000000,0.000000,0.000000,-1,0.402000,0.454932,0.006326,-0.028686,0.001240,0.019841
"2019-05-06 15:53:59.311 +0000",1557158039.311288,-1.286681,1.207967,-0.817032,-0.340692,-0.934896,-0.099487,0.000000,0.000000,0.000000,-1,0.396550,0.503627,0.044940,-0.025046,-0.013926,0.026474
"2019-05-06 15:53:59.331 +0000",1557158039.331275,-1.298657,1.209032,-0.792900,-0.340900,-0.935274,-0.095133,0.000000,0.000000,0.000000,-1,0.447724,0.553299,0.075295,-0.017636,0.003420,0.030649
"2019-05-06 15:53:59.351 +0000",1557158039.351264,-1.311602,1.210065,-0.766539,-0.341169,-0.935639,-0.090464,0.000000,0.000000,0.000000,-1,0.466193,0.612795,0.067160,-0.007189,0.029938,0.036570
"2019-05-06 15:53:59.371 +0000",1557158039.371222,-1.323837,1.211158,-0.740159,-0.341258,-0.936024,-0.086033,0.000000,0.000000,0.000000,-1,0.471656,0.637237,0.064111,-0.015065,0.014989,0.026798
"2019-05-06 15:53:59.391 +0000",1557158039.391212,-1.336266,1.212011,-0.713055,-0.341524,-0.936324,-0.081599,0.000000,0.000000,0.000000,-1,0.469609,0.668026,0.069590,-0.026960,-0.009599,0.034724
"2019-05-06 15:53:59.411 +0000",1557158039.411170,-1.346884,1.212536,-0.686712,-0.341893,-0.936508,-0.077860,0.000000,0.000000,0.000000,-1,0.449424,0.735987,0.090085,-0.018032,-0.035523,0.059274
"2019-05-06 15:53:59.431 +0000",1557158039.431157,-1.355196,1.212355,-0.661622,-0.342693,-0.936445,-0.075051,0.000000,0.000000,0.000000,-1,0.413027,0.774181,0.121004,0.018718,-0.024477,0.061181
"2019-05-06 15:53:59.451 +0000",1557158039.451147,-1.363196,1.211469,-0.637029,-0.344094,-0.936134,-0.072478,0.000000,0.000000,0.000000,-1,0.419181,0.746461,0.136889,0.045785,0.006767,0.037658
"2019-05-06 15:53:59.471 +0000",1557158039.471104,-1.372216,1.210564,-0.612416,-0.345565,-0.935815,-0.069539,0.000000,0.000000,0.000000,-1,0.414637,0.681643,0.138664,0.048888,0.005273,0.026112
"2019-05-06 15:53:59.491 +0000",1557158039.491093,-1.382465,1.209639,-0.587590,-0.347109,-0.935488,-0.066156,0.000000,0.000000,0.000000,-1,0.432757,0.649775,0.126868,0.014376,-0.007230,0.042108
"2019-05-06 15:53:59.511 +0000",1557158039.511081,-1.394670,1.209660,-0.560581,-0.347871,-0.935496,-0.061911,0.000000,0.000000,0.000000,-1,0.434443,0.686103,0.080107,0.023607,-0.006795,0.062277
"2019-05-06 15:53:59.531 +0000",1557158039.531039,-1.403811,1.210044,-0.536525,-0.348068,-0.935632,-0.058669,0.000000,0.000000,0.000000,-1,0.428136,0.650122,0.052177,0.045944,-0.010719,0.044768
"2019-05-06 15:53:59.551 +0000",1557158039.551028,-1.415748,1.210605,-0.511204,-0.348226,-0.935829,-0.054429,0.000000,0.000000,0.000000,-1,0.426586,0.577742,0.077338,0.037633,-0.022178,0.033585
"2019-05-06 15:53:59.571 +0000",1557158039.570987,-1.421491,1.210879,-0.495016,-0.348279,-0.935926,-0.052390,0.000000,0.000000,0.000000,-1,0.065953,0.362423,-0.041750,0.000027,-0.001208,0.059699
"2019-05-06 15:53:59.591 +0000",1557158039.590975,-1.413010,1.214311,-0.497467,-0.344647,-0.937129,-0.054836,0.000000,0.000000,0.000000,-1,0.039884,0.324615,-0.123218,0.029065,-0.030339,0.028973
"2019-05-06 15:53:59.611 +0000",1557158039.610964,-1.411960,1.217436,-0.491288,-0.341696,-0.938215,-0.054735,0.000000,0.000000,0.000000,-1,0.157781,0.363815,-0.159748,0.023306,0.009123,0.056535
"2019-05-06 15:53:59.631 +0000",1557158039.630922,-1.419665,1.221717,-0.473849,-0.338134,-0.939688,-0.051495,0.000000,0.000000,0.000000,-1,0.329811,0.542545,-0.079182,0.051772,-0.024271,0.058194
"2019-05-06 15:53:59.651 +0000",1557158039.650909,-1.432076,1.222249,-0.447523,-0.338252,-0.939870,-0.047226,0.000000,0.000000,0.000000,-1,0.490059,0.630703,0.069186,0.044733,0.000310,0.032806
"2019-05-06 15:53:59.671 +0000",1557158039.670898,-1.450828,1.222267,-0.414924,-0.339062,-0.939876,-0.040873,0.000000,0.000000,0.000000,-1,0.550143,0.589844,0.139544,0.029171,-0.006383,0.013926
"2019-05-06 15:53:59.691 +0000",1557158039.690857,-1.467007,1.221177,-0.385680,-0.340696,-0.939503,-0.035488,0.000000,0.000000,0.000000,-1,0.461875,0.566916,0.091012,0.000044,-0.016170,0.029324
"2019-05-06 15:53:59.711 +0000",1557158039.710846,-1.479279,1.220854,-0.361148,-0.341409,-0.939392,-0.031332,0.000000,0.000000,0.000000,-1,0.368184,0.530149,0.048769,0.011133,-0.014038,0.036383
"2019-05-06 15:53:59.731 +0000",1557158039.730833,-1.485843,1.220326,-0.344403,-0.342101,-0.939211,-0.029133,0.000000,0.000000,0.000000,-1,0.235382,0.426329,0.050784,0.040511,-0.012632,0.037937
"2019-05-06 15:53:59.751 +0000",1557158039.750792,-1.491426,1.221263,-0.330357,-0.341381,-0.939533,-0.027152,0.000000,0.000000,0.000000,-1,0.178271,0.387468,-0.019092,0.012829,0.023716,0.032585
"2019-05-06 15:53:59.771 +0000",1557158039.770780,-1.493783,1.223482,-0.319569,-0.339365,-0.940290,-0.026187,0.000000,0.000000,0.000000,-1,0.233001,0.413520,-0.162616,0.000528,0.065611,0.031497
"2019-05-06 15:53:59.791 +0000",1557158039.790738,-1.504016,1.229023,-0.298991,-0.334411,-0.942162,-0.022365,0.000000,0.000000,0.000000,-1,0.389584,0.480854,-0.329944,-0.005860,0.055931,0.028225
"2019-05-06 15:53:59.811 +0000",1557158039.810727,-1.516062,1.237156,-0.274746,-0.326995,-0.944856,-0.017916,0.000000,0.000000,0.000000,-1,0.429834,0.576592,-0.371910,0.052764,-0.046492,0.027422
"2019-05-06 15:53:59.831 +0000",1557158039.830716,-1.527698,1.244714,-0.250458,-0.320037,-0.947305,-0.013802,0.000000,0.000000,0.000000,-1,0.391967,0.567929,-0.317808,0.058181,-0.055061,0.019310
"2019-05-06 15:53:59.851 +0000",1557158039.850673,-1.537097,1.250836,-0.228837,-0.314350,-0.949248,-0.010598,0.000000,0.000000,0.000000,-1,0.319606,0.568717,-0.221213,0.055378,-0.058458,0.017296
"2019-05-06 15:53:59.871 +0000",1557158039.870661,-1.543632,1.255349,-0.210918,-0.310127,-0.950658,-0.008426,0.000000,0.000000,0.000000,-1,0.235542,0.501687,-0.159158,0.024116,0.012761,0.012974
"2019-05-06 15:53:59.891 +0000",1557158039.890650,-1.546965,1.258778,-0.198338,-0.306893,-0.951716,-0.007315,0.000000,0.000000,0.000000,-1,0.168060,0.404152,-0.173856,0.026681,0.071818,0.011099
"2019-05-06 15:53:59.911 +0000",1557158039.910608,-1.553332,1.264511,-0.184972,-0.301473,-0.953460,-0.005265,0.000000,0.000000,0.000000,-1,0.172851,0.303130,-0.157524,0.056035,-0.004471,0.016038
"2019-05-06 15:53:59.931 +0000",1557158039.930598,-1.560291,1.271482,-0.172372,-0.294849,-0.955539,-0.003098,0.000000,0.000000,0.000000,-1,0.152360,0.255410,-0.159300,0.043186,-0.095532,0.013184
"2019-05-06 15:53:59.951 +0000",1557158039.950554,-1.567736,1.275759,-0.159532,-0.290774,-0.956791,-0.000890,0.000000,0.000000,0.000000,-1,0.191148,0.245421,-0.085769,0.027972,-0.123501,0.010167
"2019-05-06 15:53:59.971 +0000",1557158039.970543,-1.578476,1.278088,-0.143318,-0.288538,-0.957466,0.002216,0.000000,0.000000,0.000000,-1,0.219008,0.250158,0.025057,0.024789,-0.006340,0.008023
"2019-05-06 15:53:59.991 +0000",1557158039.990531,-1.587447,1.276663,-0.129636,-0.289870,-0.957054,0.004827,0.000000,0.000000,0.000000,-1,0.189214,0.174421,0.101292,0.026260,0.023964,0.004069
"2019-05-06 15:54:00.010 +0000",1557158040.010489,-1.599684,1.273892,-0.113320,-0.292440,-0.956247,0.008450,0.000000,0.000000,0.000000,-1,0.200790,0.211848,0.267724,0.057744,0.060876,0.032428
"2019-05-06 15:54:00.030 +0000",1557158040.030477,-1.609574,1.267904,-0.098160,-0.298058,-0.954478,0.011564,0.000000,0.000000,0.000000,-1,0.215600,0.220221,0.287030,0.015923,-0.028768,0.011462
"2019-05-06 15:54:00.050 +0000",1557158040.050465,-1.619949,1.263382,-0.083039,-0.302230,-0.953119,0.014867,0.000000,0.000000,0.000000,-1,0.207120,0.207025,0.158978,-0.016526,-0.043158,0.022776
"2019-05-06 15:54:00.070 +0000",1557158040.070422,-1.628118,1.261406,-0.070423,-0.303978,-0.952519,0.017444,0.000000,0.000000,0.000000,-1,0.181212,0.175704,0.055277,-0.015251,0.016210,0.010861
"2019-05-06 15:54:00.090 +0000",1557158040.090411,-1.634541,1.259745,-0.060480,-0.305438,-0.952012,0.019497,0.000000,0.000000,0.000000,-1,0.103583,0.121930,0.003518,0.002841,0.093354,0.008625
"2019-05-06 15:54:00.110 +0000",1557158040.110369,-1.636030,1.260727,-0.058885,-0.304475,-0.952313,0.019890,0.000000,0.000000,0.000000,-1,-0.025686,-0.068661,-0.072710,0.003663,-0.030735,-0.007149
"2019-05-06 15:54:00.130 +0000",1557158040.130358,-1.637011,1.263144,-0.060145,-0.302158,-0.953047,0.020037,0.000000,0.000000,0.000000,-1,-0.034490,-0.092146,-0.049351,0.003452,-0.113710,0.013670
"2019-05-06 15:54:00.150 +0000",1557158040.150346,-1.638096,1.262919,-0.059286,-0.302350,-0.952979,0.020379,0.000000,0.000000,0.000000,-1,0.045469,0.050741,0.028524,0.010923,-0.093820,0.034995
"2019-05-06 15:54:00.170 +0000",1557158040.170304,-1.639608,1.262056,-0.056297,-0.303140,-0.952717,0.020893,0.000000,0.000000,0.000000,-1,0.037822,0.055966,0.050900,0.022240,0.009739,0.023846
"2019-05-06 15:54:00.190 +0000",1557158040.190293,-1.644475,1.261366,-0.050618,-0.303690,-0.952507,0.022416,0.000000,0.000000,0.000000,-1,0.039957,0.043174,0.055043,0.029490,0.007881,0.029189
"2019-05-06 15:54:00.210 +0000",1557158040.210281,-1.646892,1.260311,-0.047264,-0.304637,-0.952185,0.023226,0.000000,0.000000,0.000000,-1,0.063516,0.036795,0.043402,0.028621,-0.000146,0.008558
"2019-05-06 15:54:00.230 +0000",1557158040.230240,-1.651187,1.260196,-0.042448,-0.304643,-0.952150,0.024543,0.000000,0.000000,0.000000,-1,0.070963,0.001780,0.029346,0.006975,-0.006819,-0.004249
"2019-05-06 15:54:00.250 +0000",1557158040.250228,-1.655057,1.259588,-0.038626,-0.305123,-0.951964,0.025771,0.000000,0.000000,0.000000,-1,0.057051,-0.014109,0.025998,-0.013129,-0.002702,0.003709
"2019-05-06 15:54:00.270 +0000",1557158040.270186,-1.658802,1.258274,-0.034773,-0.306270,-0.951561,0.027023,0.000000,0.000000,0.000000,-1,0.057053,0.011315,0.041089,-0.007146,0.022301,0.012802
"2019-05-06 15:54:00.290 +0000",1557158040.290175,-1.662237,1.257519,-0.030451,-0.306891,-0.951329,0.028141,0.000000,0.000000,0.000000,-1,0.063765,0.036912,0.017796,-0.005579,-0.006511,-0.000538
"2019-05-06 15:54:00.310 +0000",1557158040.310163,-1.661467,1.257470,-0.030859,-0.306959,-0.951313,0.027909,0.000000,0.000000,0.000000,-1,-0.027155,-0.003234,0.017132,-0.000948,-0.032802,-0.013245
"2019-05-06 15:54:00.330 +0000",1557158040.330122,-1.658577,1.256987,-0.034711,-0.307495,-0.951165,0.027062,0.000000,0.000000,0.000000,-1,-0.068074,-0.055281,0.033726,0.007111,-0.027412,-0.001366
"2019-05-06 15:54:00.350 +0000",1557158040.350109,-1.655654,1.256831,-0.039005,-0.307721,-0.951117,0.026175,0.000000,0.000000,0.000000,-1,-0.075477,-0.052050,0.028341,0.004499,-0.008280,0.009912
"2019-05-06 15:54:00.370 +0000",1557158040.370100,-1.652503,1.256399,-0.043480,-0.308212,-0.950983,0.025239,0.000000,0.000000,0.000000,-1,-0.060563,-0.059525,0.028379,0.016739,0.018640,0.009734
"2019-05-06 15:54:00.390 +0000",1557158040.390055,-1.652921,1.256112,-0.044435,-0.308473,-0.950894,0.025390,0.000000,0.000000,0.000000,-1,-0.030497,-0.044699,0.021111,0.008180,0.026837,0.008835
"2019-05-06 15:54:00.410 +0000",1557158040.410044,-1.654547,1.255759,-0.043267,-0.308766,-0.950785,0.025920,0.000000,0.000000,0.000000,-1,0.024375,0.004157,-0.002902,0.003652,0.010523,0.003224
"2019-05-06 15:54:00.430 +0000",1557158040.430032,-1.656564,1.255817,-0.040491,-0.308658,-0.950803,0.026538,0.000000,0.000000,0.000000,-1,0.056618,0.045556,-0.009991,0.000629,0.003903,-0.001834
"2019-05-06 15:54:00.450 +0000",1557158040.449991,-1.658997,1.255975,-0.036726,-0.308444,-0.950852,0.027276,0.000000,0.000000,0.000000,-1,0.066300,0.058306,-0.014146,-0.005537,-0.016693,-0.000481
"2019-05-06 15:54:00.470 +0000",1557158040.469980,-1.661060,1.256101,-0.033496,-0.308267,-0.950891,0.027901,0.000000,0.000000,0.000000,-1,0.031160,0.049945,-0.026073,-0.009986,-0.015510,0.004188
"2019-05-06 15:54:00.490 +0000",1557158040.489938,-1.661575,1.255950,-0.032133,-0.308395,-0.950844,0.028073,0.000000,0.000000,0.000000,-1,-0.008226,0.047949,-0.034752,-0.017884,-0.003654,0.009052
"2019-05-06 15:54:00.510 +0000",1557158040.509925,-1.659582,1.256351,-0.034072,-0.308071,-0.950968,0.027424,0.000000,0.000000,0.000000,-1,-0.043594,0.002357,-0.038318,-0.008396,-0.017111,0.002498
"2019-05-06 15:54:00.530 +0000",1557158040.529914,-1.657075,1.257357,-0.036756,-0.307185,-0.951279,0.026570,0.000000,0.000000,0.000000,-1,-0.048970,0.000224,-0.034109,0.002025,-0.014770,0.002361
"2019-05-06 15:54:00.550 +0000",1557158040.549872,-1.656062,1.258424,-0.037794,-0.306201,-0.951607,0.026172,0.000000,0.000000,0.000000,-1,-0.000068,0.006363,-0.009371,0.013766,-0.004325,0.001447
"2019-05-06 15:54:00.570 +0000",1557158040.569861,-1.657377,1.258431,-0.036217,-0.306159,-0.951609,0.026574,0.000000,0.000000,0.000000,-1,0.042453,0.002990,0.007877,0.001563,0.016322,-0.004601
"2019-05-06 15:54:00.590 +0000",1557158040.589849,-1.659900,1.257759,-0.033431,-0.306728,-0.951403,0.027403,0.000000,0.000000,0.000000,-1,0.043684,0.014729,-0.003740,-0.007176,0.021959,0.001588
"2019-05-06 15:54:00.610 +0000",1557158040.609807,-1.662080,1.257272,-0.030179,-0.307129,-0.951253,0.028114,0.000000,0.000000,0.000000,-1,0.054866,0.056317,-0.040704,-0.019898,0.011082,-0.002983
"2019-05-06 15:54:00.630 +0000",1557158040.629796,-1.661759,1.257472,-0.029489,-0.306948,-0.951314,0.027998,0.000000,0.000000,0.000000,-1,-0.033596,0.025866,-0.071063,-0.024931,-0.027247,-0.004042
"2019-05-06 15:54:00.650 +0000",1557158040.649754,-1.662512,1.257353,-0.027174,-0.307040,-0.951277,0.028240,0.000000,0.000000,0.000000,-1,0.041120,0.060663,-0.053365,-0.010022,0.013671,-0.006847
"2019-05-06 15:54:00.670 +0000",1557158040.669743,-1.662593,1.257812,-0.025815,-0.306603,-0.951419,0.028224,0.000000,0.000000,0.000000,-1,0.036593,0.046777,-0.034239,-0.006736,-0.008557,-0.010585
"2019-05-06 15:54:00.690 +0000",1557158040.689732,-1.662135,1.258094,-0.025337,-0.306348,-0.951506,0.028060,0.000000,0.000000,0.000000,-1,0.008832,0.043672,-0.036491,-0.005297,0.008909,-0.000838
"2019-05-06 15:54:00.710 +0000",1557158040.709689,-1.662861,1.259054,-0.023505,-0.305418,-0.951801,0.028198,0.000000,0.000000,0.000000,-1,0.020786,0.060712,-0.051279,0.009245,0.010745,0.004105
"2019-05-06 15:54:00.730 +0000",1557158040.729678,-1.663788,1.260658,-0.021162,-0.303872,-0.952291,0.028339,0.000000,0.000000,0.000000,-1,0.009154,0.078818,-0.054498,0.016152,0.001928,0.005718
"2019-05-06 15:54:00.750 +0000",1557158040.749668,-1.663656,1.262412,-0.019644,-0.302212,-0.952825,0.028144,0.000000,0.000000,0.000000,-1,0.000648,0.080966,-0.055656,0.012661,-0.007609,0.006371
"2019-05-06 15:54:00.770 +0000",1557158040.769625,-1.663718,1.263928,-0.018535,-0.300772,-0.953284,0.028029,0.000000,0.000000,0.000000,-1,-0.003990,0.041535,-0.030353,0.014914,-0.020379,0.008638
"2019-05-06 15:54:00.790 +0000",1557158040.789613,-1.662012,1.264365,-0.019693,-0.300404,-0.953416,0.027478,0.000000,0.000000,0.000000,-1,-0.030842,0.027727,-0.017763,0.036076,-0.008086,0.006809
"2019-05-06 15:54:00.810 +0000",1557158040.809570,-1.659040,1.265369,-0.022586,-0.299531,-0.953718,0.026501,0.000000,0.000000,0.000000,-1,-0.052357,-0.007288,-0.017025,0.025910,-0.000749,-0.004543
"2019-05-06 15:54:00.830 +0000",1557158040.829559,-1.656020,1.266050,-0.026762,-0.298962,-0.953923,0.025541,0.000000,0.000000,0.000000,-1,-0.056961,-0.074242,-0.012075,0.009777,-0.013209,-0.007474
"2019-05-06 15:54:00.850 +0000",1557158040.849548,-1.653930,1.266773,-0.030762,-0.298328,-0.954140,0.024858,0.000000,0.000000,0.000000,-1,-0.066492,-0.092201,-0.029288,0.004276,-0.015907,0.001478
"2019-05-06 15:54:00.870 +0000",1557158040.869506,-1.654171,1.267878,-0.032292,-0.297270,-0.954470,0.024842,0.000000,0.000000,0.000000,-1,-0.008567,-0.064635,-0.047009,0.006392,-0.006544,0.010772
"2019-05-06 15:54:00.889 +0000",1557158040.889495,-1.656149,1.269229,-0.031593,-0.295936,-0.954872,0.025321,0.000000,0.000000,0.000000,-1,-0.049047,-0.063460,-0.051485,-0.008110,0.003410,0.007562
"2019-05-06 15:54:00.909 +0000",1557158040.909484,-1.655122,1.270190,-0.034319,-0.295047,-0.955157,0.024939,0.000000,0.000000,0.000000,-1,-0.045108,-0.085925,-0.022812,0.008395,-0.003797,0.000772
"2019-05-06 15:54:00.929 +0000",1557158040.929443,-1.652147,1.271445,-0.040144,-0.293925,-0.955528,0.023964,0.000000,0.000000,0.000000,-1,-0.096636,-0.163330,-0.029899,0.011897,0.014397,-0.011986
"2019-05-06 15:54:00.949 +0000",1557158040.949431,-1.647376,1.272654,-0.049137,-0.292884,-0.955884,0.022473,0.000000,0.000000,0.000000,-1,-0.116240,-0.218587,-0.017525,0.013206,0.001141,-0.010419
"2019-05-06 15:54:00.969 +0000",1557158040.969419,-1.643540,1.273347,-0.058081,-0.292307,-0.956087,0.021301,0.000000,0.000000,0.000000,-1,-0.133615,-0.249443,0.000330,0.006067,-0.001539,-0.002014
"2019-05-06 15:54:00.989 +0000",1557158040.989375,-1.640745,1.273525,-0.066342,-0.292197,-0.956139,0.020472,0.000000,0.000000,0.000000,-1,-0.141144,-0.253715,0.007728,-0.002802,-0.003410,0.011861
"2019-05-06 15:54:01.009 +0000",1557158041.009349,-1.637105,1.273330,-0.075705,-0.292455,-0.956082,0.019421,0.000000,0.000000,0.000000,-1,-0.178715,-0.268613,0.029848,-0.002803,-0.018771,0.011600
"2019-05-06 15:54:01.029 +0000",1557158041.029308,-1.631901,1.272880,-0.087234,-0.292981,-0.955950,0.017925,0.000000,0.000000,0.000000,-1,-0.182046,-0.301567,0.032863,-0.002445,-0.003644,0.008366
"2019-05-06 15:54:01.049 +0000",1557158041.049298,-1.627800,1.272580,-0.098264,-0.293339,-0.955862,0.016740,0.000000,0.000000,0.000000,-1,-0.183079,-0.329138,0.019929,-0.000653,-0.001886,0.012466
"2019-05-06 15:54:01.069 +0000",1557158041.069287,-1.623562,1.272397,-0.109926,-0.293582,-0.955808,0.015506,0.000000,0.000000,0.000000,-1,-0.195867,-0.351387,0.011229,-0.001768,0.002317,0.008008
"2019-05-06 15:54:01.089 +0000",1557158041.089244,-1.618647,1.271850,-0.122646,-0.294177,-0.955647,0.014087,0.000000,0.000000,0.000000,-1,-0.189509,-0.365224,0.012293,-0.009779,0.013127,0.003826
"2019-05-06 15:54:01.109 +0000",1557158041.109232,-1.614137,1.271208,-0.134662,-0.294850,-0.955458,0.012787,0.000000,0.000000,0.000000,-1,-0.182754,-0.337491,-0.013048,-0.024883,0.016569,0.003632
"2019-05-06 15:54:01.129 +0000",1557158041.129220,-1.611345,1.271088,-0.143494,-0.294999,-0.955423,0.011968,0.000000,0.000000,0.000000,-1,-0.142334,-0.248072,-0.071871,-0.029037,0.010339,0.019449
"2019-05-06 15:54:01.149 +0000",1557158041.149180,-1.607260,1.270395,-0.153197,-0.295707,-0.955218,0.010787,0.000000,0.000000,0.000000,-1,-0.105488,-0.273876,-0.025832,-0.054757,0.009264,-0.007079
"2019-05-06 15:54:01.169 +0000",1557158041.169168,-1.606280,1.269901,-0.158556,-0.296189,-0.955072,0.010514,0.000000,0.000000,0.000000,-1,-0.078105,-0.164348,-0.054910,-0.064712,0.023065,-0.000611
"2019-05-06 15:54:01.189 +0000",1557158041.189125,-1.603866,1.271336,-0.163460,-0.294844,-0.955496,0.009754,0.000000,0.000000,0.000000,-1,-0.063786,-0.104766,-0.077995,-0.049532,0.015936,-0.008594
"2019-05-06 15:54:01.209 +0000",1557158041.209114,-1.603094,1.271996,-0.166257,-0.294221,-0.955690,0.009506,0.000000,0.000000,0.000000,-1,0.008720,-0.099650,-0.071153,-0.009673,0.015276,-0.015075
"2019-05-06 15:54:01.229 +0000",1557158041.229104,-1.604467,1.273338,-0.166104,-0.292925,-0.956085,0.009867,0.000000,0.000000,0.000000,-1,-0.011416,-0.061351,-0.069997,0.008531,-0.005784,0.017324
"2019-05-06 15:54:01.249 +0000",1557158041.249062,-1.606009,1.274794,-0.165264,-0.291517,-0.956510,0.010269,0.000000,0.000000,0.000000,-1,0.022845,-0.027448,-0.066474,0.020277,-0.010378,0.016143
"2019-05-06 15:54:01.269 +0000",1557158041.269051,-1.605445,1.276255,-0.166732,-0.290127,-0.956935,0.010057,0.000000,0.000000,0.000000,-1,-0.057290,-0.075005,-0.079906,0.019436,-0.024128,0.028823
"2019-05-06 15:54:01.289 +0000",1557158041.289038,-1.603562,1.278407,-0.171381,-0.288086,-0.957558,0.009443,0.000000,0.000000,0.000000,-1,-0.079039,-0.164231,-0.076250,0.041718,-0.043297,0.021365
"2019-05-06 15:54:01.309 +0000",1557158041.308997,-1.600026,1.279922,-0.179946,-0.286667,-0.957994,0.008382,0.000000,0.000000,0.000000,-1,-0.156386,-0.275637,-0.071863,0.055222,-0.016829,0.013713
"2019-05-06 15:54:01.329 +0000",1557158041.328985,-1.595077,1.282739,-0.192269,-0.284006,-0.958798,0.006897,0.000000,0.000000,0.000000,-1,-0.203918,-0.390347,-0.059993,0.059900,-0.025425,0.014953
"2019-05-06 15:54:01.349 +0000",1557158041.348973,-1.588887,1.283770,-0.207920,-0.283055,-0.959090,0.005121,0.000000,0.000000,0.000000,-1,-0.235415,-0.483870,-0.041427,0.061604,-0.013826,0.015402
"2019-05-06 15:54:01.369 +0000",1557158041.368932,-1.583855,1.286025,-0.224159,-0.280914,-0.959726,0.003669,0.000000,0.000000,0.000000,-1,-0.261242,-0.557106,-0.048421,0.061890,-0.010687,0.028054
"2019-05-06 15:54:01.389 +0000",1557158041.388920,-1.576841,1.286977,-0.243590,-0.280019,-0.959993,0.001693,0.000000,0.000000,0.000000,-1,-0.286120,-0.638865,-0.048954,0.049749,-0.013670,0.034440
"2019-05-06 15:54:01.409 +0000",1557158041.408879,-1.570203,1.288209,-0.264329,-0.278841,-0.960337,-0.000166,0.000000,0.000000,0.000000,-1,-0.319451,-0.686640,-0.041933,0.032946,-0.027135,0.038816
"2019-05-06 15:54:01.429 +0000",1557158041.428866,-1.562441,1.289332,-0.287353,-0.277752,-0.960650,-0.002321,0.000000,0.000000,0.000000,-1,-0.337794,-0.742912,-0.043395,0.026593,-0.011716,0.022310
"2019-05-06 15:54:01.449 +0000",1557158041.448854,-1.555131,1.290876,-0.310720,-0.276245,-0.961078,-0.004328,0.000000,0.000000,0.000000,-1,-0.349447,-0.764068,-0.059592,0.019623,-0.003476,0.019449
"2019-05-06 15:54:01.469 +0000",1557158041.468814,-1.547690,1.292528,-0.334445,-0.274617,-0.961533,-0.006347,0.000000,0.000000,0.000000,-1,-0.349158,-0.758644,-0.085175,0.006154,0.000977,0.019851
"2019-05-06 15:54:01.489 +0000",1557158041.488802,-1.540311,1.294863,-0.357081,-0.272318,-0.962171,-0.008304,0.000000,0.000000,0.000000,-1,-0.304850,-0.747860,-0.141398,-0.024252,0.012373,0.018360
"2019-05-06 15:54:01.509 +0000",1557158041.508790,-1.531246,1.297807,-0.381374,-0.269400,-0.962969,-0.010660,0.000000,0.000000,0.000000,-1,-0.343781,-0.695502,-0.181844,-0.024087,0.011584,0.023157
"2019-05-06 15:54:01.529 +0000",1557158041.528750,-1.519956,1.300505,-0.408120,-0.266667,-0.963693,-0.013569,0.000000,0.000000,0.000000,-1,-0.375122,-0.743361,-0.157691,-0.011897,-0.003180,0.008259
"2019-05-06 15:54:01.549 +0000",1557158041.548737,-1.506994,1.302727,-0.437255,-0.264331,-0.964284,-0.016888,0.000000,0.000000,0.000000,-1,-0.389476,-0.774334,-0.117404,0.001102,-0.001796,0.010403
"2019-05-06 15:54:01.569 +0000",1557158041.568696,-1.495125,1.304126,-0.466061,-0.262767,-0.964654,-0.019922,0.000000,0.000000,0.000000,-1,-0.366522,-0.817095,-0.075934,0.007045,0.004326,-0.003226
"2019-05-06 15:54:01.589 +0000",1557158041.588683,-1.485764,1.304775,-0.492846,-0.261945,-0.964825,-0.022328,0.000000,0.000000,0.000000,-1,-0.349742,-0.840626,-0.052513,0.002194,0.000316,0.003590
"2019-05-06 15:54:01.609 +0000",1557158041.608671,-1.476873,1.305123,-0.519244,-0.261401,-0.964916,-0.024624,0.000000,0.000000,0.000000,-1,-0.344380,-0.827904,-0.049221,-0.001752,0.010921,0.007260
"2019-05-06 15:54:01.629 +0000",1557158041.628630,-1.469408,1.305527,-0.544447,-0.260823,-0.965022,-0.026535,0.000000,0.000000,0.000000,-1,-0.319846,-0.850239,-0.057736,-0.008541,0.017970,0.000031
"2019-05-06 15:54:01.649 +0000",1557158041.648619,-1.461956,1.306170,-0.569067,-0.260001,-0.965190,-0.028411,0.000000,0.000000,0.000000,-1,-0.335443,-0.801203,-0.082075,-0.024560,0.011821,0.013244
"2019-05-06 15:54:01.669 +0000",1557158041.668607,-1.452022,1.306689,-0.595129,-0.259209,-0.965326,-0.030933,0.000000,0.000000,0.000000,-1,-0.340590,-0.745955,-0.077539,-0.021110,-0.001563,0.012058
"2019-05-06 15:54:01.689 +0000",1557158041.688565,-1.441028,1.306971,-0.620828,-0.258583,-0.965399,-0.033746,0.000000,0.000000,0.000000,-1,-0.355245,-0.640803,-0.060006,-0.017495,-0.009912,0.028756
"2019-05-06 15:54:01.709 +0000",1557158041.708554,-1.428995,1.306537,-0.647583,-0.258573,-0.965286,-0.036914,0.000000,0.000000,0.000000,-1,-0.330981,-0.696139,-0.054778,-0.028323,-0.002274,-0.000638
"2019-05-06 15:54:01.729 +0000",1557158041.728543,-1.418647,1.306410,-0.672075,-0.258298,-0.965253,-0.039606,0.000000,0.000000,0.000000,-1,-0.328469,-0.654584,-0.079031,-0.021350,0.009442,0.002359
"2019-05-06 15:54:01.749 +0000",1557158041.748500,-1.408492,1.305638,-0.695394,-0.258617,-0.965051,-0.042347,0.000000,0.000000,0.000000,-1,-0.340004,-0.598257,-0.074441,-0.026142,0.007715,0.024067
"2019-05-06 15:54:01.768 +0000",1557158041.768489,-1.397627,1.304743,-0.719450,-0.258993,-0.964816,-0.045304,0.000000,0.000000,0.000000,-1,-0.271832,-0.605880,-0.067656,-0.041086,0.018512,-0.006378
"2019-05-06 15:54:01.788 +0000",1557158041.788447,-1.390300,1.304374,-0.738574,-0.259004,-0.964719,-0.047264,0.000000,0.000000,0.000000,-1,-0.279947,-0.534601,-0.081114,-0.022704,0.011762,0.018150
"2019-05-06 15:54:01.808 +0000",1557158041.808436,-1.382053,1.303944,-0.758252,-0.259014,-0.964606,-0.049476,0.000000,0.000000,0.000000,-1,-0.255495,-0.546357,-0.077769,-0.023121,0.005560,-0.008004
"2019-05-06 15:54:01.828 +0000",1557158041.828424,-1.370526,1.302977,-0.781046,-0.259340,-0.964350,-0.052644,0.000000,0.000000,0.000000,-1,-0.267301,-0.525088,-0.070188,-0.028273,0.019907,-0.022048
"2019-05-06 15:54:01.848 +0000",1557158041.848382,-1.360986,1.302020,-0.800021,-0.259728,-0.964097,-0.055308,0.000000,0.000000,0.000000,-1,-0.266874,-0.372158,-0.050146,-0.023353,0.008225,0.019983
"2019-05-06 15:54:01.868 +0000",1557158041.868370,-1.348300,1.300204,-0.820694,-0.260713,-0.963613,-0.058984,0.000000,0.000000,0.000000,-1,-0.217137,-0.343809,0.001476,-0.016524,0.030019,-0.007453
"2019-05-06 15:54:01.888 +0000",1557158041.888359,-1.342241,1.297848,-0.834605,-0.262562,-0.962980,-0.061077,0.000000,0.000000,0.000000,-1,-0.175345,-0.379814,-0.042061,-0.050487,0.011289,-0.012897
"2019-05-06 15:54:01.908 +0000",1557158041.908319,-1.336001,1.296785,-0.847887,-0.263170,-0.962693,-0.062952,0.000000,0.000000,0.000000,-1,-0.170632,-0.296835,-0.060741,-0.020353,0.005967,-0.013174
"2019-05-06 15:54:01.928 +0000",1557158041.928307,-1.327592,1.296742,-0.860458,-0.262672,-0.962682,-0.065173,0.000000,0.000000,0.000000,-1,-0.210246,-0.108572,-0.079121,-0.026985,-0.022960,0.035754
"2019-05-06 15:54:01.948 +0000",1557158041.948263,-1.314794,1.295478,-0.877299,-0.262994,-0.962339,-0.068837,0.000000,0.000000,0.000000,-1,-0.157914,-0.243860,-0.031541,-0.012443,0.008756,-0.022486
"2019-05-06 15:54:01.968 +0000",1557158041.968251,-1.308764,1.294489,-0.888741,-0.263492,-0.962069,-0.070668,0.000000,0.000000,0.000000,-1,-0.120570,-0.242830,-0.038760,-0.003109,0.000216,-0.010966
"2019-05-06 15:54:01.988 +0000",1557158041.988242,-1.302096,1.294233,-0.898473,-0.263253,-0.962000,-0.072489,0.000000,0.000000,0.000000,-1,-0.136681,-0.043985,-0.058068,-0.018577,-0.023627,0.019373
"2019-05-06 15:54:02.008 +0000",1557158042.008199,-1.292548,1.293683,-0.909830,-0.263058,-0.961849,-0.075145,0.000000,0.000000,0.000000,-1,-0.085844,-0.068651,-0.032325,-0.015095,0.002346,-0.013127
"2019-05-06 15:54:02.028 +0000",1557158042.028158,-1.289688,1.292719,-0.915019,-0.263733,-0.961585,-0.076154,0.000000,0.000000,0.000000,-1,-0.085082,-0.111216,-0.019665,-0.020218,0.023139,0.000989
"2019-05-06 15:54:02.048 +0000",1557158042.048145,-1.285759,1.292792,-0.920098,-0.263364,-0.961605,-0.077170,0.000000,0.000000,0.000000,-1,-0.102515,0.025963,-0.033969,0.000425,-0.001621,0.013938
"2019-05-06 15:54:02.068 +0000",1557158042.068103,-1.277133,1.292512,-0.928077,-0.262946,-0.961528,-0.079517,0.000000,0.000000,0.000000,-1,-0.140670,-0.028480,0.035882,0.031028,0.010127,-0.019360
"2019-05-06 15:54:02.088 +0000",1557158042.088093,-1.270935,1.290610,-0.936351,-0.264195,-0.961004,-0.081685,0.000000,0.000000,0.000000,-1,-0.089436,-0.110192,-0.010026,-0.017238,0.005178,-0.013515
"2019-05-06 15:54:02.108 +0000",1557158042.108080,-1.267230,1.290149,-0.942627,-0.264313,-0.960876,-0.082796,0.000000,0.000000,0.000000,-1,-0.070263,-0.120851,-0.012106,-0.006897,0.012985,-0.001936
"2019-05-06 15:54:02.128 +0000",1557158042.128038,-1.265427,1.289609,-0.946754,-0.264659,-0.960727,-0.083428,0.000000,0.000000,0.000000,-1,-0.059625,-0.109262,-0.001279,-0.014302,0.009845,-0.004722
"2019-05-06 15:54:02.148 +0000",1557158042.148029,-1.263582,1.288327,-0.950727,-0.265678,-0.960370,-0.084289,0.000000,0.000000,0.000000,-1,-0.037244,-0.096574,0.003208,-0.022958,0.000150,-0.011369
"2019-05-06 15:54:02.168 +0000",1557158042.167985,-1.264136,1.287585,-0.951328,-0.266403,-0.960163,-0.084356,0.000000,0.000000,0.000000,-1,-0.019686,-0.015778,-0.014368,-0.016708,-0.001339,0.008139
"2019-05-06 15:54:02.188 +0000",1557158042.187973,-1.263176,1.286959,-0.951960,-0.266896,-0.959988,-0.084794,0.000000,0.000000,0.000000,-1,-0.018549,0.034095,-0.000203,-0.016643,0.018841,0.000459
"2019-05-06 15:54:02.208 +0000",1557158042.207962,-1.262889,1.285956,-0.951357,-0.267788,-0.959707,-0.085162,0.000000,0.000000,0.000000,-1,0.011366,0.052078,0.002231,-0.020252,0.005315,-0.000729
"2019-05-06 15:54:02.228 +0000",1557158042.227922,-1.263104,1.285537,-0.950009,-0.268190,-0.959589,-0.085227,0.000000,0.000000,0.000000,-1,0.006073,0.065897,0.003375,-0.010894,-0.004568,-0.000329
"2019-05-06 15:54:02.248 +0000",1557158042.247909,-1.262109,1.285572,-0.949321,-0.268073,-0.959599,-0.085483,0.000000,0.000000,0.000000,-1,0.014572,0.086001,0.017364,0.007956,0.000401,-0.001583
"2019-05-06 15:54:02.268 +0000",1557158042.267898,-1.261459,1.285388,-0.947793,-0.268185,-0.959547,-0.085711,0.000000,0.000000,0.000000,-1,0.032822,0.125250,0.022968,0.003461,-0.006624,-0.002454
"2019-05-06 15:54:02.288 +0000",1557158042.287855,-1.261234,1.284793,-0.945347,-0.268710,-0.959379,-0.085946,0.000000,0.000000,0.000000,-1,0.017799,0.131607,0.034663,-0.006803,0.005293,0.002297
"2019-05-06 15:54:02.308 +0000",1557158042.307845,-1.261134,1.284236,-0.942664,-0.269210,-0.959222,-0.086135,0.000000,0.000000,0.000000,-1,0.016866,0.144397,0.026207,-0.000825,0.005059,0.004409
"2019-05-06 15:54:02.328 +0000",1557158042.327803,-1.260808,1.284285,-0.940234,-0.269137,-0.959236,-0.086209,0.000000,0.000000,0.000000,-1,0.034987,0.127362,0.022996,0.013705,0.007103,0.003872
"2019-05-06 15:54:02.348 +0000",1557158042.347790,-1.261034,1.284790,-0.937550,-0.268695,-0.959378,-0.086000,0.000000,0.000000,0.000000,-1,0.038139,0.114591,0.025030,0.024707,0.000882,0.005601
"2019-05-06 15:54:02.368 +0000",1557158042.367780,-1.261331,1.285461,-0.934992,-0.268108,-0.959567,-0.085724,0.000000,0.000000,0.000000,-1,0.046598,0.100737,0.029200,0.025158,-0.009015,0.000046
"2019-05-06 15:54:02.388 +0000",1557158042.387738,-1.262549,1.285905,-0.931803,-0.267807,-0.959692,-0.085268,0.000000,0.000000,0.000000,-1,0.050786,0.082653,0.031211,0.014785,-0.006922,-0.000745
"2019-05-06 15:54:02.408 +0000",1557158042.407727,-1.265283,1.285933,-0.927496,-0.268012,-0.959700,-0.084528,0.000000,0.000000,0.000000,-1,0.054047,0.069949,0.019425,0.002540,0.004149,0.002710
"2019-05-06 15:54:02.428 +0000",1557158042.427715,-1.268076,1.286077,-0.923123,-0.268116,-0.959740,-0.083738,0.000000,0.000000,0.000000,-1,0.050998,0.075332,0.005582,0.000355,0.005456,0.006635
"2019-05-06 15:54:02.448 +0000",1557158042.447671,-1.269131,1.286453,-0.920282,-0.267860,-0.959846,-0.083348,0.000000,0.000000,0.000000,-1,0.043582,0.085982,0.004519,0.006583,-0.001793,-0.000743
"2019-05-06 15:54:02.468 +0000",1557158042.467659,-1.271252,1.286664,-0.916372,-0.267842,-0.959905,-0.082719,0.000000,0.000000,0.000000,-1,0.046715,0.083805,0.013050,-0.000316,-0.004404,0.005342
"2019-05-06 15:54:02.488 +0000",1557158042.487650,-1.273475,1.286803,-0.912300,-0.267898,-0.959944,-0.082085,0.000000,0.000000,0.000000,-1,0.048834,0.090141,0.019483,0.003127,-0.007219,0.005806
"2019-05-06 15:54:02.508 +0000",1557158042.507607,-1.275142,1.286864,-0.908555,-0.267978,-0.959961,-0.081621,0.000000,0.000000,0.000000,-1,0.042450,0.103943,0.024839,0.007221,0.002930,0.002764
"2019-05-06 15:54:02.528 +0000",1557158042.527596,-1.276100,1.286685,-0.905330,-0.268221,-0.959911,-0.081414,0.000000,0.000000,0.000000,-1,0.046668,0.106029,0.031257,0.003588,0.006298,-0.002204
"2019-05-06 15:54:02.548 +0000",1557158042.547553,-1.278095,1.286463,-0.901204,-0.268587,-0.959849,-0.080941,0.000000,0.000000,0.000000,-1,0.060468,0.094292,0.034457,0.005266,0.001246,-0.001487
"2019-05-06 15:54:02.568 +0000",1557158042.567543,-1.281254,1.286501,-0.896045,-0.268806,-0.959859,-0.080081,0.000000,0.000000,0.000000,-1,0.073273,0.087895,0.032339,0.009224,-0.001551,-0.000470
"2019-05-06 15:54:02.588 +0000",1557158042.587531,-1.284303,1.286719,-0.891029,-0.268848,-0.959921,-0.079202,0.000000,0.000000,0.000000,-1,0.075449,0.082614,0.024836,0.009815,0.000082,-0.003760
"2019-05-06 15:54:02.607 +0000",1557158042.607489,-1.287251,1.286944,-0.886350,-0.268873,-0.959984,-0.078349,0.000000,0.000000,0.000000,-1,0.080678,0.066652,0.027955,0.011106,0.006248,-0.008016
"2019-05-06 15:54:02.627 +0000",1557158042.627477,-1.291168,1.287103,-0.881078,-0.269031,-0.960028,-0.077253,0.000000,0.000000,0.000000,-1,0.085883,0.048554,0.033197,0.009968,0.000220,-0.004504
"2019-05-06 15:54:02.647 +0000",1557158042.647468,-1.295273,1.287106,-0.875639,-0.269344,-0.960029,-0.076147,0.000000,0.000000,0.000000,-1,0.075269,0.062402,0.032129,0.005886,-0.003213,-0.002268
"2019-05-06 15:54:02.667 +0000",1557158042.667425,-1.299285,1.287083,-0.869937,-0.269668,-0.960023,-0.075072,0.000000,0.000000,0.000000,-1,0.078487,0.075126,0.036459,0.002090,-0.007522,-0.000291
"2019-05-06 15:54:02.687 +0000",1557158042.687413,-1.304412,1.286792,-0.863051,-0.270319,-0.959941,-0.073762,0.000000,0.000000,0.000000,-1,0.080594,0.078275,0.042883,-0.000815,-0.002599,0.002412
"2019-05-06 15:54:02.707 +0000",1557158042.707371,-1.308689,1.286348,-0.856849,-0.271043,-0.959817,-0.072715,0.000000,0.000000,0.000000,-1,0.089133,0.084621,0.045087,0.003801,0.002373,-0.004906
"2019-05-06 15:54:02.727 +0000",1557158042.727360,-1.313356,1.286039,-0.850128,-0.271667,-0.959730,-0.071525,0.000000,0.000000,0.000000,-1,0.095646,0.091033,0.034493,-0.001496,0.003690,-0.003014
"2019-05-06 15:54:02.747 +0000",1557158042.747350,-1.318141,1.285707,-0.843108,-0.272315,-0.959636,-0.070304,0.000000,0.000000,0.000000,-1,0.096679,0.101616,0.043084,0.000296,0.002224,-0.002709
"2019-05-06 15:54:02.767 +0000",1557158042.767306,-1.323647,1.285387,-0.835039,-0.272995,-0.959547,-0.068879,0.000000,0.000000,0.000000,-1,0.109642,0.123933,0.035802,-0.002152,0.002943,0.001358
"2019-05-06 15:54:02.787 +0000",1557158042.787294,-1.327138,1.285606,-0.827577,-0.273030,-0.959608,-0.067875,0.000000,0.000000,0.000000,-1,0.096463,0.235672,0.008566,0.005788,0.001585,0.001392
"2019-05-06 15:54:02.807 +0000",1557158042.807284,-1.331584,1.286020,-0.817979,-0.272943,-0.959725,-0.066566,0.000000,0.000000,0.000000,-1,0.123174,0.240896,0.011934,-0.003211,0.005486,0.018363
"2019-05-06 15:54:02.827 +0000",1557158042.827243,-1.336739,1.286516,-0.808009,-0.272820,-0.959864,-0.065048,0.000000,0.000000,0.000000,-1,0.114582,0.224956,0.015003,0.002419,-0.011343,0.012527
"2019-05-06 15:54:02.847 +0000",1557158042.847229,-1.341324,1.287302,-0.798841,-0.272380,-0.960084,-0.063624,0.000000,0.000000,0.000000,-1,0.099670,0.216502,0.011661,0.009502,-0.016555,0.015864
"2019-05-06 15:54:02.867 +0000",1557158042.867218,-1.344122,1.288062,-0.791711,-0.271846,-0.960296,-0.062698,0.000000,0.000000,0.000000,-1,0.077082,0.201596,0.028486,0.015208,-0.019379,0.007202
"2019-05-06 15:54:02.887 +0000",1557158042.887177,-1.347566,1.288262,-0.784395,-0.271873,-0.960352,-0.061719,0.000000,0.000000,0.000000,-1,0.060768,0.181293,0.059176,0.014793,-0.014746,0.021451
"2019-05-06 15:54:02.907 +0000",1557158042.907166,-1.350468,1.287716,-0.778126,-0.272562,-0.960200,-0.061044,0.000000,0.000000,0.000000,-1,0.048795,0.154660,0.078138,0.015742,-0.002203,0.013650
"2019-05-06 15:54:02.927 +0000",1557158042.927123,-1.352625,1.286943,-0.772922,-0.273419,-0.959983,-0.060617,0.000000,0.000000,0.000000,-1,0.034804,0.141889,0.088624,0.017513,0.001884,0.008676
"2019-05-06 15:54:02.947 +0000",1557158042.947112,-1.353875,1.285639,-0.768780,-0.274716,-0.959617,-0.060544,0.000000,0.000000,0.000000,-1,0.034662,0.135441,0.103488,0.011059,-0.001641,0.003644
"2019-05-06 15:54:02.967 +0000",1557158042.967100,-1.355975,1.283663,-0.763977,-0.276694,-0.959060,-0.060371,0.000000,0.000000,0.000000,-1,0.047284,0.123638,0.120551,-0.004403,-0.008012,0.000694
"2019-05-06 15:54:02.987 +0000",1557158042.987060,-1.359543,1.281694,-0.757436,-0.278754,-0.958500,-0.059780,0.000000,0.000000,0.000000,-1,0.058269,0.153458,0.100512,-0.007241,-0.007656,0.004924
"2019-05-06 15:54:03.007 +0000",1557158043.007047,-1.362525,1.280277,-0.750940,-0.280260,-0.958095,-0.059229,0.000000,0.000000,0.000000,-1,0.051056,0.173737,0.084593,-0.006224,-0.015278,0.016580
"2019-05-06 15:54:03.027 +0000",1557158043.027041,-1.365953,1.279643,-0.743932,-0.281056,-0.957913,-0.058392,0.000000,0.000000,0.000000,-1,0.037392,0.184443,0.072818,0.022801,-0.000690,0.026653
"2019-05-06 15:54:03.047 +0000",1557158043.046999,-1.367496,1.279567,-0.738589,-0.281216,-0.957892,-0.057972,0.000000,0.000000,0.000000,-1,0.031058,0.188694,0.073803,0.031445,0.001807,0.026265
"2019-05-06 15:54:03.067 +0000",1557158043.066989,-1.369011,1.279439,-0.733458,-0.281424,-0.957855,-0.057571,0.000000,0.000000,0.000000,-1,0.025667,0.174854,0.080029,0.032752,-0.005219,0.023009
"2019-05-06 15:54:03.087 +0000",1557158043.086977,-1.368905,1.279135,-0.730437,-0.281704,-0.957767,-0.057659,0.000000,0.000000,0.000000,-1,0.030891,0.136598,0.076590,0.028301,-0.009899,0.005535
"2019-05-06 15:54:03.107 +0000",1557158043.106934,-1.370426,1.278961,-0.726390,-0.281954,-0.957717,-0.057264,0.000000,0.000000,0.000000,-1,0.028901,0.115452,0.054029,0.022585,-0.001007,0.015699
"2019-05-06 15:54:03.127 +0000",1557158043.126923,-1.370524,1.279034,-0.724115,-0.281891,-0.957739,-0.057222,0.000000,0.000000,0.000000,-1,0.025826,0.095380,0.030408,0.021744,-0.001398,0.000551
"2019-05-06 15:54:03.147 +0000",1557158043.146883,-1.370588,1.279213,-0.722425,-0.281727,-0.957790,-0.057170,0.000000,0.000000,0.000000,-1,0.022532,0.061391,0.023846,0.015538,-0.003422,-0.002675
"2019-05-06 15:54:03.167 +0000",1557158043.166870,-1.370448,1.279437,-0.721880,-0.281509,-0.957854,-0.057167,0.000000,0.000000,0.000000,-1,0.049112,0.008278,0.006625,0.011626,0.010802,-0.016182
"2019-05-06 15:54:03.187 +0000",1557158043.186859,-1.372814,1.279813,-0.719231,-0.281290,-0.957962,-0.056430,0.000000,0.000000,0.000000,-1,0.050234,0.007254,-0.001917,0.008600,0.002503,-0.004361
"2019-05-06 15:54:03.207 +0000",1557158043.206815,-1.374649,1.280491,-0.716805,-0.280756,-0.958156,-0.055787,0.000000,0.000000,0.000000,-1,0.040747,0.027493,-0.007219,0.008509,-0.007176,-0.000060
"2019-05-06 15:54:03.227 +0000",1557158043.226806,-1.375824,1.281074,-0.715136,-0.280274,-0.958323,-0.055349,0.000000,0.000000,0.000000,-1,0.037518,0.009467,-0.013741,0.009842,0.005946,-0.006465
"2019-05-06 15:54:03.247 +0000",1557158043.246792,-1.377468,1.281917,-0.713386,-0.279571,-0.958564,-0.054733,0.000000,0.000000,0.000000,-1,0.033228,-0.007493,-0.020265,0.011230,0.001365,-0.002381
"2019-05-06 15:54:03.267 +0000",1557158043.266751,-1.378810,1.282382,-0.712357,-0.279206,-0.958696,-0.054272,0.000000,0.000000,0.000000,-1,0.035123,-0.029882,-0.005455,0.001680,-0.002455,-0.007694
"2019-05-06 15:54:03.287 +0000",1557158043.286740,-1.380603,1.282369,-0.710893,-0.279315,-0.958692,-0.053774,0.000000,0.000000,0.000000,-1,0.022293,-0.016071,0.002020,-0.004239,-0.004351,-0.004896
"2019-05-06 15:54:03.307 +0000",1557158043.306698,-1.381041,1.282192,-0.710707,-0.279506,-0.958642,-0.053684,0.000000,0.000000,0.000000,-1,0.005099,-0.016083,0.013657,0.003688,-0.001594,-0.001599
"2019-05-06 15:54:03.327 +0000",1557158043.326687,-1.382172,1.282367,-0.710081,-0.279402,-0.958692,-0.053336,0.000000,0.000000,0.000000,-1,-0.012065,-0.035184,0.016648,0.012999,-0.005786,0.010444
"2019-05-06 15:54:03.347 +0000",1557158043.346674,-1.383480,1.282472,-0.709877,-0.279372,-0.958722,-0.052952,0.000000,0.000000,0.000000,-1,-0.015348,-0.059622,0.017546,0.008956,-0.008502,0.011921
"2019-05-06 15:54:03.367 +0000",1557158043.366633,-1.384319,1.282154,-0.710553,-0.279716,-0.958631,-0.052774,0.000000,0.000000,0.000000,-1,-0.027058,-0.078670,0.006734,-0.005806,0.003995,0.002237
"2019-05-06 15:54:03.387 +0000",1557158043.386622,-1.384297,1.281518,-0.712262,-0.280313,-0.958450,-0.052893,0.000000,0.000000,0.000000,-1,-0.028051,-0.082867,-0.003917,-0.018408,0.000473,-0.001276
"2019-05-06 15:54:03.407 +0000",1557158043.406611,-1.384442,1.280884,-0.713883,-0.280919,-0.958269,-0.052965,0.000000,0.000000,0.000000,-1,-0.028170,-0.085053,0.008893,-0.009746,0.006334,-0.000090
"2019-05-06 15:54:03.427 +0000",1557158043.426567,-1.384281,1.280268,-0.715511,-0.281490,-0.958093,-0.053120,0.000000,0.000000,0.000000,-1,-0.022866,-0.052212,0.027215,0.002239,0.009469,-0.000286
"2019-05-06 15:54:03.447 +0000",1557158043.446556,-1.384239,1.278906,-0.715927,-0.282770,-0.957702,-0.053373,0.000000,0.000000,0.000000,-1,-0.006874,-0.001368,0.053164,-0.011893,0.020156,-0.004000
"2019-05-06 15:54:03.467 +0000",1557158043.466545,-1.385168,1.276777,-0.714631,-0.284822,-0.957087,-0.053487,0.000000,0.000000,0.000000,-1,0.032711,0.018745,0.049265,-0.033201,0.015070,-0.011866
"2019-05-06 15:54:03.487 +0000",1557158043.486505,-1.386960,1.275661,-0.711956,-0.285968,-0.956763,-0.053172,0.000000,0.000000,0.000000,-1,0.063146,0.046554,-0.003695,-0.058850,0.008597,-0.031789
"2019-05-06 15:54:03.506 +0000",1557158043.506493,-1.389028,1.276452,-0.708035,-0.285333,-0.956993,-0.052443,0.000000,0.000000,0.000000,-1,0.061561,0.109415,-0.037505,-0.051413,-0.007729,-0.005128
"2019-05-06 15:54:03.526 +0000",1557158043.526449,-1.390833,1.276903,-0.703353,-0.285003,-0.957123,-0.051851,0.000000,0.000000,0.000000,-1,0.067036,0.148700,-0.034049,-0.008927,0.005021,0.002825
"2019-05-06 15:54:03.546 +0000",1557158043.546437,-1.391661,1.277580,-0.699548,-0.284407,-0.957319,-0.051499,0.000000,0.000000,0.000000,-1,0.051866,0.131649,-0.016085,0.025252,0.004805,-0.009780
"2019-05-06 15:54:03.566 +0000",1557158043.566426,-1.390758,1.278313,-0.698154,-0.283671,-0.957531,-0.051631,0.000000,0.000000,0.000000,-1,0.039755,0.086964,0.002786,0.019694,-0.000981,-0.015065
"2019-05-06 15:54:03.586 +0000",1557158043.586385,-1.391567,1.278254,-0.696003,-0.283768,-0.957514,-0.051411,0.000000,0.000000,0.000000,-1,0.023519,0.051892,0.012124,0.009079,-0.007315,0.004261
"2019-05-06 15:54:03.606 +0000",1557158043.606372,-1.392229,1.278187,-0.694363,-0.283865,-0.957494,-0.051235,0.000000,0.000000,0.000000,-1,-0.010682,0.048756,0.018320,0.005789,-0.010981,0.032009
"2019-05-06 15:54:03.626 +0000",1557158043.626360,-1.389598,1.277781,-0.696249,-0.284112,-0.957377,-0.052051,0.000000,0.000000,0.000000,-1,-0.036374,0.034996,0.020255,0.021752,-0.012990,0.031345
"2019-05-06 15:54:03.646 +0000",1557158043.646320,-1.388593,1.277812,-0.697083,-0.284030,-0.957386,-0.052332,0.000000,0.000000,0.000000,-1,-0.040817,0.007324,0.030715,0.025882,-0.012585,0.018106
"2019-05-06 15:54:03.666 +0000",1557158043.666307,-1.387247,1.277234,-0.698854,-0.284503,-0.957219,-0.052815,0.000000,0.000000,0.000000,-1,-0.018420,-0.029852,0.015715,0.018283,-0.004176,-0.006801
"2019-05-06 15:54:03.686 +0000",1557158043.686297,-1.386526,1.277418,-0.700386,-0.284292,-0.957272,-0.052988,0.000000,0.000000,0.000000,-1,-0.013892,-0.043497,-0.021653,-0.005869,0.009763,-0.008047
"2019-05-06 15:54:03.706 +0000",1557158043.706255,-1.386224,1.278296,-0.701100,-0.283450,-0.957526,-0.052919,0.000000,0.000000,0.000000,-1,0.017470,-0.011544,-0.053321,-0.019758,0.009940,-0.001829
"2019-05-06 15:54:03.726 +0000",1557158043.726244,-1.388527,1.278708,-0.699224,-0.283183,-0.957645,-0.052195,0.000000,0.000000,0.000000,-1,-0.007078,-0.001967,-0.044828,-0.024251,0.008685,0.026224
"2019-05-06 15:54:03.746 +0000",1557158043.746203,-1.388149,1.279438,-0.699518,-0.282476,-0.957854,-0.052175,0.000000,0.000000,0.000000,-1,0.007798,0.004320,-0.034061,0.000020,0.014007,0.012624
"2019-05-06 15:54:03.766 +0000",1557158043.766191,-1.387441,1.280100,-0.700480,-0.281815,-0.958045,-0.052259,0.000000,0.000000,0.000000,-1,-0.003130,-0.026532,-0.020424,0.017151,0.007697,-0.017870
"2019-05-06 15:54:03.786 +0000",1557158043.786179,-1.388366,1.280501,-0.700629,-0.281486,-0.958159,-0.051929,0.000000,0.000000,0.000000,-1,0.000992,-0.067974,-0.022742,-0.004022,-0.003297,-0.014249
"2019-05-06 15:54:03.806 +0000",1557158043.806138,-1.389065,1.280832,-0.701584,-0.281209,-0.958254,-0.051675,0.000000,0.000000,0.000000,-1,0.002170,-0.085933,-0.045198,-0.017909,-0.005384,-0.000312
"2019-05-06 15:54:03.826 +0000",1557158043.826126,-1.389842,1.282072,-0.702459,-0.280080,-0.958608,-0.051242,0.000000,0.000000,0.000000,-1,-0.000794,-0.086856,-0.072937,-0.018077,0.006322,-0.004040
"2019-05-06 15:54:03.846 +0000",1557158043.846114,-1.389989,1.282784,-0.703856,-0.279417,-0.958810,-0.051078,0.000000,0.000000,0.000000,-1,-0.003816,-0.067654,-0.086662,-0.016024,0.015970,-0.005242
"2019-05-06 15:54:03.866 +0000",1557158043.866072,-1.388108,1.282994,-0.706737,-0.279122,-0.958870,-0.051567,0.000000,0.000000,0.000000,-1,0.007837,-0.040130,-0.069336,-0.026496,0.007378,-0.018013
"2019-05-06 15:54:03.886 +0000",1557158043.886061,-1.388376,1.282679,-0.706746,-0.279433,-0.958781,-0.051547,0.000000,0.000000,0.000000,-1,0.010931,0.004343,-0.038099,-0.027940,-0.003912,-0.000211
"2019-05-06 15:54:03.906 +0000",1557158043.906051,-1.388019,1.282467,-0.706435,-0.279615,-0.958720,-0.051684,0.000000,0.000000,0.000000,-1,0.023527,0.041318,0.001625,-0.008135,-0.005086,-0.009198
"2019-05-06 15:54:03.926 +0000",1557158043.926008,-1.388968,1.282262,-0.704275,-0.279857,-0.958662,-0.051454,0.000000,0.000000,0.000000,-1,0.026724,0.063573,0.012418,0.000209,0.008817,0.003053
"2019-05-06 15:54:03.946 +0000",1557158043.945996,-1.388721,1.281898,-0.703209,-0.280187,-0.958558,-0.051586,0.000000,0.000000,0.000000,-1,0.019364,0.059419,-0.003609,-0.007670,0.008775,-0.005665
"2019-05-06 15:54:03.966 +0000",1557158043.965954,-1.389010,1.281756,-0.701707,-0.280336,-0.958518,-0.051530,0.000000,0.000000,0.000000,-1,0.026922,0.072185,-0.009879,-0.010603,0.003150,-0.004775
"2019-05-06 15:54:03.986 +0000",1557158043.985945,-1.390311,1.281766,-0.699155,-0.280394,-0.958521,-0.051164,0.000000,0.000000,0.000000,-1,0.026934,0.067926,-0.009877,-0.007616,-0.013113,0.008592
"2019-05-06 15:54:04.006 +0000",1557158044.005931,-1.390576,1.282406,-0.697369,-0.279804,-0.958703,-0.050979,0.000000,0.000000,0.000000,-1,-0.003903,0.081832,-0.014247,0.010242,-0.007438,0.012115
"2019-05-06 15:54:04.026 +0000",1557158044.025856,-1.389430,1.283934,-0.696844,-0.278303,-0.959136,-0.051036,0.000000,0.000000,0.000000,-1,-0.010181,0.088254,-0.021777,0.027754,-0.012192,0.016474
"2019-05-06 15:54:04.046 +0000",1557158044.045845,-1.387797,1.285476,-0.696921,-0.276765,-0.959572,-0.051221,0.000000,0.000000,0.000000,-1,-0.028323,0.077665,-0.021989,0.024857,-0.000038,0.014706
"2019-05-06 15:54:04.066 +0000",1557158044.065834,-1.386148,1.286703,-0.697808,-0.275523,-0.959916,-0.051461,0.000000,0.000000,0.000000,-1,-0.015759,0.020229,-0.018002,0.020488,0.003037,0.011452
"2019-05-06 15:54:04.086 +0000",1557158044.085792,-1.387832,1.287749,-0.696722,-0.274621,-0.960209,-0.050814,0.000000,0.000000,0.000000,-1,0.003235,-0.038284,-0.015039,0.013467,-0.010204,0.017428
"2019-05-06 15:54:04.106 +0000",1557158044.105780,-1.389889,1.288661,-0.695269,-0.273863,-0.960463,-0.050092,0.000000,0.000000,0.000000,-1,-0.034929,-0.024310,-0.031173,0.006407,-0.008928,0.027081
"2019-05-06 15:54:04.126 +0000",1557158044.125737,-1.390218,1.289757,-0.695814,-0.272844,-0.960768,-0.049812,0.000000,0.000000,0.000000,-1,-0.025296,-0.036009,-0.035476,0.008486,-0.002947,0.012718
"2019-05-06 15:54:04.146 +0000",1557158044.145727,-1.388138,1.290975,-0.698782,-0.271589,-0.961105,-0.050167,0.000000,0.000000,0.000000,-1,-0.027287,-0.047600,-0.058970,0.014402,0.004104,-0.006458
"2019-05-06 15:54:04.166 +0000",1557158044.165716,-1.386452,1.292518,-0.701896,-0.270046,-0.961530,-0.050353,0.000000,0.000000,0.000000,-1,-0.008239,-0.089076,-0.061240,0.010280,0.003736,-0.002091
"2019-05-06 15:54:04.186 +0000",1557158044.185673,-1.386840,1.293919,-0.703526,-0.268741,-0.961914,-0.050002,0.000000,0.000000,0.000000,-1,-0.007322,-0.105063,-0.051741,0.007862,-0.004044,0.001220
"2019-05-06 15:54:04.206 +0000",1557158044.205662,-1.387540,1.294843,-0.705095,-0.267902,-0.962166,-0.049652,0.000000,0.000000,0.000000,-1,-0.019272,-0.110448,-0.030518,0.003971,-0.004814,-0.000061
"2019-05-06 15:54:04.226 +0000",1557158044.225652,-1.387007,1.295254,-0.707628,-0.267487,-0.962278,-0.049722,0.000000,0.000000,0.000000,-1,-0.037539,-0.090325,-0.007066,0.002320,-0.008563,-0.000647
"2019-05-06 15:54:04.246 +0000",1557158044.245609,-1.385724,1.294832,-0.710726,-0.267822,-0.962163,-0.050140,0.000000,0.000000,0.000000,-1,-0.038724,-0.084016,0.007898,-0.010697,0.000447,-0.006790
"2019-05-06 15:54:04.266 +0000",1557158044.265597,-1.383869,1.293896,-0.714143,-0.268613,-0.961907,-0.050804,0.000000,0.000000,0.000000,-1,-0.038700,-0.069147,0.010137,-0.013720,0.004968,-0.006905
"2019-05-06 15:54:04.286 +0000",1557158044.285587,-1.383385,1.293187,-0.715882,-0.269259,-0.961713,-0.051061,0.000000,0.000000,0.000000,-1,-0.021508,-0.054283,0.003931,-0.015043,-0.003115,-0.000941
"2019-05-06 15:54:04.306 +0000",1557158044.305543,-1.382302,1.292960,-0.717676,-0.269417,-0.961651,-0.051394,0.000000,0.000000,0.000000,-1,-0.021241,-0.025506,-0.014033,-0.004753,0.000241,-0.006346
"2019-05-06 15:54:04.326 +0000",1557158044.325534,-1.379755,1.293267,-0.720904,-0.268996,-0.961735,-0.052024,0.000000,0.000000,0.000000,-1,-0.013795,-0.045663,-0.023694,0.005675,0.015950,-0.017602
"2019-05-06 15:54:04.345 +0000",1557158044.345489,-1.377614,1.293100,-0.724408,-0.269042,-0.961689,-0.052630,0.000000,0.000000,0.000000,-1,-0.011002,-0.085091,-0.000411,-0.005006,0.013325,-0.015897
"2019-05-06 15:54:04.365 +0000",1557158044.365479,-1.379040,1.292700,-0.724936,-0.269494,-0.961580,-0.052320,0.000000,0.000000,0.000000,-1,0.012404,-0.103206,-0.001435,-0.012229,0.008256,-0.012377
"2019-05-06 15:54:04.385 +0000",1557158044.385466,-1.381411,1.292574,-0.723975,-0.269736,-0.961545,-0.051704,0.000000,0.000000,0.000000,-1,0.020235,-0.052128,-0.020300,-0.019052,-0.011263,-0.004540
"2019-05-06 15:54:04.405 +0000",1557158044.405426,-1.382025,1.292498,-0.723398,-0.269839,-0.961524,-0.051552,0.000000,0.000000,0.000000,-1,0.003525,0.025512,-0.026362,-0.013379,-0.005562,0.003731
"2019-05-06 15:54:04.425 +0000",1557158044.425416,-1.382508,1.292483,-0.722169,-0.269879,-0.961520,-0.051424,0.000000,0.000000,0.000000,-1,0.021750,0.037168,-0.029376,-0.016788,0.015033,0.003603
"2019-05-06 15:54:04.445 +0000",1557158044.445403,-1.382626,1.292832,-0.721619,-0.269555,-0.961616,-0.051329,0.000000,0.000000,0.000000,-1,0.025857,0.005272,-0.027372,-0.002509,0.016197,-0.008653
"2019-05-06 15:54:04.465 +0000",1557158044.465360,-1.383419,1.293170,-0.720703,-0.269276,-0.961709,-0.051055,0.000000,0.000000,0.000000,-1,0.006605,0.007419,-0.022115,-0.012859,-0.012305,0.000015
"2019-05-06 15:54:04.485 +0000",1557158044.485351,-1.383045,1.293496,-0.720973,-0.268949,-0.961798,-0.051097,0.000000,0.000000,0.000000,-1,-0.009459,0.000005,-0.019032,0.002928,-0.002725,0.000850
"2019-05-06 15:54:04.505 +0000",1557158044.505338,-1.381689,1.294240,-0.722498,-0.268176,-0.962002,-0.051327,0.000000,0.000000,0.000000,-1,-0.010574,-0.006376,-0.016963,0.011966,-0.007496,-0.002033
"2019-05-06 15:54:04.525 +0000",1557158044.525296,-1.380234,1.294816,-0.724021,-0.267557,-0.962159,-0.051613,0.000000,0.000000,0.000000,-1,-0.013808,-0.000021,-0.010574,0.010355,0.003266,-0.002037
"2019-05-06 15:54:04.545 +0000",1557158044.545284,-1.377123,1.295209,-0.727362,-0.267025,-0.962265,-0.052372,0.000000,0.000000,0.000000,-1,-0.003297,-0.026613,-0.008548,0.020443,0.016205,-0.020321
"2019-05-06 15:54:04.565 +0000",1557158044.565243,-1.375603,1.295793,-0.729519,-0.266393,-0.962424,-0.052669,0.000000,0.000000,0.000000,-1,-0.005526,-0.041482,-0.007596,0.017995,-0.007226,-0.009923
"2019-05-06 15:54:04.585 +0000",1557158044.585230,-1.373796,1.296504,-0.732307,-0.265627,-0.962617,-0.053016,0.000000,0.000000,0.000000,-1,-0.031326,-0.047868,0.009250,0.021410,-0.023681,-0.001549
"2019-05-06 15:54:04.605 +0000",1557158044.605219,-1.372537,1.296888,-0.734859,-0.265197,-0.962721,-0.053278,0.000000,0.000000,0.000000,-1,-0.021897,-0.077671,0.015502,0.015884,-0.012453,-0.003119
"2019-05-06 15:54:04.625 +0000",1557158044.625178,-1.370906,1.296361,-0.738148,-0.265607,-0.962578,-0.053811,0.000000,0.000000,0.000000,-1,0.002607,-0.088325,0.010240,-0.000567,0.015130,-0.025901
"2019-05-06 15:54:04.645 +0000",1557158044.645167,-1.370789,1.295511,-0.739714,-0.266402,-0.962348,-0.054005,0.000000,0.000000,0.000000,-1,0.017739,-0.074445,-0.010889,-0.018540,0.025946,-0.020275
"2019-05-06 15:54:04.665 +0000",1557158044.665155,-1.372524,1.294962,-0.739053,-0.267014,-0.962198,-0.053646,0.000000,0.000000,0.000000,-1,0.017790,-0.048959,-0.007519,-0.021027,0.004297,-0.006962
"2019-05-06 15:54:04.685 +0000",1557158044.685112,-1.374646,1.294659,-0.737467,-0.267414,-0.962116,-0.053136,0.000000,0.000000,0.000000,-1,-0.001399,-0.011802,0.008582,-0.012341,-0.015774,0.010076
"2019-05-06 15:54:04.705 +0000",1557158044.705101,-1.374165,1.294357,-0.737943,-0.267673,-0.962033,-0.053322,0.000000,0.000000,0.000000,-1,-0.009931,0.006249,0.016092,-0.000668,-0.002185,0.018608
"2019-05-06 15:54:04.725 +0000",1557158044.725090,-1.374020,1.293968,-0.737789,-0.268032,-0.961927,-0.053434,0.000000,0.000000,0.000000,-1,-0.007646,0.025403,0.008746,-0.008106,0.003294,0.007749
"2019-05-06 15:54:04.745 +0000",1557158044.745049,-1.373129,1.293782,-0.737918,-0.268159,-0.961876,-0.053708,0.000000,0.000000,0.000000,-1,-0.007602,0.043452,0.012034,-0.008864,0.005089,0.013852
"2019-05-06 15:54:04.765 +0000",1557158044.765036,-1.373216,1.293346,-0.737019,-0.268576,-0.961757,-0.053767,0.000000,0.000000,0.000000,-1,0.001978,0.034924,0.012053,-0.010233,0.007930,0.007746
"2019-05-06 15:54:04.785 +0000",1557158044.784994,-1.372974,1.293320,-0.736824,-0.268587,-0.961750,-0.053837,0.000000,0.000000,0.000000,-1,-0.011942,0.020080,0.011897,0.001025,-0.004666,0.014408
"2019-05-06 15:54:04.805 +0000",1557158044.804983,-1.372728,1.293262,-0.736944,-0.268629,-0.961734,-0.053914,0.000000,0.000000,0.000000,-1,-0.006747,-0.003341,0.018186,0.006406,-0.001370,0.004018
"2019-05-06 15:54:04.825 +0000",1557158044.824972,-1.372077,1.293125,-0.737542,-0.268722,-0.961696,-0.054115,0.000000,0.000000,0.000000,-1,0.011555,0.004131,0.002323,0.000473,0.013012,-0.007333
"2019-05-06 15:54:04.845 +0000",1557158044.844930,-1.372300,1.292760,-0.737368,-0.269078,-0.961596,-0.054124,0.000000,0.000000,0.000000,-1,0.025535,-0.005374,-0.016820,-0.003993,0.013903,-0.009200
"2019-05-06 15:54:04.865 +0000",1557158044.864918,-1.372938,1.292401,-0.736796,-0.269451,-0.961498,-0.054020,0.000000,0.000000,0.000000,-1,0.012854,0.000034,-0.030663,-0.024326,-0.003697,-0.003384
"2019-05-06 15:54:04.885 +0000",1557158044.884907,-1.374602,1.292242,-0.734899,-0.269691,-0.961454,-0.053601,0.000000,0.000000,0.000000,-1,0.010738,0.018060,-0.023073,-0.024300,-0.001833,0.007947
"2019-05-06 15:54:04.905 +0000",1557158044.904865,-1.376134,1.292065,-0.732906,-0.269940,-0.961405,-0.053221,0.000000,0.000000,0.000000,-1,0.025590,0.023264,-0.009083,-0.014011,0.008570,0.001814
"2019-05-06 15:54:04.925 +0000",1557158044.924854,-1.377607,1.291989,-0.730962,-0.270089,-0.961384,-0.052837,0.000000,0.000000,0.000000,-1,0.030826,0.022137,0.001613,-0.009925,0.002202,-0.001087
"2019-05-06 15:54:04.945 +0000",1557158044.944842,-1.378623,1.291826,-0.729726,-0.270296,-0.961340,-0.052593,0.000000,0.000000,0.000000,-1,0.008315,-0.003297,-0.000752,0.005953,-0.001536,0.002636
"2019-05-06 15:54:04.965 +0000",1557158044.964799,-1.381367,1.291572,-0.726754,-0.270680,-0.961270,-0.051897,0.000000,0.000000,0.000000,-1,0.016966,0.021101,0.001565,-0.015789,-0.010792,0.004366
"2019-05-06 15:54:04.985 +0000",1557158044.984790,-1.383332,1.291604,-0.724100,-0.270751,-0.961278,-0.051359,0.000000,0.000000,0.000000,-1,0.007578,0.048782,-0.006862,0.001952,0.005926,0.014204
"2019-05-06 15:54:05.005 +0000",1557158045.004824,-1.383368,1.290503,-0.722261,-0.271793,-0.960974,-0.051547,0.000000,0.000000,0.000000,-1,0.043890,0.089005,0.007439,-0.031979,0.062201,-0.005964
"2019-05-06 15:54:05.025 +0000",1557158045.024737,-1.382716,1.291002,-0.721428,-0.271288,-0.961112,-0.051634,0.000000,0.000000,0.000000,-1,0.011743,0.073113,0.014624,0.011050,-0.028985,-0.004365
"2019-05-06 15:54:05.045 +0000",1557158045.044725,-1.382124,1.289950,-0.720965,-0.272251,-0.960821,-0.051984,0.000000,0.000000,0.000000,-1,0.025347,0.021010,0.016599,-0.017529,0.001425,-0.015078
"2019-05-06 15:54:05.065 +0000",1557158045.064684,-1.384527,1.289977,-0.718016,-0.272348,-0.960829,-0.051325,0.000000,0.000000,0.000000,-1,0.035262,0.034920,-0.009925,-0.005255,-0.008547,0.013453
"2019-05-06 15:54:05.085 +0000",1557158045.084673,-1.387324,1.290561,-0.714522,-0.271939,-0.960990,-0.050461,0.000000,0.000000,0.000000,-1,0.027900,0.042400,-0.016328,0.013944,0.014671,0.013031
"2019-05-06 15:54:05.105 +0000",1557158045.104661,-1.388486,1.291033,-0.712571,-0.271552,-0.961121,-0.050063,0.000000,0.000000,0.000000,-1,0.026755,0.023276,-0.016430,0.033957,0.005799,0.007994
"2019-05-06 15:54:05.125 +0000",1557158045.124619,-1.388525,1.292298,-0.712932,-0.270358,-0.961469,-0.049832,0.000000,0.000000,0.000000,-1,-0.004562,-0.053180,-0.010627,0.046146,-0.031939,-0.001606
"2019-05-06 15:54:05.145 +0000",1557158045.144608,-1.389732,1.292512,-0.713636,-0.270215,-0.961528,-0.049468,0.000000,0.000000,0.000000,-1,-0.008074,-0.112734,-0.002383,0.010495,-0.015202,-0.010148
"2019-05-06 15:54:05.165 +0000",1557158045.164595,-1.391308,1.292677,-0.714627,-0.270137,-0.961573,-0.049014,0.000000,0.000000,0.000000,-1,-0.024065,-0.126475,-0.009996,-0.000691,-0.009481,0.008624
"2019-05-06 15:54:05.185 +0000",1557158045.184553,-1.391205,1.292826,-0.716934,-0.269991,-0.961614,-0.049016,0.000000,0.000000,0.000000,-1,-0.031371,-0.096678,-0.015215,0.011767,0.010916,0.009709
"2019-05-06 15:54:05.205 +0000",1557158045.204541,-1.389954,1.292661,-0.719848,-0.270086,-0.961569,-0.049382,0.000000,0.000000,0.000000,-1,0.001749,-0.082935,-0.016025,-0.015467,0.016348,-0.029567
"2019-05-06 15:54:05.225 +0000",1557158045.224501,-1.391328,1.292899,-0.719658,-0.269928,-0.961635,-0.048970,0.000000,0.000000,0.000000,-1,0.007147,-0.046865,-0.006223,-0.022187,0.002452,-0.015361
"2019-05-06 15:54:05.244 +0000",1557158045.244490,-1.391422,1.292555,-0.719674,-0.270258,-0.961540,-0.049004,0.000000,0.000000,0.000000,-1,0.018045,0.013680,-0.005843,-0.020666,0.001854,-0.015998
"2019-05-06 15:54:05.264 +0000",1557158045.264478,-1.391821,1.292751,-0.718353,-0.270092,-0.961594,-0.048863,0.000000,0.000000,0.000000,-1,0.018242,0.060439,-0.006675,-0.018406,0.012375,-0.009792
"2019-05-06 15:54:05.284 +0000",1557158045.284436,-1.391515,1.293006,-0.717873,-0.269836,-0.961664,-0.048902,0.000000,0.000000,0.000000,-1,0.048786,0.013026,-0.106931,-0.031693,0.025888,-0.021731
"2019-05-06 15:54:05.304 +0000",1557158045.304424,-1.393779,1.295118,-0.714923,-0.267946,-0.962241,-0.047933,0.000000,0.000000,0.000000,-1,0.048710,0.054336,-0.079006,-0.018935,-0.031183,0.002736
"2019-05-06 15:54:05.324 +0000",1557158045.324413,-1.394767,1.295575,-0.711301,-0.267560,-0.962365,-0.047591,0.000000,0.000000,0.000000,-1,0.042331,0.181583,-0.020804,-0.025210,-0.005454,0.015227
"2019-05-06 15:54:05.344 +0000",1557158045.344371,-1.395194,1.295154,-0.706354,-0.267979,-0.962251,-0.047547,0.000000,0.000000,0.000000,-1,0.074664,0.222441,0.085109,0.018971,-0.060103,-0.008132
"2019-05-06 15:54:05.364 +0000",1557158045.364360,-1.398069,1.294629,-0.699280,-0.268613,-0.962108,-0.046864,0.000000,0.000000,0.000000,-1,0.028782,0.198149,0.076188,0.043271,0.033244,0.032643
"2019-05-06 15:54:05.384 +0000",1557158045.384349,-1.398335,1.294144,-0.695433,-0.269085,-0.961975,-0.046872,0.000000,0.000000,0.000000,-1,0.064339,0.167493,0.023972,-0.025104,0.013184,0.004087
"2019-05-06 15:54:05.404 +0000",1557158045.404307,-1.400436,1.294140,-0.690003,-0.269186,-0.961974,-0.046307,0.000000,0.000000,0.000000,-1,0.054665,0.164285,0.032423,0.009329,-0.003861,0.015103
"2019-05-06 15:54:05.424 +0000",1557158045.424295,-1.400904,1.292878,-0.686142,-0.270405,-0.961629,-0.046387,0.000000,0.000000,0.000000,-1,0.017941,0.149296,0.074810,0.043186,-0.010692,0.017212
"2019-05-06 15:54:05.444 +0000",1557158045.444253,-1.402759,1.291853,-0.682424,-0.271462,-0.961347,-0.046050,0.000000,0.000000,0.000000,-1,0.031944,0.085705,0.031928,-0.016685,-0.029452,0.006224
"2019-05-06 15:54:05.464 +0000",1557158045.464241,-1.402991,1.291501,-0.680771,-0.271806,-0.961250,-0.046044,0.000000,0.000000,0.000000,-1,0.031927,0.058128,0.021129,0.026964,0.011207,-0.017311
"2019-05-06 15:54:05.484 +0000",1557158045.484231,-1.404085,1.291693,-0.678475,-0.271674,-0.961303,-0.045715,0.000000,0.000000,0.000000,-1,0.002892,0.063375,0.049752,0.030020,-0.013215,0.012009
"2019-05-06 15:54:05.504 +0000",1557158045.504187,-1.403638,1.290568,-0.677602,-0.272720,-0.960992,-0.046017,0.000000,0.000000,0.000000,-1,0.002830,0.066522,0.058296,0.017120,-0.011084,0.014172
"2019-05-06 15:54:05.524 +0000",1557158045.524176,-1.404069,1.289623,-0.676044,-0.273635,-0.960730,-0.046050,0.000000,0.000000,0.000000,-1,-0.007724,0.055993,0.042201,-0.001679,-0.001840,0.015914
"2019-05-06 15:54:05.544 +0000",1557158045.544165,-1.403845,1.289123,-0.674747,-0.274099,-0.960592,-0.046191,0.000000,0.000000,0.000000,-1,0.003365,0.094347,0.014731,0.003057,0.019369,0.014941
"2019-05-06 15:54:05.564 +0000",1557158045.564125,-1.405026,1.289228,-0.671444,-0.274054,-0.960621,-0.045851,0.000000,0.000000,0.000000,-1,0.044113,0.111299,0.003287,0.012686,0.031193,0.013014
"2019-05-06 15:54:05.584 +0000",1557158045.584112,-1.407130,1.290474,-0.667580,-0.272969,-0.960966,-0.045079,0.000000,0.000000,0.000000,-1,0.036309,0.049629,0.014601,0.025181,-0.038652,0.004841
"2019-05-06 15:54:05.604 +0000",1557158045.604100,-1.407937,1.290265,-0.666986,-0.273203,-0.960908,-0.044891,0.000000,0.000000,0.000000,-1,-0.012058,-0.040557,0.010711,0.003733,-0.062331,0.007202
"2019-05-06 15:54:05.624 +0000",1557158045.624058,-1.407346,1.289863,-0.668744,-0.273557,-0.960797,-0.045116,0.000000,0.000000,0.000000,-1,-0.046153,-0.048930,0.000915,-0.003726,0.017545,0.009349
"2019-05-06 15:54:05.644 +0000",1557158045.644047,-1.405934,1.289695,-0.670764,-0.273653,-0.960750,-0.045528,0.000000,0.000000,0.000000,-1,-0.018284,-0.010766,0.005509,-0.012205,0.027538,-0.001270
"2019-05-06 15:54:05.664 +0000",1557158045.664006,-1.404218,1.289242,-0.672285,-0.274003,-0.960625,-0.046070,0.000000,0.000000,0.000000,-1,-0.012107,0.010311,0.039756,0.008806,0.015022,-0.008450
"2019-05-06 15:54:05.684 +0000",1557158045.683994,-1.404655,1.288089,-0.672096,-0.275115,-0.960304,-0.046133,0.000000,0.000000,0.000000,-1,-0.008213,-0.032315,0.063018,0.014922,-0.027947,-0.004724
"2019-05-06 15:54:05.704 +0000",1557158045.703982,-1.404882,1.286920,-0.672784,-0.276233,-0.959977,-0.046256,0.000000,0.000000,0.000000,-1,-0.032606,-0.032175,0.045842,-0.009580,-0.024703,0.004447
"2019-05-06 15:54:05.724 +0000",1557158045.723940,-1.404299,1.285939,-0.673513,-0.277134,-0.959702,-0.046573,0.000000,0.000000,0.000000,-1,-0.010007,0.013461,0.046183,-0.017483,0.012329,0.011676
"2019-05-06 15:54:05.744 +0000",1557158045.743930,-1.404590,1.284685,-0.672096,-0.278334,-0.959349,-0.046692,0.000000,0.000000,0.000000,-1,0.000985,0.080395,0.042329,-0.010118,0.017805,0.009460
"2019-05-06 15:54:05.764 +0000",1557158045.763916,-1.402952,1.283766,-0.671836,-0.279127,-0.959089,-0.047295,0.000000,0.000000,0.000000,-1,-0.009668,0.099518,0.048768,-0.001604,-0.005831,-0.002815
"2019-05-06 15:54:05.784 +0000",1557158045.783875,-1.400135,1.282819,-0.672908,-0.279888,-0.958820,-0.048235,0.000000,0.000000,0.000000,-1,-0.031210,0.081442,0.062417,0.004116,-0.020916,-0.000364
"2019-05-06 15:54:05.804 +0000",1557158045.803864,-1.397473,1.281662,-0.674277,-0.280850,-0.958491,-0.049171,0.000000,0.000000,0.000000,-1,-0.038736,0.066583,0.062296,0.003949,-0.009359,0.003838
"2019-05-06 15:54:05.824 +0000",1557158045.823854,-1.394123,1.281229,-0.676536,-0.281093,-0.958368,-0.050185,0.000000,0.000000,0.000000,-1,-0.040802,0.053897,0.049387,0.018977,0.016000,-0.001497
"2019-05-06 15:54:05.844 +0000",1557158045.843810,-1.390111,1.280445,-0.679397,-0.281628,-0.958143,-0.051447,0.000000,0.000000,0.000000,-1,-0.002242,0.058140,0.032536,0.005734,0.015364,-0.006536
"2019-05-06 15:54:05.864 +0000",1557158045.863798,-1.388684,1.279705,-0.679631,-0.282252,-0.957931,-0.051977,0.000000,0.000000,0.000000,-1,-0.002149,0.053957,0.018666,-0.007909,-0.009018,-0.008646
"2019-05-06 15:54:05.884 +0000",1557158045.883787,-1.387901,1.279317,-0.679903,-0.282577,-0.957820,-0.052266,0.000000,0.000000,0.000000,-1,-0.013918,0.013677,0.003490,-0.006822,-0.010900,0.005574
"2019-05-06 15:54:05.904 +0000",1557158045.903746,-1.388355,1.278946,-0.679480,-0.282950,-0.957713,-0.052202,0.000000,0.000000,0.000000,-1,-0.026637,-0.001109,-0.010483,-0.012369,0.007960,0.008120
"2019-05-06 15:54:05.924 +0000",1557158045.923735,-1.387723,1.278426,-0.680415,-0.283406,-0.957563,-0.052472,0.000000,0.000000,0.000000,-1,0.001157,-0.017056,-0.023175,-0.013637,0.013044,-0.004001
"2019-05-06 15:54:05.944 +0000",1557158045.943692,-1.387191,1.278694,-0.681222,-0.283126,-0.957641,-0.052576,0.000000,0.000000,0.000000,-1,0.009776,-0.018080,-0.034847,-0.005143,0.008712,-0.009741
"2019-05-06 15:54:05.964 +0000",1557158045.963680,-1.385806,1.279381,-0.682899,-0.282406,-0.957838,-0.052847,0.000000,0.000000,0.000000,-1,0.017142,-0.023428,-0.029510,0.002575,0.009367,-0.012796
"2019-05-06 15:54:05.984 +0000",1557158045.983670,-1.384738,1.280179,-0.684267,-0.281598,-0.958067,-0.053007,0.000000,0.000000,0.000000,-1,0.002061,-0.017083,-0.013586,0.015363,-0.001955,-0.007678
"2019-05-06 15:54:06.004 +0000",1557158046.003627,-1.382229,1.280974,-0.687102,-0.280716,-0.958295,-0.053570,0.000000,0.000000,0.000000,-1,-0.050414,-0.017040,0.005298,0.016510,-0.024814,0.002057
"2019-05-06 15:54:06.024 +0000",1557158046.023593,-1.381553,1.281668,-0.688837,-0.280026,-0.958493,-0.053635,0.000000,0.000000,0.000000,-1,-0.076284,-0.051077,0.024127,0.022855,-0.014285,0.025604
"2019-05-06 15:54:06.044 +0000",1557158046.043582,-1.379928,1.282269,-0.692236,-0.279374,-0.958664,-0.053981,0.000000,0.000000,0.000000,-1,-0.082600,-0.090271,0.000395,0.024491,0.001144,0.015391
"2019-05-06 15:54:06.064 +0000",1557158046.063541,-1.377437,1.283117,-0.697541,-0.278440,-0.958905,-0.054520,0.000000,0.000000,0.000000,-1,-0.082732,-0.152910,-0.011695,0.020353,-0.009571,0.006974
"2019-05-06 15:54:06.084 +0000",1557158046.083529,-1.375536,1.283559,-0.703399,-0.277920,-0.959030,-0.054967,0.000000,0.000000,0.000000,-1,-0.095695,-0.201744,-0.015228,0.007290,-0.003876,0.007863
"2019-05-06 15:54:06.104 +0000",1557158046.103516,-1.374101,1.283352,-0.709496,-0.278036,-0.958972,-0.055405,0.000000,0.000000,0.000000,-1,-0.081825,-0.229351,-0.027007,-0.012034,0.011141,0.001328
"2019-05-06 15:54:06.123 +0000",1557158046.123475,-1.374063,1.282821,-0.714343,-0.278533,-0.958821,-0.055515,0.000000,0.000000,0.000000,-1,-0.057081,-0.233547,-0.051371,-0.020814,0.034138,-0.003170
"2019-05-06 15:54:06.143 +0000",1557158046.143465,-1.374529,1.284054,-0.718153,-0.277399,-0.959170,-0.055154,0.000000,0.000000,0.000000,-1,-0.035365,-0.192062,-0.074478,-0.026296,0.037692,-0.002707
"2019-05-06 15:54:06.163 +0000",1557158046.163422,-1.375713,1.284598,-0.720538,-0.276952,-0.959324,-0.054725,0.000000,0.000000,0.000000,-1,-0.004298,-0.162380,-0.075202,-0.034418,0.015080,-0.014810
"2019-05-06 15:54:06.183 +0000",1557158046.183410,-1.377684,1.285616,-0.721373,-0.276102,-0.959611,-0.053991,0.000000,0.000000,0.000000,-1,0.004026,-0.123287,-0.032320,-0.014594,-0.013702,-0.027063
"2019-05-06 15:54:06.203 +0000",1557158046.203398,-1.378705,1.285581,-0.722121,-0.276189,-0.959601,-0.053716,0.000000,0.000000,0.000000,-1,-0.044313,-0.069264,0.028469,-0.013774,-0.078470,0.003621
"2019-05-06 15:54:06.223 +0000",1557158046.223356,-1.376361,1.284832,-0.726114,-0.276768,-0.959390,-0.054502,0.000000,0.000000,0.000000,-1,-0.069830,-0.076568,0.013379,0.005360,0.003488,0.002485
"2019-05-06 15:54:06.243 +0000",1557158046.243347,-1.373126,1.284710,-0.731069,-0.276704,-0.959356,-0.055420,0.000000,0.000000,0.000000,-1,-0.068402,-0.075316,-0.027115,0.004106,0.030629,0.003372
"2019-05-06 15:54:06.263 +0000",1557158046.263335,-1.370411,1.285287,-0.735458,-0.276010,-0.959518,-0.056061,0.000000,0.000000,0.000000,-1,-0.052229,-0.074208,-0.045153,-0.003958,0.016159,0.004333
"2019-05-06 15:54:06.283 +0000",1557158046.283292,-1.367960,1.285705,-0.739562,-0.275479,-0.959636,-0.056656,0.000000,0.000000,0.000000,-1,-0.038500,-0.080677,-0.032319,-0.004611,-0.000188,-0.008148
"2019-05-06 15:54:06.303 +0000",1557158046.303280,-1.366897,1.286171,-0.742544,-0.274981,-0.959767,-0.056859,0.000000,0.000000,0.000000,-1,-0.034302,-0.098752,-0.032388,0.003680,0.016209,-0.014186
"2019-05-06 15:54:06.323 +0000",1557158046.323270,-1.365988,1.286454,-0.745453,-0.274663,-0.959846,-0.057053,0.000000,0.000000,0.000000,-1,-0.016186,-0.097742,-0.030151,-0.006724,0.004158,-0.011749
"2019-05-06 15:54:06.343 +0000",1557158046.343228,-1.366714,1.286893,-0.746523,-0.274292,-0.959969,-0.056768,0.000000,0.000000,0.000000,-1,-0.007608,-0.076536,-0.024672,-0.016510,0.004617,0.002356
"2019-05-06 15:54:06.363 +0000",1557158046.363216,-1.368548,1.287102,-0.745942,-0.274199,-0.960028,-0.056225,0.000000,0.000000,0.000000,-1,0.008558,-0.053171,-0.030852,-0.015810,0.001913,0.004711
"2019-05-06 15:54:06.383 +0000",1557158046.383174,-1.369241,1.287748,-0.746120,-0.273630,-0.960209,-0.055911,0.000000,0.000000,0.000000,-1,0.002227,-0.037211,-0.031870,-0.012457,-0.004895,0.003833
