timestamp,timeIntervalSince1970,attitude.roll,attitude.pitch,attitude.yaw,gravity.x,gravity.y,gravity.z,magneticField.x,magneticField.y,magneticField.z,magneticField.accuracy,rotationRate.x,rotationRate.y,rotationRate.z,userAcceleration.x,userAcceleration.y,userAcceleration.z
"2019-10-08 08:47:35.144 +0000",1570524455.143767,0.026854,0.722869,-0.009196,0.020136,-0.661539,-0.749640,0.000000,0.000000,0.000000,-1,-0.075916,0.226460,0.084923,-0.013971,0.052423,-0.102258
"2019-10-08 08:47:35.166 +0000",1570524455.166039,0.030922,0.718540,-0.010169,0.023273,-0.658286,-0.752408,0.000000,0.000000,0.000000,-1,-0.242232,0.117413,-0.102937,-0.022983,-0.008904,-0.008502
"2019-10-08 08:47:35.188 +0000",1570524455.188348,0.035859,0.713150,-0.015292,0.027114,-0.654220,-0.755818,0.000000,0.000000,0.000000,-1,-0.191294,0.046897,-0.211457,-0.049377,-0.010224,-0.019664
"2019-10-08 08:47:35.211 +0000",1570524455.210652,0.039253,0.713191,-0.020767,0.029679,-0.654251,-0.755695,0.000000,0.000000,0.000000,-1,0.135078,-0.048626,-0.136037,-0.023942,0.036315,-0.095059
"2019-10-08 08:47:35.233 +0000",1570524455.232949,0.039304,0.701068,-0.022836,0.030027,-0.645035,-0.763563,0.000000,0.000000,0.000000,-1,0.281277,-0.201442,0.091145,0.015582,0.091751,-0.066362
"2019-10-08 08:47:35.255 +0000",1570524455.255230,0.030344,0.706752,-0.019225,0.023072,-0.649367,-0.760125,0.000000,0.000000,0.000000,-1,0.209880,-0.326772,0.136887,0.007293,0.088225,-0.038047
"2019-10-08 08:47:35.278 +0000",1570524455.277527,0.021110,0.708066,-0.017362,0.016034,-0.650366,-0.759452,0.000000,0.000000,0.000000,-1,-0.042868,-0.391396,-0.005310,-0.072797,0.039862,0.039542
"2019-10-08 08:47:35.300 +0000",1570524455.299813,0.001157,0.706052,-0.013618,0.000880,-0.648835,-0.760929,0.000000,0.000000,0.000000,-1,-0.177966,-0.507954,-0.205222,-0.094294,0.023164,0.015064
"2019-10-08 08:47:35.322 +0000",1570524455.322115,-0.004011,0.700765,-0.019185,-0.003066,-0.644802,-0.764343,0.000000,0.000000,0.000000,-1,-0.266630,-0.259289,-0.150402,-0.087297,0.032543,0.025375
"2019-10-08 08:47:35.344 +0000",1570524455.344420,-0.004959,0.695387,-0.019193,-0.003807,-0.640683,-0.767796,0.000000,0.000000,0.000000,-1,-0.181441,-0.018441,0.090642,-0.104439,0.080471,0.014714
"2019-10-08 08:47:35.367 +0000",1570524455.366726,-0.021079,0.694590,-0.012569,-0.016194,-0.640071,-0.768145,0.000000,0.000000,0.000000,-1,0.025855,-0.928995,0.324592,-0.015712,0.128398,-0.009961
"2019-10-08 08:47:35.389 +0000",1570524455.388999,-0.061046,0.694924,-0.001539,-0.046860,-0.640327,-0.766672,0.000000,0.000000,0.000000,-1,0.019214,-1.637457,0.353208,-0.016296,0.122429,0.044229
"2019-10-08 08:47:35.411 +0000",1570524455.411305,-0.094254,0.692227,0.002038,-0.072452,-0.638253,-0.766410,0.000000,0.000000,0.000000,-1,-0.222805,-1.132186,-0.022302,-0.086606,0.033151,0.039008
"2019-10-08 08:47:35.434 +0000",1570524455.433611,-0.104720,0.684127,-0.002662,-0.081007,-0.631997,-0.770726,0.000000,0.000000,0.000000,-1,-0.461017,-0.293757,-0.135293,-0.189333,0.009255,0.061024
"2019-10-08 08:47:35.456 +0000",1570524455.455898,-0.103584,0.671021,-0.003842,-0.080981,-0.621786,-0.778989,0.000000,0.000000,0.000000,-1,-0.646454,0.093565,0.157679,-0.012647,0.098867,0.060926
"2019-10-08 08:47:35.478 +0000",1570524455.478173,-0.113761,0.657275,0.003761,-0.089866,-0.610962,-0.786543,0.000000,0.000000,0.000000,-1,-0.515415,-0.529108,0.406408,0.018317,0.081360,0.080610
"2019-10-08 08:47:35.500 +0000",1570524455.500494,-0.139065,0.647115,0.014562,-0.110593,-0.602887,-0.790124,0.000000,0.000000,0.000000,-1,-0.317296,-0.960592,0.462426,-0.012225,0.057325,0.091577
"2019-10-08 08:47:35.523 +0000",1570524455.522774,-0.174009,0.640132,0.030822,-0.138855,-0.597301,-0.789905,0.000000,0.000000,0.000000,-1,-0.207118,-1.252138,0.768993,-0.006974,0.176754,0.123554
"2019-10-08 08:47:35.545 +0000",1570524455.545075,-0.219332,0.628727,0.055638,-0.175972,-0.588116,-0.789401,0.000000,0.000000,0.000000,-1,-0.424250,-1.358120,1.062609,0.029167,0.184231,0.196322
"2019-10-08 08:47:35.567 +0000",1570524455.567378,-0.261365,0.609859,0.081061,-0.211817,-0.572752,-0.791889,0.000000,0.000000,0.000000,-1,-0.670940,-1.184491,1.135394,-0.005972,0.146025,0.297428
"2019-10-08 08:47:35.590 +0000",1570524455.589654,-0.308833,0.588449,0.110583,-0.252824,-0.555072,-0.792449,0.000000,0.000000,0.000000,-1,-0.534311,-1.602546,1.490237,-0.022170,0.139346,0.270385
"2019-10-08 08:47:35.612 +0000",1570524455.611958,-0.385427,0.569776,0.157687,-0.316562,-0.539443,-0.780250,0.000000,0.000000,0.000000,-1,0.084952,-2.731280,2.201427,0.129565,0.270293,0.196250
"2019-10-08 08:47:35.634 +0000",1570524455.634264,-0.486285,0.551185,0.217877,-0.398133,-0.523697,-0.753147,0.000000,0.000000,0.000000,-1,0.107169,-3.101691,2.482605,0.156541,0.305771,0.142689
"2019-10-08 08:47:35.657 +0000",1570524455.656537,-0.572773,0.516235,0.268302,-0.471338,-0.493609,-0.730883,0.000000,0.000000,0.000000,-1,-0.632301,-2.394560,2.509506,0.024133,0.223818,0.330996
"2019-10-08 08:47:35.679 +0000",1570524455.678856,-0.635787,0.467400,0.309742,-0.530120,-0.450567,-0.718305,0.000000,0.000000,0.000000,-1,-0.948614,-1.779034,2.660215,-0.079026,0.240667,0.266324
"2019-10-08 08:47:35.701 +0000",1570524455.701146,-0.693213,0.412651,0.353293,-0.585374,-0.401039,-0.704631,0.000000,0.000000,0.000000,-1,-0.696008,-1.790805,3.088414,0.085084,0.313973,0.169749
"2019-10-08 08:47:35.723 +0000",1570524455.723422,-0.771843,0.354124,0.414407,-0.654180,-0.346769,-0.672160,0.000000,0.000000,0.000000,-1,0.000473,-3.154879,4.011378,0.230612,0.347013,0.069346
"2019-10-08 08:47:35.746 +0000",1570524455.745727,-0.877577,0.286856,0.487857,-0.737762,-0.282938,-0.612905,0.000000,0.000000,0.000000,-1,0.332698,-3.800359,4.384450,0.426361,0.514887,-0.025888
"2019-10-08 08:47:35.768 +0000",1570524455.768034,-0.973208,0.215646,0.547139,-0.807547,-0.213979,-0.549618,0.000000,0.000000,0.000000,-1,-0.061704,-3.491195,3.892764,0.079139,0.347722,0.076245
"2019-10-08 08:47:35.790 +0000",1570524455.790307,-1.040650,0.139630,0.585475,-0.854336,-0.139177,-0.500739,0.000000,0.000000,0.000000,-1,-0.521165,-1.973526,3.854284,-0.045398,0.150911,-0.006067
"2019-10-08 08:47:35.813 +0000",1570524455.812613,-1.046048,0.051425,0.617171,-0.864306,-0.051402,-0.500332,0.000000,0.000000,0.000000,-1,-0.922517,1.102069,4.269684,-0.007413,0.163966,-0.019855
"2019-10-08 08:47:35.835 +0000",1570524455.834918,-0.987508,-0.041474,0.643529,-0.833939,0.041462,-0.550298,0.000000,0.000000,0.000000,-1,-1.235759,3.190941,4.002900,-0.102280,0.271694,-0.245036
"2019-10-08 08:47:35.857 +0000",1570524455.857225,-0.921069,-0.122419,0.670670,-0.790290,0.122113,-0.600442,0.000000,0.000000,0.000000,-1,-1.038889,2.321892,3.518203,-0.175500,0.224002,-0.518592
"2019-10-08 08:47:35.879 +0000",1570524455.879498,-0.892942,-0.193862,0.704402,-0.764329,0.192650,-0.615376,0.000000,0.000000,0.000000,-1,-0.586911,0.240027,3.354518,-0.084426,0.142739,-0.647106
"2019-10-08 08:47:35.902 +0000",1570524455.901803,-0.897672,-0.245989,0.745554,-0.758341,0.243516,-0.604665,0.000000,0.000000,0.000000,-1,0.232411,-0.976344,2.693293,-0.311316,0.018432,-0.665004
"2019-10-08 08:47:35.924 +0000",1570524455.924108,-0.904438,-0.286733,0.788037,-0.753985,0.282820,-0.592891,0.000000,0.000000,0.000000,-1,0.259964,-0.356777,2.578637,-0.407133,-0.068602,-0.613774
"2019-10-08 08:47:35.946 +0000",1570524455.946383,-0.868971,-0.327834,0.831416,-0.722994,0.321993,-0.611229,0.000000,0.000000,0.000000,-1,0.337768,1.666770,2.554506,-0.453779,-0.205736,-0.307213
"2019-10-08 08:47:35.969 +0000",1570524455.968687,-0.818098,-0.361455,0.874577,-0.682687,0.353635,-0.639438,0.000000,0.000000,0.000000,-1,0.328573,1.291460,2.208001,-0.477531,-0.315336,-0.216778
"2019-10-08 08:47:35.991 +0000",1570524455.990993,-0.793323,-0.389886,0.915454,-0.659203,0.380083,-0.648836,0.000000,0.000000,0.000000,-1,0.398505,-0.106542,2.059170,-0.440956,-0.325243,0.012759
"2019-10-08 08:47:36.013 +0000",1570524456.013268,-0.798491,-0.414044,0.958523,-0.655777,0.402315,-0.638826,0.000000,0.000000,0.000000,-1,0.472667,-1.448781,2.015292,-0.405884,-0.144655,0.091814
"2019-10-08 08:47:36.036 +0000",1570524456.035573,-0.818983,-0.442560,0.990330,-0.660079,0.428255,-0.617166,0.000000,0.000000,0.000000,-1,-0.207586,-1.295733,1.584415,-0.479966,-0.062501,0.187341
"2019-10-08 08:47:36.058 +0000",1570524456.057878,-0.828528,-0.471437,0.999321,-0.656550,0.454167,-0.602225,0.000000,0.000000,0.000000,-1,-0.878766,-0.225304,1.070966,-0.630682,0.033763,0.261862
"2019-10-08 08:47:36.080 +0000",1570524456.080153,-0.825567,-0.502748,0.994974,-0.643993,0.481835,-0.594228,0.000000,0.000000,0.000000,-1,-1.073759,0.370313,0.831133,-0.445255,0.122779,0.200094
"2019-10-08 08:47:36.102 +0000",1570524456.102459,-0.825866,-0.530250,0.997598,-0.634187,0.505749,-0.584829,0.000000,0.000000,0.000000,-1,-0.553661,-0.542123,1.180604,-0.276503,0.196598,0.027929
"2019-10-08 08:47:36.125 +0000",1570524456.124742,-0.850176,-0.559118,1.011126,-0.636976,0.530439,-0.559371,0.000000,0.000000,0.000000,-1,-0.538873,-1.673376,1.306022,0.072523,0.080889,-0.005525
"2019-10-08 08:47:36.147 +0000",1570524456.147037,-0.877982,-0.592228,1.019045,-0.638413,0.558211,-0.529933,0.000000,0.000000,0.000000,-1,-0.847995,-1.161430,1.391905,0.170487,0.070802,0.029948
"2019-10-08 08:47:36.169 +0000",1570524456.169343,-0.890588,-0.631397,1.023237,-0.627554,0.590273,-0.507695,0.000000,0.000000,0.000000,-1,-1.054597,-0.453117,1.422009,0.147467,-0.121340,-0.029399
"2019-10-08 08:47:36.192 +0000",1570524456.191637,-0.898969,-0.665281,1.023281,-0.615773,0.617280,-0.489683,0.000000,0.000000,0.000000,-1,-0.846691,-0.464350,1.038871,0.076008,-0.083436,-0.105898
"2019-10-08 08:47:36.214 +0000",1570524456.213923,-0.914756,-0.691518,1.022669,-0.610379,0.637707,-0.469858,0.000000,0.000000,0.000000,-1,-0.689668,-0.773822,0.839477,-0.040667,-0.145947,-0.183340
"2019-10-08 08:47:36.236 +0000",1570524456.236227,-0.934595,-0.710675,1.024010,-0.609641,0.652346,-0.450315,0.000000,0.000000,0.000000,-1,-0.349306,-1.087941,0.691065,-0.093698,-0.072878,-0.147586
"2019-10-08 08:47:36.259 +0000",1570524456.258533,-0.969806,-0.729512,1.026584,-0.614870,0.666506,-0.421550,0.000000,0.000000,0.000000,-1,-0.560693,-2.051239,0.692082,-0.098326,-0.079562,-0.273839
"2019-10-08 08:47:36.281 +0000",1570524456.280832,-1.040505,-0.756156,1.011530,-0.627566,0.686130,-0.367948,0.000000,0.000000,0.000000,-1,-1.403553,-3.186235,0.897802,-0.351498,-0.296055,-0.030276
"2019-10-08 08:47:36.303 +0000",1570524456.303104,-1.138755,-0.786809,0.985810,-0.641226,0.708104,-0.295666,0.000000,0.000000,0.000000,-1,-1.171519,-3.529104,0.642912,-0.370813,-0.129719,-0.238407
"2019-10-08 08:47:36.325 +0000",1570524456.325417,-1.212712,-0.800073,0.972183,-0.652465,0.717407,-0.244164,0.000000,0.000000,0.000000,-1,-0.269837,-2.576113,0.127458,-0.169739,0.083801,-0.246788
"2019-10-08 08:47:36.348 +0000",1570524456.347701,-1.258631,-0.789563,0.980365,-0.670124,0.710046,-0.216261,0.000000,0.000000,0.000000,-1,0.718631,-2.209222,-0.539065,0.053105,0.008201,0.025404
"2019-10-08 08:47:36.370 +0000",1570524456.369997,-1.278680,-0.772066,1.003179,-0.686119,0.697617,-0.206329,0.000000,0.000000,0.000000,-1,1.064498,-1.173085,-0.487328,0.102089,-0.033356,0.198822
"2019-10-08 08:47:36.392 +0000",1570524456.392304,-1.269388,-0.749214,1.042546,-0.699215,0.681063,-0.217372,0.000000,0.000000,0.000000,-1,1.799840,-0.767994,-0.790819,0.076840,-0.053027,0.265681
"2019-10-08 08:47:36.415 +0000",1570524456.414608,-1.263561,-0.717504,1.082299,-0.718168,0.657506,-0.227862,0.000000,0.000000,0.000000,-1,1.416522,-0.990143,-0.935396,-0.148913,0.102565,-0.064054
"2019-10-08 08:47:36.437 +0000",1570524456.436883,-1.258997,-0.696269,1.103812,-0.730247,0.641359,-0.235368,0.000000,0.000000,0.000000,-1,1.026309,0.085191,-0.528286,-0.003548,0.249830,-0.099242
"2019-10-08 08:47:36.459 +0000",1570524456.459188,-1.227404,-0.695582,1.113833,-0.722862,0.640832,-0.258465,0.000000,0.000000,0.000000,-1,-0.821863,2.445305,0.485824,-0.051811,0.190848,-0.237751
"2019-10-08 08:47:36.481 +0000",1570524456.481493,-1.187150,-0.706469,1.085823,-0.705363,0.649152,-0.284718,0.000000,0.000000,0.000000,-1,-0.458366,0.814018,-0.535392,0.389567,-0.140653,1.159657
"2019-10-08 08:47:36.504 +0000",1570524456.503785,-1.228444,-0.671086,1.084852,-0.737699,0.621837,-0.262906,0.000000,0.000000,0.000000,-1,0.887276,-2.272378,-1.621424,0.222486,0.065694,0.009091
"2019-10-08 08:47:36.526 +0000",1570524456.526072,-1.262229,-0.625225,1.108584,-0.772536,0.585280,-0.246245,0.000000,0.000000,0.000000,-1,1.701099,-2.554979,-1.942348,0.063032,0.007738,-0.321687
"2019-10-08 08:47:36.548 +0000",1570524456.548378,-1.335732,-0.564442,1.128518,-0.821652,0.534945,-0.196779,0.000000,0.000000,0.000000,-1,1.288991,-4.212890,-2.446354,-0.083179,0.117613,-0.529631
"2019-10-08 08:47:36.571 +0000",1570524456.570668,-1.369478,-0.518010,1.180988,-0.851259,0.495153,-0.173727,0.000000,0.000000,0.000000,-1,3.413990,-1.202644,-1.072834,0.001101,0.040690,-0.304636
"2019-10-08 08:47:36.593 +0000",1570524456.592957,-1.360641,-0.496856,1.235010,-0.859744,0.476664,-0.183388,0.000000,0.000000,0.000000,-1,1.122994,-1.308762,-0.269003,0.089648,-0.116588,-0.051888
"2019-10-08 08:47:36.615 +0000",1570524456.615268,-1.411647,-0.512247,1.215177,-0.860630,0.490137,-0.138137,0.000000,0.000000,0.000000,-1,-1.589295,-2.301309,1.032529,0.426243,-0.160746,0.363662
"2019-10-08 08:47:36.638 +0000",1570524456.637568,-1.473512,-0.545221,1.192421,-0.850970,0.518607,-0.083049,0.000000,0.000000,0.000000,-1,-0.684430,-2.208310,1.442710,0.707156,-0.362739,0.733561
"2019-10-08 08:47:36.660 +0000",1570524456.659835,-1.527775,-0.569835,1.176799,-0.841211,0.539493,-0.036212,0.000000,0.000000,0.000000,-1,-0.966014,-1.825365,0.612990,0.210565,-0.173343,0.400821
"2019-10-08 08:47:36.682 +0000",1570524456.682143,-1.607346,-0.560429,1.115064,-0.846461,0.531550,0.030951,0.000000,0.000000,0.000000,-1,-2.919057,-2.212025,-0.866860,-0.347768,0.057531,0.075616
"2019-10-08 08:47:36.704 +0000",1570524456.704454,-1.670487,-0.536764,1.044554,-0.855101,0.511358,0.085529,0.000000,0.000000,0.000000,-1,-2.544766,-0.475586,-0.729527,-0.344590,0.119746,0.019269
"2019-10-08 08:47:36.727 +0000",1570524456.726729,-1.704126,-0.528288,0.987726,-0.856006,0.504056,0.114812,0.000000,0.000000,0.000000,-1,-2.102485,-0.417033,0.368021,0.535678,0.381290,-0.115560
"2019-10-08 08:47:36.749 +0000",1570524456.749034,-1.751233,-0.543067,0.949008,-0.842229,0.516764,0.153640,0.000000,0.000000,0.000000,-1,-0.694761,-1.738939,0.983261,0.560185,0.386373,-0.350860
"2019-10-08 08:47:36.771 +0000",1570524456.771339,-1.812486,-0.563602,0.947837,-0.820766,0.534235,0.202326,0.000000,0.000000,0.000000,-1,0.381553,-3.153352,0.934250,0.110912,0.052145,-0.865442
"2019-10-08 08:47:36.794 +0000",1570524456.793613,-1.869439,-0.587110,0.932907,-0.795694,0.553957,0.244954,0.000000,0.000000,0.000000,-1,-0.655466,-1.340263,1.324609,-0.121237,-0.105593,-0.591482
"2019-10-08 08:47:36.816 +0000",1570524456.815919,-1.905521,-0.611392,0.895222,-0.773404,0.574008,0.268999,0.000000,0.000000,0.000000,-1,-1.083091,-0.371650,1.495706,-0.202090,-0.052142,0.351728
"2019-10-08 08:47:36.838 +0000",1570524456.838220,-1.932407,-0.625942,0.862502,-0.758001,0.585861,0.286709,0.000000,0.000000,0.000000,-1,-0.584351,-0.841394,0.531227,-0.307276,0.122101,0.107670
"2019-10-08 08:47:36.860 +0000",1570524456.860500,-1.988806,-0.621509,0.840582,-0.743000,0.582263,0.330031,0.000000,0.000000,0.000000,-1,-0.646355,-2.562907,-0.235058,-0.467846,0.375303,-0.535720
"2019-10-08 08:47:36.883 +0000",1570524456.882805,-2.032701,-0.611259,0.832901,-0.733107,0.573899,0.364958,0.000000,0.000000,0.000000,-1,-0.578258,-1.576591,-0.312014,0.193358,0.222091,0.041094
"2019-10-08 08:47:36.905 +0000",1570524456.905110,-2.078439,-0.602929,0.825830,-0.719806,0.567058,0.400405,0.000000,0.000000,0.000000,-1,-0.078914,-1.713960,-0.260959,0.225422,0.070897,-0.030181
"2019-10-08 08:47:36.927 +0000",1570524456.927385,-2.098559,-0.595741,0.844544,-0.715108,0.561122,0.416848,0.000000,0.000000,0.000000,-1,0.585186,-1.375001,-0.798357,-0.113780,0.013509,-0.063836
"2019-10-08 08:47:36.950 +0000",1570524456.949690,-2.112852,-0.590199,0.867523,-0.711730,0.556526,0.428624,0.000000,0.000000,0.000000,-1,0.587588,-1.234996,-0.540325,0.055496,0.111366,-0.023534
"2019-10-08 08:47:36.972 +0000",1570524456.971990,-2.133558,-0.593125,0.883669,-0.701323,0.558955,0.442397,0.000000,0.000000,0.000000,-1,0.520939,-1.221744,0.031418,0.054045,0.004659,-0.011336
"2019-10-08 08:47:36.994 +0000",1570524456.994301,-2.150386,-0.600474,0.887726,-0.690324,0.565034,0.451874,0.000000,0.000000,0.000000,-1,0.207866,-0.530533,0.348929,0.151566,0.086456,-0.104660
"2019-10-08 08:47:37.017 +0000",1570524457.016576,-2.152719,-0.619187,0.872690,-0.680315,0.580373,0.447592,0.000000,0.000000,0.000000,-1,-0.200162,0.840704,1.567199,0.079912,0.016566,-0.073935
"2019-10-08 08:47:37.039 +0000",1570524457.038881,-2.079149,-0.637650,0.792933,-0.701893,0.595309,0.391093,0.000000,0.000000,0.000000,-1,-2.159153,7.816553,2.005616,1.069126,-0.093920,0.724889
"2019-10-08 08:47:37.061 +0000",1570524457.061186,-1.947066,-0.662285,0.730928,-0.733421,0.614921,0.289770,0.000000,0.000000,0.000000,-1,-0.515419,7.015030,1.965054,0.176139,-0.215232,-0.134390
"2019-10-08 08:47:37.083 +0000",1570524457.083461,-1.903560,-0.698923,0.731766,-0.723540,0.643394,0.250067,0.000000,0.000000,0.000000,-1,-0.258477,0.797111,1.116004,0.559463,0.004830,-0.264624
"2019-10-08 08:47:37.106 +0000",1570524457.105768,-1.921627,-0.704902,0.693296,-0.715279,0.647959,0.261771,0.000000,0.000000,0.000000,-1,-1.570904,-0.285556,0.589138,-1.064445,-0.229029,0.203165
"2019-10-08 08:47:37.128 +0000",1570524457.128072,-1.975144,-0.693875,0.632223,-0.706779,0.639521,0.302451,0.000000,0.000000,0.000000,-1,-2.271611,-0.576679,0.138625,-0.646370,-0.177576,-0.187109
"2019-10-08 08:47:37.150 +0000",1570524457.150348,-2.023072,-0.681151,0.571800,-0.698740,0.629688,0.339493,0.000000,0.000000,0.000000,-1,-2.133821,-0.303964,0.662253,-0.429525,-0.097782,-0.234696
"2019-10-08 08:47:37.173 +0000",1570524457.172660,-2.072389,-0.676677,0.511578,-0.683618,0.626205,0.374877,0.000000,0.000000,0.000000,-1,-1.796976,-0.709282,0.820480,0.115320,0.070129,-0.075072
"2019-10-08 08:47:37.195 +0000",1570524457.194959,-2.120888,-0.679135,0.462000,-0.663326,0.628120,0.406772,0.000000,0.000000,0.000000,-1,-1.214430,-0.682718,0.945788,0.127163,-0.072731,0.002804
"2019-10-08 08:47:37.217 +0000",1570524457.217233,-2.143900,-0.683193,0.436431,-0.651644,0.631272,0.420542,0.000000,0.000000,0.000000,-1,-0.133953,-0.118715,0.662123,-0.030928,-0.037980,0.153494
"2019-10-08 08:47:37.240 +0000",1570524457.239539,-2.140999,-0.699666,0.433490,-0.644018,0.643963,0.412980,0.000000,0.000000,0.000000,-1,0.500441,0.585686,0.468820,0.023718,-0.837825,0.145965
"2019-10-08 08:47:37.262 +0000",1570524457.261844,-2.128950,-0.707325,0.455860,-0.644745,0.649803,0.402566,0.000000,0.000000,0.000000,-1,0.707698,-0.597656,-0.491930,-0.045105,0.235390,-0.220804
"2019-10-08 08:47:37.284 +0000",1570524457.284118,-2.134867,-0.695287,0.465343,-0.648916,0.640606,0.410527,0.000000,0.000000,0.000000,-1,-0.315017,-0.326801,-0.641157,-0.043619,0.931477,-0.198674
"2019-10-08 08:47:37.306 +0000",1570524457.306423,-2.131554,-0.679142,0.473327,-0.658946,0.628125,0.413822,0.000000,0.000000,0.000000,-1,0.056662,-0.004139,-0.906856,0.082454,0.775882,-0.084293
"2019-10-08 08:47:37.329 +0000",1570524457.328708,-2.114423,-0.661095,0.500349,-0.675531,0.613982,0.408270,0.000000,0.000000,0.000000,-1,0.530266,0.052143,-1.356229,-0.119727,0.236833,-0.001959
"2019-10-08 08:47:37.351 +0000",1570524457.351031,-2.090290,-0.640874,0.534265,-0.695823,0.597896,0.397933,0.000000,0.000000,0.000000,-1,0.547028,0.207480,-1.270763,-0.041833,0.094975,0.008088
"2019-10-08 08:47:37.373 +0000",1570524457.373309,-2.080743,-0.634656,0.545876,-0.702821,0.592900,0.393080,0.000000,0.000000,0.000000,-1,0.039914,-0.052676,0.223700,0.106980,0.025584,0.039034
"2019-10-08 08:47:37.396 +0000",1570524457.395599,-2.091629,-0.655665,0.537186,-0.687542,0.609687,0.394421,0.000000,0.000000,0.000000,-1,0.341954,-0.402054,1.142450,0.032849,-0.141898,-0.037258
"2019-10-08 08:47:37.418 +0000",1570524457.417920,-2.104247,-0.679163,0.524064,-0.669988,0.628142,0.395669,0.000000,0.000000,0.000000,-1,-0.283663,0.306078,1.097439,-0.083262,0.046373,0.004569
"2019-10-08 08:47:37.440 +0000",1570524457.440193,-2.107664,-0.696680,0.499472,-0.659075,0.641675,0.392268,0.000000,0.000000,0.000000,-1,-0.376893,0.572422,0.952373,-0.038435,-0.215054,0.187795
"2019-10-08 08:47:37.462 +0000",1570524457.462500,-2.110548,-0.703733,0.487230,-0.654042,0.647068,0.391831,0.000000,0.000000,0.000000,-1,-0.116765,0.045715,0.235165,0.146001,-0.025471,0.031616
"2019-10-08 08:47:37.485 +0000",1570524457.484806,-2.115303,-0.703374,0.484088,-0.652370,0.646795,0.395057,0.000000,0.000000,0.000000,-1,-0.050446,-0.163358,-0.076808,0.023525,0.038462,-0.041175
"2019-10-08 08:47:37.507 +0000",1570524457.507082,-2.118870,-0.701282,0.483941,-0.652110,0.645198,0.398086,0.000000,0.000000,0.000000,-1,-0.071281,-0.173968,0.044851,0.031047,0.096318,-0.019225
"2019-10-08 08:47:37.529 +0000",1570524457.529385,-2.123942,-0.705980,0.483155,-0.647496,0.648780,0.399791,0.000000,0.000000,0.000000,-1,0.202821,-0.195361,0.208909,0.003148,-0.012824,-0.034236
"2019-10-08 08:47:37.552 +0000",1570524457.551665,-2.121181,-0.708672,0.489203,-0.647107,0.650826,0.397088,0.000000,0.000000,0.000000,-1,0.216832,0.054448,-0.088551,0.047375,0.019295,0.030296
"2019-10-08 08:47:37.574 +0000",1570524457.573966,-2.118116,-0.705040,0.490834,-0.650335,0.648064,0.396330,0.000000,0.000000,0.000000,-1,-0.396101,0.098906,-0.295138,0.053106,0.041145,-0.027357
"2019-10-08 08:47:37.596 +0000",1570524457.596271,-2.127584,-0.681000,0.477326,-0.659592,0.629570,0.410585,0.000000,0.000000,0.000000,-1,-1.416333,-0.067830,-0.992519,0.029648,-0.321129,-0.086244
"2019-10-08 08:47:37.619 +0000",1570524457.618547,-2.146851,-0.666030,0.477089,-0.659389,0.617870,0.428302,0.000000,0.000000,0.000000,-1,0.178231,-1.212724,-0.113295,-0.060765,-0.643398,-0.209354
"2019-10-08 08:47:37.641 +0000",1570524457.640851,-2.165715,-0.681582,0.492296,-0.643157,0.630022,0.435226,0.000000,0.000000,0.000000,-1,1.059498,-1.109679,0.352611,-0.209962,-0.410265,-0.087539
"2019-10-08 08:47:37.663 +0000",1570524457.663156,-2.171668,-0.696886,0.507801,-0.632526,0.641833,0.433545,0.000000,0.000000,0.000000,-1,0.556131,-0.547201,0.166284,-0.062023,0.269163,0.062915
"2019-10-08 08:47:37.685 +0000",1570524457.685463,-2.181357,-0.698638,0.500373,-0.627374,0.643176,0.439007,0.000000,0.000000,0.000000,-1,-0.458167,-0.275498,0.235389,0.042260,0.482694,0.014102
"2019-10-08 08:47:37.708 +0000",1570524457.707767,-2.198809,-0.697183,0.488630,-0.620374,0.642061,0.450438,0.000000,0.000000,0.000000,-1,-0.280114,-0.461117,0.250759,-0.163470,0.261229,-0.166838
"2019-10-08 08:47:37.730 +0000",1570524457.730041,-2.219165,-0.704947,0.473661,-0.607085,0.647993,0.459948,0.000000,0.000000,0.000000,-1,-0.159939,-0.521616,0.817034,0.044417,-0.102522,-0.057086
"2019-10-08 08:47:37.752 +0000",1570524457.752349,-2.249358,-0.727859,0.452428,-0.581211,0.665273,0.468621,0.000000,0.000000,0.000000,-1,0.216203,-0.817969,1.442577,0.092045,-0.219808,-0.016320
"2019-10-08 08:47:37.775 +0000",1570524457.774640,-2.274572,-0.738204,0.429938,-0.563934,0.672960,0.478647,0.000000,0.000000,0.000000,-1,-0.606134,-0.072715,0.520090,-0.412994,0.567808,0.200415
"2019-10-08 08:47:37.797 +0000",1570524457.796926,-2.290657,-0.730720,0.406281,-0.559934,0.667406,0.490961,0.000000,0.000000,0.000000,-1,-0.827172,-0.197190,0.166306,0.031842,0.218809,-0.167612
"2019-10-08 08:47:37.819 +0000",1570524457.819232,-2.314442,-0.722332,0.384003,-0.552200,0.661136,0.507912,0.000000,0.000000,0.000000,-1,-0.851960,-0.445248,0.281386,0.017562,0.091504,-0.198006
"2019-10-08 08:47:37.842 +0000",1570524457.841522,-2.343443,-0.718244,0.356600,-0.539171,0.658063,0.525593,0.000000,0.000000,0.000000,-1,-0.675086,-0.443975,0.591586,-0.081114,-0.041059,-0.015461
"2019-10-08 08:47:37.864 +0000",1570524457.863813,-2.357570,-0.721916,0.337949,-0.529982,0.660824,0.531442,0.000000,0.000000,0.000000,-1,-0.135883,0.141271,0.452644,0.013686,0.022099,-0.000253
"2019-10-08 08:47:37.886 +0000",1570524457.886120,-2.355115,-0.725962,0.337923,-0.529388,0.663855,0.528247,0.000000,0.000000,0.000000,-1,0.236946,0.084004,-0.082602,0.038849,0.203241,-0.011630
"2019-10-08 08:47:37.908 +0000",1570524457.908425,-2.346087,-0.724192,0.353759,-0.534974,0.662530,0.524268,0.000000,0.000000,0.000000,-1,0.258242,-0.247856,-0.649055,0.086579,0.146582,-0.006995
"2019-10-08 08:47:37.931 +0000",1570524457.930702,-2.337031,-0.710677,0.376467,-0.546102,0.652347,0.525562,0.000000,0.000000,0.000000,-1,0.099668,-0.334435,-1.071379,0.087346,0.194409,-0.015354
"2019-10-08 08:47:37.953 +0000",1570524457.953006,-2.329527,-0.698194,0.400844,-0.555897,0.642835,0.527012,0.000000,0.000000,0.000000,-1,0.350301,-0.378851,-0.814085,0.012669,0.189349,-0.100910
"2019-10-08 08:47:37.975 +0000",1570524457.975312,-2.315693,-0.696379,0.424624,-0.563991,0.641444,0.520061,0.000000,0.000000,0.000000,-1,0.597645,0.182024,-0.542318,-0.077442,0.037740,-0.046200
"2019-10-08 08:47:37.998 +0000",1570524457.997592,-2.278488,-0.702403,0.452667,-0.579998,0.646054,0.496202,0.000000,0.000000,0.000000,-1,1.068470,1.324675,-0.317797,-0.041660,-0.056516,0.096785
"2019-10-08 08:47:38.020 +0000",1570524458.019891,-2.229866,-0.716298,0.476570,-0.596275,0.656597,0.461884,0.000000,0.000000,0.000000,-1,0.962850,1.533297,0.200093,-0.032173,-0.075741,0.155228
"2019-10-08 08:47:38.042 +0000",1570524458.042198,-2.206621,-0.735793,0.482497,-0.596435,0.671175,0.440214,0.000000,0.000000,0.000000,-1,0.743636,0.294211,1.096744,-0.022110,-0.135623,-0.044050
"2019-10-08 08:47:38.065 +0000",1570524458.064502,-2.229289,-0.763931,0.462195,-0.571138,0.691765,0.441885,0.000000,0.000000,0.000000,-1,-0.307505,-0.923338,1.609521,-0.001448,-0.176186,-0.362524
"2019-10-08 08:47:38.087 +0000",1570524458.086778,-2.296640,-0.798243,0.402436,-0.522037,0.716131,0.463287,0.000000,0.000000,0.000000,-1,-0.302365,-1.325386,2.937989,0.101749,0.159571,-0.089431
"2019-10-08 08:47:38.109 +0000",1570524458.109083,-2.373560,-0.866376,0.338714,-0.449896,0.761987,0.465799,0.000000,0.000000,0.000000,-1,1.360676,-1.219251,3.481116,-0.082559,-0.045877,-0.121759
"2019-10-08 08:47:38.131 +0000",1570524458.131390,-2.417961,-0.891010,0.336071,-0.416221,0.777707,0.471097,0.000000,0.000000,0.000000,-1,0.124640,-1.725061,0.057462,0.053077,-0.166135,0.105106
"2019-10-08 08:47:38.154 +0000",1570524458.153663,-2.452344,-0.892439,0.311996,-0.399073,0.778604,0.484269,0.000000,0.000000,0.000000,-1,-0.419336,-0.506734,0.876337,-0.077749,-0.245050,0.386444
"2019-10-08 08:47:38.176 +0000",1570524458.175968,-2.501599,-0.904217,0.270971,-0.369244,0.785941,0.495939,0.000000,0.000000,0.000000,-1,-0.396746,-1.086510,1.428571,0.141674,-0.317390,-0.074537
"2019-10-08 08:47:38.198 +0000",1570524458.198275,-2.545787,-0.893739,0.220246,-0.351577,0.779420,0.518554,0.000000,0.000000,0.000000,-1,-1.518182,0.848061,0.475551,0.185699,-0.164155,0.021012
"2019-10-08 08:47:38.221 +0000",1570524458.220571,-2.551055,-0.876658,0.194271,-0.356203,0.768605,0.531381,0.000000,0.000000,0.000000,-1,-0.702421,0.402645,0.041943,-0.044874,0.159968,-0.219201
"2019-10-08 08:47:38.243 +0000",1570524458.242856,-2.557511,-0.873634,0.185002,-0.354045,0.766667,0.535606,0.000000,0.000000,0.000000,-1,-0.025995,-0.308552,0.243311,-0.034016,0.222087,-0.204796
"2019-10-08 08:47:38.265 +0000",1570524458.265162,-2.571736,-0.881891,0.179470,-0.342963,0.771942,0.535239,0.000000,0.000000,0.000000,-1,0.274141,-0.412591,0.346087,-0.089578,0.036560,0.006600
"2019-10-08 08:47:38.287 +0000",1570524458.287436,-2.577279,-0.891985,0.176602,-0.335807,0.778319,0.530521,0.000000,0.000000,0.000000,-1,0.310548,-0.078162,0.297234,-0.135888,0.189195,0.033627
"2019-10-08 08:47:38.310 +0000",1570524458.309742,-2.583271,-0.898744,0.171543,-0.329827,0.782546,0.528050,0.000000,0.000000,0.000000,-1,0.059534,-0.159542,0.275519,0.029611,-0.028182,0.021221
"2019-10-08 08:47:38.332 +0000",1570524458.332048,-2.592937,-0.901331,0.165069,-0.323651,0.784153,0.529484,0.000000,0.000000,0.000000,-1,-0.051351,-0.216615,0.161849,-0.044620,0.082073,-0.023701
"2019-10-08 08:47:38.354 +0000",1570524458.354322,-2.599701,-0.900854,0.164432,-0.320255,0.783858,0.531981,0.000000,0.000000,0.000000,-1,0.090464,-0.415600,-0.094357,0.012134,-0.119200,-0.021392
"2019-10-08 08:47:38.377 +0000",1570524458.376632,-2.603632,-0.909923,0.179861,-0.314506,0.789457,0.527110,0.000000,0.000000,0.000000,-1,0.758209,-0.825471,-0.226892,0.036246,-0.383527,-0.066325
"2019-10-08 08:47:38.399 +0000",1570524458.398935,-2.609329,-0.915672,0.205436,-0.309189,0.792972,0.524973,0.000000,0.000000,0.000000,-1,0.474247,-1.237839,-0.583110,0.073731,0.054577,-0.007105
"2019-10-08 08:47:38.421 +0000",1570524458.421239,-2.620555,-0.909043,0.223076,-0.305886,0.788916,0.532958,0.000000,0.000000,0.000000,-1,-0.338466,-0.975002,-0.601918,0.124994,-0.010550,-0.041351
"2019-10-08 08:47:38.444 +0000",1570524458.443518,-2.628980,-0.891580,0.234322,-0.308096,0.778065,0.547441,0.000000,0.000000,0.000000,-1,-0.597078,-0.685188,-0.703845,-0.004251,0.132427,-0.037446
"2019-10-08 08:47:38.466 +0000",1570524458.465819,-2.626855,-0.870007,0.254061,-0.317450,0.764334,0.561266,0.000000,0.000000,0.000000,-1,-0.511162,-0.524664,-1.194006,-0.002542,0.202509,-0.050814
"2019-10-08 08:47:38.488 +0000",1570524458.488126,-2.604226,-0.846479,0.295377,-0.339181,0.748952,0.569234,0.000000,0.000000,0.000000,-1,-0.190838,-0.230189,-1.744802,0.076608,0.175517,-0.062093
"2019-10-08 08:47:38.510 +0000",1570524458.510399,-2.571756,-0.810691,0.337448,-0.371710,0.724764,0.580129,0.000000,0.000000,0.000000,-1,-1.146145,0.004735,-1.968113,0.023917,0.222395,0.050395
"2019-10-08 08:47:38.533 +0000",1570524458.532706,-2.574370,-0.767106,0.346273,-0.386808,0.694055,0.607179,0.000000,0.000000,0.000000,-1,-1.382904,-0.336997,-0.603067,-0.084139,0.107169,-0.365251
"2019-10-08 08:47:38.555 +0000",1570524458.555010,-2.596288,-0.752815,0.317447,-0.378514,0.683696,0.623928,0.000000,0.000000,0.000000,-1,-0.906254,-0.269390,0.923643,-0.178965,-0.142513,0.001087
"2019-10-08 08:47:38.578 +0000",1570524458.577764,-2.639448,-0.756514,0.271161,-0.350022,0.686390,0.637458,0.000000,0.000000,0.000000,-1,-0.447177,-0.539750,1.581245,-0.185348,-0.075734,-0.209251
"2019-10-08 08:47:38.600 +0000",1570524458.600071,-2.684774,-0.768019,0.220201,-0.317275,0.694712,0.645532,0.000000,0.000000,0.000000,-1,-0.263135,-0.404814,1.781094,-0.047761,-0.045603,0.031256
"2019-10-08 08:47:38.622 +0000",1570524458.622375,-2.732752,-0.777508,0.164916,-0.283316,0.701506,0.653928,0.000000,0.000000,0.000000,-1,-0.457939,-0.367146,1.681432,-0.057779,-0.091505,0.013232
"2019-10-08 08:47:38.645 +0000",1570524458.644650,-2.780435,-0.775486,0.121372,-0.252326,0.700063,0.668015,0.000000,0.000000,0.000000,-1,-0.590465,-1.122720,0.992139,0.044623,-0.104406,-0.022644
"2019-10-08 08:47:38.667 +0000",1570524458.666966,-2.814549,-0.774950,0.100686,-0.229515,0.699680,0.676587,0.000000,0.000000,0.000000,-1,-0.031669,-0.705069,0.456479,0.096489,0.224972,-0.051908
"2019-10-08 08:47:38.689 +0000",1570524458.689260,-2.827881,-0.783442,0.107137,-0.218633,0.705722,0.673911,0.000000,0.000000,0.000000,-1,0.756463,0.012485,-0.488642,0.161550,0.004178,-0.261328
"2019-10-08 08:47:38.712 +0000",1570524458.711566,-2.783948,-0.801822,0.161484,-0.243437,0.718624,0.651396,0.000000,0.000000,0.000000,-1,1.709230,0.023610,-1.852927,-0.225603,0.744816,0.239396
"2019-10-08 08:47:38.734 +0000",1570524458.733841,-2.720360,-0.829801,0.257265,-0.276007,0.737797,0.616016,0.000000,0.000000,0.000000,-1,2.840350,-0.363401,-2.169067,0.090872,0.620937,-0.022434
"2019-10-08 08:47:38.756 +0000",1570524458.756147,-2.653986,-0.872177,0.336288,-0.301329,0.765731,0.568205,0.000000,0.000000,0.000000,-1,1.862818,1.180861,-0.678427,0.007353,-0.331374,0.326143
"2019-10-08 08:47:38.778 +0000",1570524458.778453,-2.628461,-0.879604,0.334120,-0.312932,0.770486,0.555359,0.000000,0.000000,0.000000,-1,-0.305470,0.552070,0.467523,-0.081141,-0.589716,0.112014
"2019-10-08 08:47:38.801 +0000",1570524458.800741,-2.643682,-0.878936,0.323762,-0.304689,0.770061,0.560510,0.000000,0.000000,0.000000,-1,0.164298,-0.267021,0.147493,0.046709,-0.205836,-0.229455
"2019-10-08 08:47:38.823 +0000",1570524458.823026,-2.629766,-0.888149,0.331765,-0.308972,0.775905,0.550007,0.000000,0.000000,0.000000,-1,0.480061,0.520816,-0.066536,0.030804,0.083043,0.000957
"2019-10-08 08:47:38.845 +0000",1570524458.845338,-2.611561,-0.896608,0.340533,-0.315603,0.781214,0.538609,0.000000,0.000000,0.000000,-1,0.427627,0.482919,0.000767,0.049779,0.073370,-0.088932
"2019-10-08 08:47:38.868 +0000",1570524458.867614,-2.596660,-0.904564,0.344273,-0.320362,0.786156,0.528515,0.000000,0.000000,0.000000,-1,0.298775,0.517614,0.079799,0.079700,0.024208,-0.006847
"2019-10-08 08:47:38.890 +0000",1570524458.889909,-2.585367,-0.909670,0.347912,-0.324186,0.789301,0.521447,0.000000,0.000000,0.000000,-1,0.257180,0.331773,0.061582,0.022153,0.108755,-0.041955
"2019-10-08 08:47:38.912 +0000",1570524458.912226,-2.575140,-0.911857,0.353954,-0.328575,0.790642,0.516647,0.000000,0.000000,0.000000,-1,0.155782,0.162313,-0.167698,-0.060051,0.075386,-0.001327
"2019-10-08 08:47:38.935 +0000",1570524458.934501,-2.561354,-0.914334,0.366138,-0.334591,0.792157,0.510428,0.000000,0.000000,0.000000,-1,0.343693,0.243302,-0.240288,0.007381,0.078815,-0.054038
"2019-10-08 08:47:38.957 +0000",1570524458.956805,-2.539693,-0.918892,0.383399,-0.343520,0.794930,0.500081,0.000000,0.000000,0.000000,-1,0.476510,0.410415,-0.303741,-0.003785,0.003563,-0.001027
"2019-10-08 08:47:38.979 +0000",1570524458.979112,-2.513028,-0.924127,0.403931,-0.354279,0.798095,0.487371,0.000000,0.000000,0.000000,-1,0.521652,0.481723,-0.319241,-0.001830,-0.001876,-0.009176
"2019-10-08 08:47:39.001 +0000",1570524459.001387,-2.486533,-0.929022,0.423627,-0.364682,0.801035,0.474711,0.000000,0.000000,0.000000,-1,0.461658,0.484359,-0.267188,-0.036716,0.005804,-0.016764
"2019-10-08 08:47:39.024 +0000",1570524459.023691,-2.464334,-0.933015,0.438852,-0.373122,0.803419,0.464003,0.000000,0.000000,0.000000,-1,0.350338,0.420686,-0.178592,-0.057390,0.008105,-0.039717
"2019-10-08 08:47:39.046 +0000",1570524459.045986,-2.447771,-0.936060,0.449942,-0.379189,0.805228,0.455876,0.000000,0.000000,0.000000,-1,0.253901,0.297850,-0.121718,-0.074027,0.018731,-0.075490
"2019-10-08 08:47:39.068 +0000",1570524459.068274,-2.437564,-0.937915,0.456532,-0.382855,0.806327,0.450843,0.000000,0.000000,0.000000,-1,0.133650,0.171332,-0.059860,-0.052799,0.019357,-0.076438
"2019-10-08 08:47:39.091 +0000",1570524459.090592,-2.432463,-0.939050,0.459868,-0.384553,0.806998,0.448189,0.000000,0.000000,0.000000,-1,0.082338,0.086595,-0.016952,-0.056761,0.016397,-0.079537
"2019-10-08 08:47:39.113 +0000",1570524459.112885,-2.428113,-0.940625,0.462829,-0.385667,0.807927,0.445551,0.000000,0.000000,0.000000,-1,0.119976,0.090306,-0.015728,-0.046645,0.004863,-0.052972
"2019-10-08 08:47:39.135 +0000",1570524459.135191,-2.421644,-0.942592,0.467449,-0.387493,0.809084,0.441851,0.000000,0.000000,0.000000,-1,0.165014,0.140616,-0.053372,-0.011295,0.015013,-0.025683
"2019-10-08 08:47:39.157 +0000",1570524459.157420,-2.413374,-0.944447,0.473537,-0.390134,0.810173,0.437510,0.000000,0.000000,0.000000,-1,0.151225,0.162748,-0.054815,-0.021395,0.039879,-0.034556
"2019-10-08 08:47:39.180 +0000",1570524459.179767,-2.407562,-0.945535,0.476655,-0.392080,0.810810,0.434581,0.000000,0.000000,0.000000,-1,0.103378,0.202133,-0.025945,-0.015925,0.035259,-0.037318
"2019-10-08 08:47:39.202 +0000",1570524459.202078,-2.401617,-0.946959,0.478602,-0.393878,0.811643,0.431389,0.000000,0.000000,0.000000,-1,0.069700,0.174022,0.025152,-0.013028,0.033771,-0.046547
"2019-10-08 08:47:39.224 +0000",1570524459.224375,-2.379313,-0.961142,0.494869,-0.395411,0.819846,0.414129,0.000000,0.000000,0.000000,-1,0.062299,0.074570,0.062033,0.009409,0.017358,-0.019446
"2019-10-08 08:47:39.247 +0000",1570524459.246658,-2.378910,-0.962883,0.494084,-0.394591,0.820841,0.412938,0.000000,0.000000,0.000000,-1,0.057204,0.041302,0.048680,0.017760,0.024923,-0.008641
"2019-10-08 08:47:39.269 +0000",1570524459.268964,-2.375683,-0.964343,0.496989,-0.395090,0.821674,0.410798,0.000000,0.000000,0.000000,-1,0.130795,0.047086,-0.054304,0.031107,0.076443,0.001662
"2019-10-08 08:47:39.291 +0000",1570524459.291239,-2.368354,-0.965249,0.503355,-0.397570,0.822191,0.407358,0.000000,0.000000,0.000000,-1,0.139454,0.125655,-0.097177,0.035144,0.025008,-0.046671
"2019-10-08 08:47:39.314 +0000",1570524459.313544,-2.366577,-0.979336,0.502806,-0.390150,0.830127,0.398336,0.000000,0.000000,0.000000,-1,0.059452,0.220520,-0.048364,0.030699,0.005337,-0.031866
"2019-10-08 08:47:39.336 +0000",1570524459.335851,-2.358693,-0.979386,0.506347,-0.393249,0.830155,0.395219,0.000000,0.000000,0.000000,-1,0.084424,0.231487,-0.078224,0.019805,0.013717,-0.008180
"2019-10-08 08:47:39.358 +0000",1570524459.358139,-2.346461,-0.979589,0.514337,-0.397933,0.830268,0.390261,0.000000,0.000000,0.000000,-1,0.185652,0.247158,-0.172601,-0.046204,-0.015113,-0.068484
"2019-10-08 08:47:39.380 +0000",1570524459.380432,-2.335044,-0.979466,0.523513,-0.402436,0.830200,0.385763,0.000000,0.000000,0.000000,-1,0.112896,0.093453,-0.147697,-0.050689,-0.012253,-0.070028
"2019-10-08 08:47:39.403 +0000",1570524459.402736,-2.333300,-0.977767,0.527516,-0.404128,0.829252,0.386034,0.000000,0.000000,0.000000,-1,-0.028872,-0.135293,-0.115954,-0.026658,0.010760,-0.052050
"2019-10-08 08:47:39.425 +0000",1570524459.425011,-2.334678,-0.974665,0.529216,-0.405452,0.827514,0.388368,0.000000,0.000000,0.000000,-1,-0.072847,-0.121857,-0.135941,-0.063466,0.064851,-0.041445
"2019-10-08 08:47:39.447 +0000",1570524459.447317,-2.335511,-0.971956,0.530629,-0.406744,0.825990,0.390257,0.000000,0.000000,0.000000,-1,-0.040006,-0.060160,-0.090575,-0.057612,0.015410,-0.051710
"2019-10-08 08:47:39.470 +0000",1570524459.469624,-2.334687,-0.971183,0.531535,-0.407526,0.825554,0.390363,0.000000,0.000000,0.000000,-1,-0.005734,0.026293,-0.005730,-0.024099,0.007011,-0.033429
"2019-10-08 08:47:39.492 +0000",1570524459.491929,-2.335007,-0.971218,0.529969,-0.407381,0.825573,0.390473,0.000000,0.000000,0.000000,-1,-0.039389,0.048608,0.042438,-0.014143,-0.012265,-0.017167
"2019-10-08 08:47:39.514 +0000",1570524459.514221,-2.336060,-0.971177,0.527280,-0.406993,0.825551,0.390925,0.000000,0.000000,0.000000,-1,-0.048166,0.054755,0.042380,-0.041890,-0.018910,-0.031596
"2019-10-08 08:47:39.537 +0000",1570524459.536510,-2.336519,-0.970664,0.525730,-0.407119,0.825261,0.391406,0.000000,0.000000,0.000000,-1,-0.039589,0.028749,-0.003285,-0.051515,-0.015416,-0.041827
"2019-10-08 08:47:39.559 +0000",1570524459.558816,-2.336520,-0.969844,0.525127,-0.407607,0.824797,0.391875,0.000000,0.000000,0.000000,-1,-0.053481,0.024967,-0.025588,-0.054948,0.004121,-0.052276
"2019-10-08 08:47:39.581 +0000",1570524459.581090,-2.319458,-0.972679,0.537861,-0.412518,0.826397,0.383270,0.000000,0.000000,0.000000,-1,-0.150060,0.027398,-0.033096,-0.007511,0.026233,-0.027084
"2019-10-08 08:47:39.603 +0000",1570524459.603396,-2.322301,-0.969266,0.533510,-0.413485,0.824471,0.386365,0.000000,0.000000,0.000000,-1,-0.196453,0.039689,-0.030744,0.000948,0.035133,-0.028913
"2019-10-08 08:47:39.626 +0000",1570524459.625685,-2.326010,-0.966154,0.528139,-0.413916,0.822705,0.389653,0.000000,0.000000,0.000000,-1,-0.192557,0.033670,0.002805,0.002020,0.013476,-0.044225
"2019-10-08 08:47:39.648 +0000",1570524459.647977,-2.330168,-0.964127,0.522196,-0.413501,0.821552,0.392518,0.000000,0.000000,0.000000,-1,-0.158455,0.037595,0.059850,0.006533,0.023480,-0.045518
"2019-10-08 08:47:39.670 +0000",1570524459.670283,-2.324126,-0.972160,0.524907,-0.411037,0.826105,0.385486,0.000000,0.000000,0.000000,-1,-0.133290,0.002024,0.077568,0.009029,0.014273,-0.046680
"2019-10-08 08:47:39.693 +0000",1570524459.692588,-2.328565,-0.971346,0.519770,-0.409811,0.825646,0.387769,0.000000,0.000000,0.000000,-1,-0.129647,-0.004235,0.049092,0.016149,0.011055,-0.027402
"2019-10-08 08:47:39.715 +0000",1570524459.714865,-2.332390,-0.969579,0.514654,-0.409380,0.824648,0.390339,0.000000,0.000000,0.000000,-1,-0.157312,0.028880,0.026457,-0.002257,0.021239,-0.009815
"2019-10-08 08:47:39.737 +0000",1570524459.737181,-2.336285,-0.967553,0.509111,-0.409060,0.823500,0.393088,0.000000,0.000000,0.000000,-1,-0.159777,0.026462,0.037642,-0.006895,0.020220,-0.011221
"2019-10-08 08:47:39.759 +0000",1570524459.759475,-2.335335,-0.967926,0.507692,-0.409212,0.823712,0.392486,0.000000,0.000000,0.000000,-1,-0.115958,0.054676,0.010122,0.000291,0.004688,-0.015868
"2019-10-08 08:47:39.782 +0000",1570524459.781750,-2.335012,-0.966497,0.505447,-0.410187,0.822901,0.393168,0.000000,0.000000,0.000000,-1,-0.078409,0.117313,-0.020191,0.006470,-0.016764,-0.012491
"2019-10-08 08:47:39.804 +0000",1570524459.804057,-2.333111,-0.964743,0.503701,-0.411978,0.821902,0.393384,0.000000,0.000000,0.000000,-1,-0.090936,0.165268,-0.024343,-0.005259,-0.026584,0.010242
"2019-10-08 08:47:39.826 +0000",1570524459.826362,-2.331415,-0.962633,0.500961,-0.413900,0.820699,0.393879,0.000000,0.000000,0.000000,-1,-0.129793,0.177572,-0.019507,-0.011378,-0.000875,0.007870
"2019-10-08 08:47:39.849 +0000",1570524459.848668,-2.329413,-0.959715,0.498920,-0.416424,0.819028,0.394695,0.000000,0.000000,0.000000,-1,-0.126226,0.162635,-0.065273,-0.015278,0.022937,0.001667
"2019-10-08 08:47:39.871 +0000",1570524459.870944,-2.326402,-0.956253,0.497716,-0.419671,0.817037,0.395381,0.000000,0.000000,0.000000,-1,-0.118824,0.182190,-0.098938,-0.020194,0.003672,0.001103
"2019-10-08 08:47:39.893 +0000",1570524459.893249,-2.319901,-0.950025,0.499587,-0.425951,0.813430,0.396102,0.000000,0.000000,0.000000,-1,-0.101116,0.161445,-0.059067,-0.019636,0.000855,0.000031
"2019-10-08 08:47:39.916 +0000",1570524459.915555,-2.319933,-0.948030,0.496445,-0.427125,0.812268,0.397221,0.000000,0.000000,0.000000,-1,-0.125947,0.080539,0.017314,-0.011794,0.009433,-0.027653
"2019-10-08 08:47:39.938 +0000",1570524459.937829,-2.322132,-0.946584,0.492504,-0.427109,0.811424,0.398960,0.000000,0.000000,0.000000,-1,-0.109700,0.036233,0.010271,-0.000900,0.018868,-0.047901
"2019-10-08 08:47:39.960 +0000",1570524459.960138,-2.322132,-0.944918,0.491038,-0.428097,0.810449,0.399883,0.000000,0.000000,0.000000,-1,-0.057248,0.069229,-0.052027,-0.002918,0.006324,-0.045070
"2019-10-08 08:47:39.982 +0000",1570524459.982441,-2.318264,-0.943221,0.492980,-0.430648,0.809454,0.399158,0.000000,0.000000,0.000000,-1,0.007772,0.126842,-0.112056,-0.003129,-0.002386,-0.045474
"2019-10-08 08:47:40.005 +0000",1570524460.004717,-2.309952,-0.941417,0.498039,-0.435029,0.808393,0.396548,0.000000,0.000000,0.000000,-1,0.057853,0.223894,-0.151353,-0.012419,-0.020002,-0.032611
"2019-10-08 08:47:40.027 +0000",1570524460.027023,-2.301137,-0.939797,0.502599,-0.439483,0.807438,0.393571,0.000000,0.000000,0.000000,-1,0.025373,0.226465,-0.119136,-0.021225,-0.018574,-0.011658
"2019-10-08 08:47:40.049 +0000",1570524460.049324,-2.291719,-0.937456,0.506924,-0.444588,0.806055,0.390661,0.000000,0.000000,0.000000,-1,-0.048415,0.206975,-0.063177,-0.010764,0.028860,-0.003317
"2019-10-08 08:47:40.072 +0000",1570524460.071604,-2.287990,-0.935852,0.505811,-0.447016,0.805105,0.389850,0.000000,0.000000,0.000000,-1,-0.082134,0.209560,-0.027239,-0.001623,0.035014,-0.008166
"2019-10-08 08:47:40.094 +0000",1570524460.093909,-2.285071,-0.934199,0.503723,-0.449157,0.804123,0.389414,0.000000,0.000000,0.000000,-1,-0.087095,0.203464,-0.012301,-0.001740,0.025344,-0.015620
"2019-10-08 08:47:40.116 +0000",1570524460.116215,-2.280428,-0.934803,0.503071,-0.450592,0.804482,0.387009,0.000000,0.000000,0.000000,-1,-0.083202,0.181459,0.021394,0.006195,-0.001152,-0.015671
"2019-10-08 08:47:40.138 +0000",1570524460.138491,-2.279610,-0.934243,0.499798,-0.451250,0.804149,0.386932,0.000000,0.000000,0.000000,-1,-0.081893,0.133566,0.042909,0.005556,-0.014904,-0.009277
"2019-10-08 08:47:40.161 +0000",1570524460.160796,-2.279965,-0.934160,0.496554,-0.451164,0.804100,0.387137,0.000000,0.000000,0.000000,-1,-0.066809,0.080740,0.059511,-0.019753,-0.009971,-0.007437
"2019-10-08 08:47:40.183 +0000",1570524460.183096,-2.268575,-0.930013,0.503507,-0.458095,0.801627,0.384112,0.000000,0.000000,0.000000,-1,-0.063341,0.053557,0.049017,-0.028752,0.001839,-0.009387
"2019-10-08 08:47:40.205 +0000",1570524460.205378,-2.269694,-0.929963,0.500689,-0.457695,0.801598,0.384650,0.000000,0.000000,0.000000,-1,-0.057088,0.047394,0.045353,-0.022102,0.005180,-0.010444
"2019-10-08 08:47:40.228 +0000",1570524460.227684,-2.270902,-0.929898,0.497966,-0.457270,0.801559,0.385236,0.000000,0.000000,0.000000,-1,-0.059596,0.041247,0.046647,-0.002325,0.011124,-0.013807
"2019-10-08 08:47:40.250 +0000",1570524460.249987,-2.274033,-0.931831,0.493479,-0.454879,0.802713,0.385664,0.000000,0.000000,0.000000,-1,-0.074572,0.046227,0.063971,0.011306,0.012732,-0.001463
"2019-10-08 08:47:40.272 +0000",1570524460.272295,-2.276649,-0.933230,0.489067,-0.453014,0.803547,0.386123,0.000000,0.000000,0.000000,-1,-0.078291,0.058560,0.072549,0.007122,0.010144,-0.002395
"2019-10-08 08:47:40.295 +0000",1570524460.294570,-2.278162,-0.933403,0.485209,-0.452324,0.803650,0.386718,0.000000,0.000000,0.000000,-1,-0.069508,0.077006,0.069908,-0.002236,0.006974,-0.004592
"2019-10-08 08:47:40.317 +0000",1570524460.316877,-2.279099,-0.933711,0.481769,-0.451773,0.803833,0.386980,0.000000,0.000000,0.000000,-1,-0.056968,0.080697,0.068640,-0.006388,0.004684,-0.011873
"2019-10-08 08:47:40.339 +0000",1570524460.339181,-2.274742,-0.935133,0.482715,-0.452583,0.804678,0.384268,0.000000,0.000000,0.000000,-1,-0.054475,0.081912,0.062425,-0.005699,0.005732,-0.013007
"2019-10-08 08:47:40.361 +0000",1570524460.361457,-2.272651,-0.936870,0.482069,-0.452318,0.805708,0.382418,0.000000,0.000000,0.000000,-1,-0.059522,0.065900,0.056363,-0.001936,0.005510,-0.010470
"2019-10-08 08:47:40.384 +0000",1570524460.383764,-2.273894,-0.936876,0.478830,-0.451838,0.805711,0.382977,0.000000,0.000000,0.000000,-1,-0.065813,0.058502,0.052705,-0.000707,0.009322,-0.005017
"2019-10-08 08:47:40.406 +0000",1570524460.406066,-2.274964,-0.938436,0.475612,-0.450469,0.806635,0.382646,0.000000,0.000000,0.000000,-1,-0.082106,0.058506,0.055183,0.003906,0.010168,-0.004732
"2019-10-08 08:47:40.428 +0000",1570524460.428344,-2.276589,-0.938140,0.471955,-0.450029,0.806459,0.383532,0.000000,0.000000,0.000000,-1,-0.085882,0.062180,0.051427,0.001466,0.007277,-0.001010
"2019-10-08 08:47:40.451 +0000",1570524460.450646,-2.278002,-0.937368,0.468403,-0.449960,0.806003,0.384572,0.000000,0.000000,0.000000,-1,-0.078336,0.062203,0.056391,-0.008170,0.002148,0.004985
"2019-10-08 08:47:40.473 +0000",1570524460.472955,-2.279549,-0.937195,0.464830,-0.449470,0.805901,0.385359,0.000000,0.000000,0.000000,-1,-0.073330,0.060965,0.053923,-0.011620,0.003914,0.002230
"2019-10-08 08:47:40.495 +0000",1570524460.495231,-2.277888,-0.936449,0.464064,-0.450566,0.805459,0.385002,0.000000,0.000000,0.000000,-1,-0.062048,0.053589,0.052747,-0.014217,0.002158,-0.005974
"2019-10-08 08:47:40.518 +0000",1570524460.517537,-2.279182,-0.936528,0.461109,-0.450019,0.805506,0.385543,0.000000,0.000000,0.000000,-1,-0.057037,0.043750,0.052836,-0.008370,-0.001261,-0.012298
"2019-10-08 08:47:40.540 +0000",1570524460.539844,-2.280722,-0.936518,0.458140,-0.449431,0.805499,0.386241,0.000000,0.000000,0.000000,-1,-0.060823,0.031433,0.049222,-0.006852,-0.000156,-0.011089
"2019-10-08 08:47:40.562 +0000",1570524460.562122,-2.280806,-0.937241,0.456625,-0.448957,0.805928,0.385899,0.000000,0.000000,0.000000,-1,-0.053323,0.024035,0.043089,-0.000460,0.004589,-0.005421
"2019-10-08 08:47:40.584 +0000",1570524460.584424,-2.281716,-0.937397,0.454722,-0.448510,0.806020,0.386226,0.000000,0.000000,0.000000,-1,-0.047121,0.016595,0.027031,-0.001136,0.003871,-0.006129
"2019-10-08 08:47:40.607 +0000",1570524460.606730,-2.282732,-0.937080,0.452901,-0.448311,0.805832,0.386848,0.000000,0.000000,0.000000,-1,-0.044663,0.022694,0.013332,-0.002891,0.005096,-0.002479
"2019-10-08 08:47:40.629 +0000",1570524460.629029,-2.283423,-0.936518,0.451343,-0.448386,0.805500,0.387453,0.000000,0.000000,0.000000,-1,-0.038394,0.027613,0.012050,-0.002023,0.003903,0.004804
"2019-10-08 08:47:40.651 +0000",1570524460.651312,-2.283911,-0.936135,0.450087,-0.448430,0.805273,0.387874,0.000000,0.000000,0.000000,-1,-0.027107,0.025157,0.012076,-0.004176,0.004450,0.005071
"2019-10-08 08:47:40.674 +0000",1570524460.673618,-2.284224,-0.936181,0.449001,-0.448281,0.805300,0.387990,0.000000,0.000000,0.000000,-1,-0.013268,0.026431,0.021995,-0.002143,0.005354,0.005275
"2019-10-08 08:47:40.696 +0000",1570524460.695923,-2.284346,-0.936502,0.447920,-0.448038,0.805490,0.387875,0.000000,0.000000,0.000000,-1,-0.005719,0.031374,0.026916,-0.001577,0.005346,0.001117
"2019-10-08 08:47:40.718 +0000",1570524460.718198,-2.284042,-0.936900,0.447443,-0.447914,0.805726,0.387529,0.000000,0.000000,0.000000,-1,-0.002000,0.032563,0.015743,0.000938,0.001937,-0.000216
"2019-10-08 08:47:40.741 +0000",1570524460.740504,-2.283586,-0.937095,0.447167,-0.447971,0.805842,0.387222,0.000000,0.000000,0.000000,-1,0.001728,0.032531,0.007061,-0.001614,0.001379,0.000366
"2019-10-08 08:47:40.763 +0000",1570524460.762790,-2.283100,-0.937236,0.447032,-0.448074,0.805925,0.386930,0.000000,0.000000,0.000000,-1,0.000468,0.023920,0.007137,-0.002976,0.002379,-0.001539
"2019-10-08 08:47:40.785 +0000",1570524460.785082,-2.281628,-0.937484,0.447744,-0.448491,0.806072,0.386140,0.000000,0.000000,0.000000,-1,-0.002054,0.031282,0.002108,-0.002238,0.003239,-0.001863
"2019-10-08 08:47:40.807 +0000",1570524460.807391,-2.280941,-0.937518,0.447919,-0.448735,0.806092,0.385814,0.000000,0.000000,0.000000,-1,0.009202,0.020192,-0.003992,-0.003001,0.003570,-0.003535
"2019-10-08 08:47:40.830 +0000",1570524460.829697,-2.280387,-0.937492,0.448150,-0.448965,0.806076,0.385579,0.000000,0.000000,0.000000,-1,0.004172,0.016490,-0.006442,-0.004480,0.002960,-0.005223
"2019-10-08 08:47:40.852 +0000",1570524460.851973,-2.279771,-0.937490,0.448500,-0.449204,0.806075,0.385303,0.000000,0.000000,0.000000,-1,0.009199,0.015271,-0.003948,-0.004043,0.005143,-0.002613
"2019-10-08 08:47:40.874 +0000",1570524460.874275,-2.278326,-0.937939,0.449606,-0.449485,0.806341,0.384418,0.000000,0.000000,0.000000,-1,0.010436,0.009108,-0.007614,-0.001702,0.005121,-0.001163
"2019-10-08 08:47:40.897 +0000",1570524460.896585,-2.277666,-0.937926,0.450096,-0.449746,0.806333,0.384128,0.000000,0.000000,0.000000,-1,0.010441,0.016489,-0.007680,-0.002631,0.004137,-0.001865
"2019-10-08 08:47:40.919 +0000",1570524460.918860,-2.277024,-0.938031,0.450495,-0.449929,0.806395,0.383785,0.000000,0.000000,0.000000,-1,0.014224,0.015280,-0.002705,-0.001365,0.003175,0.000324
"2019-10-08 08:47:40.941 +0000",1570524460.941165,-2.276345,-0.938254,0.450965,-0.450052,0.806527,0.383363,0.000000,0.000000,0.000000,-1,0.005435,0.009121,-0.003895,0.000330,0.001106,-0.001939
"2019-10-08 08:47:40.963 +0000",1570524460.963472,-2.275809,-0.938322,0.451276,-0.450216,0.806567,0.383086,0.000000,0.000000,0.000000,-1,0.009205,0.012818,-0.002685,-0.001155,0.002454,0.000764
"2019-10-08 08:47:40.986 +0000",1570524460.985747,-2.275166,-0.938318,0.451659,-0.450465,0.806565,0.382798,0.000000,0.000000,0.000000,-1,0.010438,0.017715,-0.008931,0.000925,0.003768,-0.001649
"2019-10-08 08:47:41.008 +0000",1570524461.008055,-2.274141,-0.938427,0.452286,-0.450790,0.806629,0.382280,0.000000,0.000000,0.000000,-1,0.007942,0.021414,-0.006484,-0.002457,0.004009,0.001128
"2019-10-08 08:47:41.030 +0000",1570524461.030360,-2.273319,-0.938423,0.452730,-0.451106,0.806627,0.381911,0.000000,0.000000,0.000000,-1,0.010431,0.021396,-0.011445,-0.002202,0.004973,0.000154
"2019-10-08 08:47:41.053 +0000",1570524461.052665,-2.272608,-0.938321,0.452959,-0.451440,0.806567,0.381644,0.000000,0.000000,0.000000,-1,-0.000840,0.026326,-0.007772,-0.004172,0.005109,-0.000647
"2019-10-08 08:47:41.075 +0000",1570524461.074940,-2.271905,-0.938178,0.452967,-0.451797,0.806482,0.381400,0.000000,0.000000,0.000000,-1,-0.004579,0.041100,-0.004183,-0.003129,0.005316,-0.001929
"2019-10-08 08:47:41.097 +0000",1570524461.097247,-2.270588,-0.938242,0.453526,-0.452259,0.806520,0.380772,0.000000,0.000000,0.000000,-1,-0.009598,0.018967,-0.001508,-0.003353,0.004515,-0.003361
"2019-10-08 08:47:41.120 +0000",1570524461.119552,-2.270420,-0.938212,0.453405,-0.452342,0.806502,0.380711,0.000000,0.000000,0.000000,-1,-0.000815,0.007910,0.001075,-0.000051,0.004777,-0.003209
"2019-10-08 08:47:41.142 +0000",1570524461.141829,-2.270210,-0.938233,0.453259,-0.452409,0.806514,0.380606,0.000000,0.000000,0.000000,-1,-0.004567,0.016524,0.002238,-0.003264,0.001698,-0.002615
"2019-10-08 08:47:41.164 +0000",1570524461.164147,-2.269952,-0.937844,0.453023,-0.452747,0.806285,0.380690,0.000000,0.000000,0.000000,-1,-0.009569,0.018997,0.005934,-0.005581,0.005040,0.005067
"2019-10-08 08:47:41.186 +0000",1570524461.186440,-2.269340,-0.937907,0.452926,-0.452941,0.806322,0.380381,0.000000,0.000000,0.000000,-1,-0.007239,0.022588,0.007500,-0.004548,0.007078,0.001852
"2019-10-08 08:47:41.209 +0000",1570524461.208716,-2.269288,-0.938084,0.452458,-0.452852,0.806426,0.380265,0.000000,0.000000,0.000000,-1,-0.003438,0.018937,0.017458,-0.001540,0.002823,0.001265
"2019-10-08 08:47:41.231 +0000",1570524461.231004,-2.269338,-0.938406,0.451860,-0.452634,0.806617,0.380121,0.000000,0.000000,0.000000,-1,-0.007153,0.014064,0.029905,-0.002628,0.005502,0.000952
"2019-10-08 08:47:41.253 +0000",1570524461.253327,-2.269338,-0.938769,0.451115,-0.452410,0.806831,0.379933,0.000000,0.000000,0.000000,-1,-0.004633,0.023910,0.031059,-0.005796,0.003624,0.003734
"2019-10-08 08:47:41.276 +0000",1570524461.275608,-2.269227,-0.939077,0.450580,-0.452261,0.807013,0.379723,0.000000,0.000000,0.000000,-1,-0.003442,0.018933,0.016217,-0.004267,0.004678,0.001320
"2019-10-08 08:47:41.298 +0000",1570524461.297910,-2.269116,-0.939254,0.450220,-0.452194,0.807118,0.379581,0.000000,0.000000,0.000000,-1,-0.002218,0.018905,0.008775,-0.000275,0.004574,0.000256
"2019-10-08 08:47:41.320 +0000",1570524461.320208,-2.268680,-0.939591,0.450075,-0.452151,0.807317,0.379209,0.000000,0.000000,0.000000,-1,-0.002225,0.023816,0.006251,-0.000303,0.004664,-0.000455
"2019-10-08 08:47:41.342 +0000",1570524461.342492,-2.268122,-0.939619,0.449879,-0.452345,0.807334,0.378942,0.000000,0.000000,0.000000,-1,0.000295,0.039809,0.006110,0.000440,0.006006,0.001552
"2019-10-08 08:47:41.365 +0000",1570524461.364797,-2.266885,-0.939941,0.449886,-0.452614,0.807523,0.378215,0.000000,0.000000,0.000000,-1,0.019165,0.070603,0.014528,0.001625,0.006762,0.004659
"2019-10-08 08:47:41.387 +0000",1570524461.387102,-2.266164,-0.940453,0.449035,-0.452569,0.807825,0.377624,0.000000,0.000000,0.000000,-1,0.024165,0.085342,0.008198,0.001687,0.004187,0.004853
"2019-10-08 08:47:41.409 +0000",1570524461.409378,-2.263864,-0.941041,0.449324,-0.453071,0.808172,0.376278,0.000000,0.000000,0.000000,-1,0.034218,0.113638,0.007952,0.000709,0.004939,0.007221
"2019-10-08 08:47:41.432 +0000",1570524461.431684,-2.260163,-0.941766,0.450112,-0.454008,0.808598,0.374226,0.000000,0.000000,0.000000,-1,0.036772,0.153022,0.012565,0.000929,0.006877,0.009838
"2019-10-08 08:47:41.454 +0000",1570524461.453965,-2.256693,-0.942446,0.450024,-0.454878,0.808998,0.372300,0.000000,0.000000,0.000000,-1,0.035559,0.187483,0.017222,-0.000230,0.004554,0.007018
"2019-10-08 08:47:41.476 +0000",1570524461.476293,-2.251832,-0.943218,0.450406,-0.456198,0.809452,0.369691,0.000000,0.000000,0.000000,-1,0.024317,0.212109,0.024442,-0.003580,-0.000538,0.006438
"2019-10-08 08:47:41.499 +0000",1570524461.498572,-2.247168,-0.944013,0.450195,-0.457415,0.809919,0.367156,0.000000,0.000000,0.000000,-1,0.014341,0.218308,0.038028,-0.003706,0.002536,0.003327
"2019-10-08 08:47:41.521 +0000",1570524461.520877,-2.243532,-0.944792,0.449282,-0.458253,0.810375,0.365098,0.000000,0.000000,0.000000,-1,-0.001960,0.180196,0.045803,-0.005889,-0.001339,0.001968
"2019-10-08 08:47:41.543 +0000",1570524461.543182,-2.239548,-0.945642,0.449038,-0.459163,0.810873,0.362842,0.000000,0.000000,0.000000,-1,-0.001959,0.155610,0.049742,-0.004795,0.004084,0.000867
"2019-10-08 08:47:41.565 +0000",1570524461.565458,-2.237264,-0.946412,0.447904,-0.459500,0.811323,0.361406,0.000000,0.000000,0.000000,-1,-0.003236,0.135918,0.047435,-0.005329,0.002993,0.000730
"2019-10-08 08:47:41.588 +0000",1570524461.587764,-2.235829,-0.947162,0.446278,-0.459539,0.811761,0.360371,0.000000,0.000000,0.000000,-1,-0.014623,0.113683,0.056570,-0.006541,0.001349,-0.001210
"2019-10-08 08:47:41.610 +0000",1570524461.610065,-2.233238,-0.948048,0.446262,-0.459904,0.812279,0.358737,0.000000,0.000000,0.000000,-1,-0.012160,0.063237,0.053296,-0.004192,0.003319,-0.005694
"2019-10-08 08:47:41.632 +0000",1570524461.632338,-2.233247,-0.948764,0.445031,-0.459442,0.812696,0.358383,0.000000,0.000000,0.000000,-1,-0.003432,0.044751,0.043539,-0.001282,0.001147,-0.002639
"2019-10-08 08:47:41.655 +0000",1570524461.654646,-2.233038,-0.949132,0.444095,-0.459281,0.812910,0.358103,0.000000,0.000000,0.000000,-1,-0.009802,0.040967,0.020000,-0.004403,-0.000441,0.003103
"2019-10-08 08:47:41.677 +0000",1570524461.676939,-2.232677,-0.949101,0.443209,-0.459430,0.812892,0.357952,0.000000,0.000000,0.000000,-1,-0.004753,0.052064,0.026105,-0.006711,0.004475,0.007404
"2019-10-08 08:47:41.699 +0000",1570524461.699250,-2.232475,-0.949303,0.442193,-0.459373,0.813010,0.357759,0.000000,0.000000,0.000000,-1,-0.004745,0.049613,0.028608,0.000419,0.003015,0.002517
"2019-10-08 08:47:41.722 +0000",1570524461.721539,-2.232052,-0.949562,0.441234,-0.459358,0.813161,0.357435,0.000000,0.000000,0.000000,-1,-0.012295,0.059422,0.021074,0.002525,0.005794,0.001910
"2019-10-08 08:47:41.744 +0000",1570524461.743845,-2.231193,-0.949676,0.440577,-0.459592,0.813227,0.356984,0.000000,0.000000,0.000000,-1,-0.009829,0.063070,0.009878,0.001523,0.003683,0.003230
"2019-10-08 08:47:41.766 +0000",1570524461.766122,-2.231111,-0.949825,0.439498,-0.459525,0.813314,0.356872,0.000000,0.000000,0.000000,-1,-0.006033,0.050586,0.016286,-0.000329,0.005534,0.002824
"2019-10-08 08:47:41.788 +0000",1570524461.788426,-2.230677,-0.949959,0.438737,-0.459594,0.813392,0.356605,0.000000,0.000000,0.000000,-1,-0.007297,0.044430,0.015100,0.002135,0.005242,0.005348
"2019-10-08 08:47:41.811 +0000",1570524461.810732,-2.230340,-0.950259,0.438037,-0.459521,0.813566,0.356301,0.000000,0.000000,0.000000,-1,0.003999,0.046900,0.016323,-0.000180,0.003054,0.003486
"2019-10-08 08:47:41.833 +0000",1570524461.833014,-2.228937,-0.950180,0.438219,-0.460072,0.813520,0.355695,0.000000,0.000000,0.000000,-1,0.008990,0.053024,0.008827,-0.005856,-0.001585,-0.000592
"2019-10-08 08:47:41.855 +0000",1570524461.855314,-2.227838,-0.950429,0.438369,-0.460302,0.813665,0.355066,0.000000,0.000000,0.000000,-1,0.006449,0.035782,0.004017,-0.005335,0.000941,-0.002115
"2019-10-08 08:47:41.878 +0000",1570524461.877619,-2.227249,-0.950583,0.438416,-0.460412,0.813755,0.354718,0.000000,0.000000,0.000000,-1,0.001426,0.018563,0.005408,-0.009117,-0.000186,0.000339
"2019-10-08 08:47:41.900 +0000",1570524461.899905,-2.227044,-0.950752,0.438276,-0.460375,0.813853,0.354540,0.000000,0.000000,0.000000,-1,0.003937,0.014879,0.006682,-0.006712,0.002706,-0.001207
"2019-10-08 08:47:41.922 +0000",1570524461.922192,-2.227167,-0.950333,0.437653,-0.460602,0.813609,0.354804,0.000000,0.000000,0.000000,-1,-0.003556,0.028431,0.012760,-0.005081,0.003621,0.005669
"2019-10-08 08:47:41.945 +0000",1570524461.944507,-2.226968,-0.950615,0.437168,-0.460490,0.813773,0.354573,0.000000,0.000000,0.000000,-1,-0.004781,0.027229,0.020214,-0.006108,0.002526,0.003841
"2019-10-08 08:47:41.967 +0000",1570524461.966815,-2.227129,-0.951116,0.436139,-0.460110,0.814064,0.354398,0.000000,0.000000,0.000000,-1,-0.009711,0.029769,0.041278,-0.007312,0.002693,0.002170
"2019-10-08 08:47:41.989 +0000",1570524461.989089,-2.228176,-0.951641,0.434266,-0.459401,0.814369,0.354618,0.000000,0.000000,0.000000,-1,-0.033557,0.016222,0.040148,-0.003673,0.005669,0.005107
"2019-10-08 08:47:42.011 +0000",1570524462.011395,-2.230328,-0.952078,0.431663,-0.458356,0.814622,0.355388,0.000000,0.000000,0.000000,-1,-0.039801,0.003952,0.048939,-0.001331,0.005065,0.006368
"2019-10-08 08:47:42.034 +0000",1570524462.033702,-2.231974,-0.952465,0.429393,-0.457521,0.814847,0.355948,0.000000,0.000000,0.000000,-1,-0.030969,0.013443,0.046475,-0.001311,0.008762,0.002618
"2019-10-08 08:47:42.056 +0000",1570524462.055969,-2.232633,-0.952900,0.427962,-0.457007,0.815099,0.356032,0.000000,0.000000,0.000000,-1,-0.019752,0.025673,0.026523,0.000799,-0.000524,-0.002318
"2019-10-08 08:47:42.078 +0000",1570524462.078283,-2.232640,-0.953006,0.426931,-0.456935,0.815161,0.355982,0.000000,0.000000,0.000000,-1,-0.019784,0.046542,0.015173,-0.003438,-0.001196,-0.003702
"2019-10-08 08:47:42.101 +0000",1570524462.100585,-2.231660,-0.953191,0.426431,-0.457166,0.815267,0.355442,0.000000,0.000000,0.000000,-1,-0.022291,0.055147,0.013855,-0.000858,0.000635,-0.007541
"2019-10-08 08:47:42.123 +0000",1570524462.122866,-2.231219,-0.953147,0.425388,-0.457351,0.815242,0.355262,0.000000,0.000000,0.000000,-1,-0.022270,0.057627,0.018795,-0.000459,0.000127,-0.008460
"2019-10-08 08:47:42.145 +0000",1570524462.145171,-2.230087,-0.953044,0.424851,-0.457819,0.815182,0.354796,0.000000,0.000000,0.000000,-1,-0.022286,0.062529,0.013789,-0.005057,0.002170,0.001741
"2019-10-08 08:47:42.167 +0000",1570524462.167476,-2.229458,-0.953112,0.423920,-0.457998,0.815221,0.354474,0.000000,0.000000,0.000000,-1,-0.016004,0.062541,0.016272,-0.005350,0.004191,0.004276
"2019-10-08 08:47:42.190 +0000",1570524462.189753,-2.228537,-0.953180,0.423247,-0.458280,0.815261,0.354017,0.000000,0.000000,0.000000,-1,-0.009760,0.067435,0.008788,-0.006228,0.003525,0.003756
"2019-10-08 08:47:42.212 +0000",1570524462.212057,-2.227333,-0.952884,0.422852,-0.458898,0.815089,0.353613,0.000000,0.000000,0.000000,-1,-0.009748,0.062530,0.012553,-0.003794,0.001134,0.003504
"2019-10-08 08:47:42.234 +0000",1570524462.234364,-2.226452,-0.952640,0.422246,-0.459366,0.814948,0.353329,0.000000,0.000000,0.000000,-1,-0.014759,0.057617,0.015074,-0.005660,0.000710,0.003406
"2019-10-08 08:47:42.257 +0000",1570524462.256641,-2.226273,-0.952709,0.421074,-0.459385,0.814988,0.353213,0.000000,0.000000,0.000000,-1,-0.023508,0.051496,0.023809,-0.006679,0.000335,0.003828
"2019-10-08 08:47:42.279 +0000",1570524462.278932,-2.226724,-0.952323,0.419485,-0.459475,0.814764,0.353612,0.000000,0.000000,0.000000,-1,-0.025979,0.041697,0.035059,-0.004270,0.002130,0.005931
"2019-10-08 08:47:42.301 +0000",1570524462.301255,-2.226729,-0.952614,0.418278,-0.459285,0.814933,0.353470,0.000000,0.000000,0.000000,-1,-0.013427,0.046628,0.036261,-0.002369,0.002724,0.006897
"2019-10-08 08:47:42.324 +0000",1570524462.323529,-2.226594,-0.952885,0.417203,-0.459158,0.815090,0.353273,0.000000,0.000000,0.000000,-1,-0.014723,0.044129,0.026358,-0.003168,0.001789,0.001890
"2019-10-08 08:47:42.346 +0000",1570524462.345834,-2.226374,-0.953160,0.416274,-0.459058,0.815250,0.353035,0.000000,0.000000,0.000000,-1,-0.012214,0.045360,0.026348,-0.002444,0.002164,0.003593
"2019-10-08 08:47:42.368 +0000",1570524462.368140,-2.226055,-0.953201,0.415474,-0.459145,0.815273,0.352869,0.000000,0.000000,0.000000,-1,-0.008489,0.041638,0.017698,-0.003639,0.002171,0.003012
"2019-10-08 08:47:42.390 +0000",1570524462.390447,-2.225902,-0.953382,0.414623,-0.459081,0.815378,0.352708,0.000000,0.000000,0.000000,-1,-0.011007,0.035482,0.016511,-0.006449,0.002402,0.004057
"2019-10-08 08:47:42.413 +0000",1570524462.412722,-2.225761,-0.953639,0.413976,-0.458965,0.815527,0.352516,0.000000,0.000000,0.000000,-1,-0.004748,0.030554,0.014077,-0.003300,0.001871,0.003014
"2019-10-08 08:47:42.435 +0000",1570524462.435009,-2.225327,-0.953266,0.413685,-0.459359,0.815311,0.352502,0.000000,0.000000,0.000000,-1,-0.008540,0.025609,0.007915,-0.004325,0.003003,0.002082
"2019-10-08 08:47:42.457 +0000",1570524462.457334,-2.225054,-0.953305,0.413446,-0.459430,0.815333,0.352357,0.000000,0.000000,0.000000,-1,-0.002298,0.018207,0.001781,-0.002072,0.002553,0.002272
"2019-10-08 08:47:42.480 +0000",1570524462.479609,-2.224761,-0.953404,0.413340,-0.459469,0.815391,0.352173,0.000000,0.000000,0.000000,-1,0.002734,0.018223,0.005505,-0.004002,0.001214,0.002716
"2019-10-08 08:47:42.502 +0000",1570524462.501918,-2.224571,-0.953285,0.413084,-0.459613,0.815322,0.352145,0.000000,0.000000,0.000000,-1,-0.001033,0.019447,0.004251,-0.003522,0.002259,0.004270
"2019-10-08 08:47:42.524 +0000",1570524462.524205,-2.224567,-0.952803,0.412724,-0.459926,0.815043,0.352382,0.000000,0.000000,0.000000,-1,0.002722,0.016983,0.003033,-0.003788,0.000540,0.002186
"2019-10-08 08:47:42.546 +0000",1570524462.546496,-2.224205,-0.952899,0.412729,-0.459991,0.815098,0.352168,0.000000,0.000000,0.000000,-1,0.001461,0.015748,0.001803,-0.002487,0.000835,0.002751
"2019-10-08 08:47:42.569 +0000",1570524462.568804,-2.223875,-0.953009,0.412822,-0.460036,0.815162,0.351962,0.000000,0.000000,0.000000,-1,0.006479,0.008374,0.003111,-0.002167,0.004219,0.001447
"2019-10-08 08:47:42.591 +0000",1570524462.591110,-2.223316,-0.953196,0.413228,-0.460112,0.815270,0.351612,0.000000,0.000000,0.000000,-1,0.010248,0.009611,0.004342,-0.004029,0.003852,0.001308
"2019-10-08 08:47:42.613 +0000",1570524462.613385,-2.222908,-0.953409,0.413474,-0.460118,0.815394,0.351319,0.000000,0.000000,0.000000,-1,0.010243,0.009606,0.003102,-0.003399,0.001089,0.007400
"2019-10-08 08:47:42.636 +0000",1570524462.635691,-2.222544,-0.953278,0.413607,-0.460331,0.815318,0.351216,0.000000,0.000000,0.000000,-1,0.008999,0.010846,0.005571,-0.008099,0.005681,0.006343
"2019-10-08 08:47:42.658 +0000",1570524462.657993,-2.221377,-0.953307,0.414369,-0.460721,0.815334,0.350665,0.000000,0.000000,0.000000,-1,0.007754,0.008395,0.008072,-0.004275,0.001545,-0.001635
"2019-10-08 08:47:42.680 +0000",1570524462.680273,-2.221274,-0.953557,0.414324,-0.460595,0.815480,0.350493,0.000000,0.000000,0.000000,-1,0.002748,0.002257,0.011846,-0.001564,-0.000538,0.000764
"2019-10-08 08:47:42.703 +0000",1570524462.702579,-2.221488,-0.953823,0.414016,-0.460347,0.815634,0.350461,0.000000,0.000000,0.000000,-1,-0.000998,0.004730,0.015544,-0.001796,0.002665,0.000003
"2019-10-08 08:47:42.725 +0000",1570524462.724883,-2.221606,-0.954020,0.413693,-0.460178,0.815748,0.350417,0.000000,0.000000,0.000000,-1,0.001501,0.005952,0.013053,0.000171,0.005709,-0.000930
"2019-10-08 08:47:42.747 +0000",1570524462.747181,-2.222157,-0.954481,0.413096,-0.459686,0.816014,0.350443,0.000000,0.000000,0.000000,-1,0.006474,0.008371,0.001870,0.002502,0.004833,0.001409
"2019-10-08 08:47:42.769 +0000",1570524462.769466,-2.221769,-0.954595,0.413259,-0.459747,0.816080,0.350208,0.000000,0.000000,0.000000,-1,0.005215,0.015741,-0.000677,0.000763,0.003134,0.002834
"2019-10-08 08:47:42.792 +0000",1570524462.791773,-2.221380,-0.954617,0.413331,-0.459870,0.816093,0.350018,0.000000,0.000000,0.000000,-1,0.000188,0.016959,-0.003171,0.000626,0.004373,-0.000089
"2019-10-08 08:47:42.814 +0000",1570524462.814048,-2.221161,-0.954962,0.413290,-0.459722,0.816292,0.349748,0.000000,0.000000,0.000000,-1,-0.001068,0.013269,-0.003138,0.000295,0.005470,0.000304
"2019-10-08 08:47:42.836 +0000",1570524462.836354,-2.220834,-0.954950,0.413345,-0.459844,0.816285,0.349603,0.000000,0.000000,0.000000,-1,0.000185,0.012039,-0.003126,-0.000239,0.007354,0.000434
"2019-10-08 08:47:42.859 +0000",1570524462.858660,-2.220450,-0.954926,0.413525,-0.459994,0.816271,0.349438,0.000000,0.000000,0.000000,-1,0.002760,0.015236,-0.004344,-0.001050,0.003141,0.003223
"2019-10-08 08:47:42.881 +0000",1570524462.880947,-2.220126,-0.954437,0.413452,-0.460425,0.815989,0.349530,0.000000,0.000000,0.000000,-1,0.002773,0.028772,-0.003225,-0.005044,0.003592,0.004412
"2019-10-08 08:47:42.903 +0000",1570524462.903242,-2.219094,-0.954465,0.413687,-0.460767,0.816005,0.349041,0.000000,0.000000,0.000000,-1,0.007806,0.037395,-0.000818,-0.000170,0.004155,0.006382
"2019-10-08 08:47:42.926 +0000",1570524462.925550,-2.217904,-0.954584,0.413955,-0.461105,0.816073,0.348434,0.000000,0.000000,0.000000,-1,0.011577,0.049698,-0.000926,-0.002457,0.000745,0.001267
"2019-10-08 08:47:42.948 +0000",1570524462.947852,-2.216855,-0.954521,0.414123,-0.461511,0.816037,0.347981,0.000000,0.000000,0.000000,-1,0.006549,0.032474,-0.000775,-0.002585,0.001773,0.001842
"2019-10-08 08:47:42.970 +0000",1570524462.970130,-2.216264,-0.954421,0.414210,-0.461782,0.815979,0.347758,0.000000,0.000000,0.000000,-1,0.001523,0.020171,-0.000668,-0.002528,0.001633,0.003057
"2019-10-08 08:47:42.992 +0000",1570524462.992437,-2.215957,-0.954499,0.414152,-0.461838,0.816024,0.347577,0.000000,0.000000,0.000000,-1,0.000279,0.012804,0.003118,-0.002686,0.001999,0.001620
"2019-10-08 08:47:43.015 +0000",1570524463.014743,-2.215887,-0.954547,0.413922,-0.461831,0.816052,0.347521,0.000000,0.000000,0.000000,-1,-0.005976,0.006670,0.008132,-0.002875,0.001682,0.000181
"2019-10-08 08:47:43.037 +0000",1570524463.037018,-2.215534,-0.954455,0.413955,-0.462014,0.815999,0.347404,0.000000,0.000000,0.000000,-1,-0.004663,0.009955,0.005589,-0.003150,0.002849,0.001946
"2019-10-08 08:47:43.059 +0000",1570524463.059325,-2.215295,-0.954372,0.413995,-0.462150,0.815951,0.347334,0.000000,0.000000,0.000000,-1,-0.000893,0.005046,0.008114,-0.004372,0.002637,0.001391
"2019-10-08 08:47:43.082 +0000",1570524463.081631,-2.215265,-0.954487,0.413818,-0.462086,0.816017,0.347264,0.000000,0.000000,0.000000,-1,0.001606,0.006267,0.005624,-0.002437,0.001045,0.001750
"2019-10-08 08:47:43.104 +0000",1570524463.103912,-2.215558,-0.954323,0.413424,-0.462091,0.815922,0.347480,0.000000,0.000000,0.000000,-1,0.001597,0.008718,0.003121,-0.001608,0.002849,0.004998
"2019-10-08 08:47:43.126 +0000",1570524463.126213,-2.215395,-0.954378,0.413353,-0.462112,0.815955,0.347377,0.000000,0.000000,0.000000,-1,0.000338,0.008712,0.001880,-0.001648,0.003870,0.003636
"2019-10-08 08:47:43.149 +0000",1570524463.148519,-2.215215,-0.954439,0.413411,-0.462135,0.815990,0.347264,0.000000,0.000000,0.000000,-1,0.001585,0.005018,0.000672,0.000800,0.004750,0.001689
"2019-10-08 08:47:43.171 +0000",1570524463.170794,-2.214902,-0.954471,0.413523,-0.462223,0.816008,0.347104,0.000000,0.000000,0.000000,-1,0.002838,0.011164,-0.000622,-0.000088,0.004686,0.001315
"2019-10-08 08:47:43.193 +0000",1570524463.193100,-2.215027,-0.954621,0.413236,-0.462082,0.816095,0.347088,0.000000,0.000000,0.000000,-1,0.002837,0.009934,-0.000611,-0.001755,0.002967,0.001148
"2019-10-08 08:47:43.215 +0000",1570524463.215407,-2.214872,-0.954626,0.413174,-0.462132,0.816098,0.347014,0.000000,0.000000,0.000000,-1,-0.003346,0.009550,0.000550,-0.000148,0.002185,0.001817
"2019-10-08 08:47:43.238 +0000",1570524463.237683,-2.214771,-0.954676,0.412994,-0.462135,0.816126,0.346943,0.000000,0.000000,0.000000,-1,-0.004590,0.009559,0.003031,-0.000512,0.005819,0.000118
"2019-10-08 08:47:43.260 +0000",1570524463.259988,-2.215128,-0.954456,0.412458,-0.462154,0.815999,0.347215,0.000000,0.000000,0.000000,-1,-0.002076,0.010795,0.004261,-0.001698,0.003031,0.003905
"2019-10-08 08:47:43.282 +0000",1570524463.282296,-2.214935,-0.954513,0.412299,-0.462184,0.816033,0.347098,0.000000,0.000000,0.000000,-1,-0.002073,0.015716,0.004217,-0.002111,0.002693,0.003915
"2019-10-08 08:47:43.305 +0000",1570524463.304570,-2.214561,-0.954573,0.412167,-0.462275,0.816067,0.346896,0.000000,0.000000,0.000000,-1,-0.004583,0.021861,0.002921,-0.002371,0.004902,0.005078
"2019-10-08 08:47:43.327 +0000",1570524463.326874,-2.214282,-0.954695,0.411990,-0.462292,0.816137,0.346708,0.000000,0.000000,0.000000,-1,-0.002057,0.016961,0.007928,-0.000874,0.002634,0.002078
"2019-10-08 08:47:43.349 +0000",1570524463.349166,-2.214173,-0.954635,0.411720,-0.462369,0.816103,0.346686,0.000000,0.000000,0.000000,-1,-0.007083,0.012033,0.006729,-0.002994,0.001875,0.002008
"2019-10-08 08:47:43.371 +0000",1570524463.371489,-2.214470,-0.954643,0.411262,-0.462260,0.816108,0.346820,0.000000,0.000000,0.000000,-1,-0.010859,-0.000274,0.005596,-0.001775,0.003839,0.002317
"2019-10-08 08:47:43.394 +0000",1570524463.393765,-2.214778,-0.954698,0.410914,-0.462118,0.816139,0.346935,0.000000,0.000000,0.000000,-1,-0.006992,0.000472,0.009203,-0.001078,0.005608,0.001392
"2019-10-08 08:47:43.416 +0000",1570524463.416071,-2.214803,-0.954975,0.410885,-0.461928,0.816299,0.346811,0.000000,0.000000,0.000000,-1,0.003007,-0.000788,0.000535,0.001280,0.003586,0.000784
"2019-10-08 08:47:43.438 +0000",1570524463.438355,-2.214781,-0.954972,0.410884,-0.461938,0.816297,0.346802,0.000000,0.000000,0.000000,-1,0.000505,0.002907,0.001742,0.001763,0.001558,0.002654
"2019-10-08 08:47:43.461 +0000",1570524463.460654,-2.214915,-0.954860,0.410605,-0.461964,0.816233,0.346919,0.000000,0.000000,0.000000,-1,-0.003269,0.009041,-0.002036,-0.000728,0.001989,0.003316
"2019-10-08 08:47:43.483 +0000",1570524463.482970,-2.215555,-0.954655,0.409813,-0.461876,0.816114,0.347315,0.000000,0.000000,0.000000,-1,-0.006999,0.015218,0.005351,-0.002098,0.004137,0.006032
"2019-10-08 08:47:43.505 +0000",1570524463.505266,-2.215315,-0.954675,0.409616,-0.461946,0.816126,0.347195,0.000000,0.000000,0.000000,-1,-0.007000,0.020134,0.004067,-0.001097,0.002249,0.006153
"2019-10-08 08:47:43.528 +0000",1570524463.527543,-2.214612,-0.954787,0.409482,-0.462117,0.816190,0.346815,0.000000,0.000000,0.000000,-1,0.001794,0.042280,0.003874,-0.001063,0.004702,0.008242
"2019-10-08 08:47:43.550 +0000",1570524463.549845,-2.213126,-0.954594,0.409524,-0.462758,0.816079,0.346222,0.000000,0.000000,0.000000,-1,0.009346,0.066895,0.006139,-0.005199,-0.001580,0.003265
"2019-10-08 08:47:43.572 +0000",1570524463.572135,-2.211924,-0.954667,0.409413,-0.463126,0.816121,0.345630,0.000000,0.000000,0.000000,-1,0.014433,0.056529,0.003624,-0.000542,0.001094,0.002682
"2019-10-08 08:47:43.594 +0000",1570524463.594435,-2.210494,-0.954915,0.409637,-0.463457,0.816265,0.344847,0.000000,0.000000,0.000000,-1,0.008157,0.050375,0.003676,-0.001249,0.002720,0.004320
"2019-10-08 08:47:43.617 +0000",1570524463.616741,-2.209495,-0.955073,0.409661,-0.463698,0.816356,0.344307,0.000000,0.000000,0.000000,-1,0.003132,0.038072,0.003783,-0.001206,0.000035,0.003700
"2019-10-08 08:47:43.639 +0000",1570524463.639048,-2.209395,-0.955114,0.409172,-0.463706,0.816379,0.344240,0.000000,0.000000,0.000000,-1,-0.000619,0.025788,0.008853,-0.000039,0.001599,0.002958
"2019-10-08 08:47:43.661 +0000",1570524463.661323,-2.209278,-0.955270,0.408896,-0.463644,0.816469,0.344110,0.000000,0.000000,0.000000,-1,-0.001872,0.012266,0.011453,0.000113,0.003248,0.001013
"2019-10-08 08:47:43.684 +0000",1570524463.683630,-2.209284,-0.955338,0.408672,-0.463597,0.816509,0.344080,0.000000,0.000000,0.000000,-1,-0.003151,0.006096,0.006545,-0.003672,0.002202,0.000113
"2019-10-08 08:47:43.706 +0000",1570524463.705933,-2.208806,-0.955651,0.408926,-0.463556,0.816690,0.343706,0.000000,0.000000,0.000000,-1,-0.005680,0.004846,0.001593,-0.002829,0.005637,-0.001314
"2019-10-08 08:47:43.728 +0000",1570524463.728211,-2.208949,-0.955565,0.408718,-0.463564,0.816640,0.343814,0.000000,0.000000,0.000000,-1,-0.006942,-0.000079,0.000396,-0.001753,0.003734,-0.000095
"2019-10-08 08:47:43.751 +0000",1570524463.750517,-2.209249,-0.955515,0.408482,-0.463493,0.816611,0.343977,0.000000,0.000000,0.000000,-1,-0.005608,-0.005382,0.002801,-0.000878,0.003411,0.000047
"2019-10-08 08:47:43.773 +0000",1570524463.772824,-2.209862,-0.955415,0.407969,-0.463347,0.816554,0.344310,0.000000,0.000000,0.000000,-1,-0.009373,-0.000467,0.001516,-0.001237,0.004018,0.004109
"2019-10-08 08:47:43.795 +0000",1570524463.795100,-2.210433,-0.955332,0.407525,-0.463205,0.816506,0.344615,0.000000,0.000000,0.000000,-1,-0.005616,-0.001701,0.000288,0.000009,0.003853,0.004262
"2019-10-08 08:47:43.817 +0000",1570524463.817406,-2.210956,-0.955202,0.407023,-0.463110,0.816431,0.344920,0.000000,0.000000,0.000000,-1,-0.003095,0.002000,0.002737,-0.000711,0.003088,0.005040
"2019-10-08 08:47:43.840 +0000",1570524463.839713,-2.210966,-0.955172,0.406897,-0.463126,0.816413,0.344940,0.000000,0.000000,0.000000,-1,-0.004347,0.005690,0.002704,-0.001107,0.003182,0.003235
"2019-10-08 08:47:43.862 +0000",1570524463.861999,-2.211468,-0.955074,0.406288,-0.463018,0.816356,0.345220,0.000000,0.000000,0.000000,-1,-0.009364,0.006918,0.002691,-0.000407,0.002415,0.002527
"2019-10-08 08:47:43.884 +0000",1570524463.884294,-2.211982,-0.954985,0.405679,-0.462898,0.816305,0.345502,0.000000,0.000000,0.000000,-1,-0.005591,0.008159,0.005163,0.000053,0.001291,0.001788
"2019-10-08 08:47:43.907 +0000",1570524463.906600,-2.212139,-0.954991,0.405357,-0.462840,0.816308,0.345571,0.000000,0.000000,0.000000,-1,-0.003085,0.003239,0.005208,-0.002858,0.001608,0.004007
"2019-10-08 08:47:43.929 +0000",1570524463.928892,-2.212679,-0.954803,0.404737,-0.462776,0.816200,0.345913,0.000000,0.000000,0.000000,-1,-0.011794,0.000289,0.006342,-0.003502,0.001442,0.003162
"2019-10-08 08:47:43.951 +0000",1570524463.951184,-2.212888,-0.954793,0.404347,-0.462710,0.816194,0.346015,0.000000,0.000000,0.000000,-1,-0.006782,0.007662,0.003798,-0.004300,0.002516,0.005960
"2019-10-08 08:47:43.973 +0000",1570524463.973475,-2.212784,-0.954687,0.404171,-0.462816,0.816133,0.346019,0.000000,0.000000,0.000000,-1,0.002022,0.012606,0.008719,-0.005965,0.003508,0.003652
"2019-10-08 08:47:43.996 +0000",1570524463.995796,-2.212581,-0.954878,0.403915,-0.462761,0.816243,0.345831,0.000000,0.000000,0.000000,-1,0.000782,0.018765,0.011145,-0.003990,0.004115,0.004297
"2019-10-08 08:47:44.018 +0000",1570524464.018071,-2.212014,-0.954983,0.404082,-0.462889,0.816304,0.345518,0.000000,0.000000,0.000000,-1,-0.005485,0.010162,0.013700,-0.003832,0.001705,-0.002470
"2019-10-08 08:47:44.040 +0000",1570524464.040377,-2.212245,-0.955189,0.403672,-0.462674,0.816423,0.345524,0.000000,0.000000,0.000000,-1,-0.000468,0.001558,0.015019,-0.000400,0.002440,0.001445
"2019-10-08 08:47:44.063 +0000",1570524464.062684,-2.212502,-0.955438,0.403341,-0.462422,0.816567,0.345521,0.000000,0.000000,0.000000,-1,0.002021,0.002770,0.010047,-0.002620,0.004387,0.000610
"2019-10-08 08:47:44.085 +0000",1570524464.084959,-2.213274,-0.955869,0.402475,-0.461873,0.816815,0.345667,0.000000,0.000000,0.000000,-1,0.000764,0.015061,0.007457,0.003331,0.008029,0.002783
"2019-10-08 08:47:44.107 +0000",1570524464.107265,-2.213330,-0.956016,0.402295,-0.461758,0.816900,0.345621,0.000000,0.000000,0.000000,-1,-0.000478,0.004995,-0.003745,0.002118,0.003306,0.000937
"2019-10-08 08:47:44.130 +0000",1570524464.129566,-2.213158,-0.955922,0.402302,-0.461878,0.816846,0.345587,0.000000,0.000000,0.000000,-1,-0.002978,0.009919,-0.002550,0.002787,0.004809,0.001764
"2019-10-08 08:47:44.152 +0000",1570524464.151847,-2.213431,-0.956214,0.401925,-0.461594,0.817014,0.345570,0.000000,0.000000,0.000000,-1,0.002054,0.009936,0.001175,0.002808,0.006045,0.002986
"2019-10-08 08:47:44.174 +0000",1570524464.174154,-2.213412,-0.956167,0.401779,-0.461631,0.816988,0.345584,0.000000,0.000000,0.000000,-1,0.002040,0.011151,-0.002558,-0.001550,0.003951,0.004635
"2019-10-08 08:47:44.196 +0000",1570524464.196460,-2.213124,-0.956159,0.401844,-0.461736,0.816983,0.345456,0.000000,0.000000,0.000000,-1,0.000791,0.011156,-0.001318,-0.001048,0.003467,0.006244
"2019-10-08 08:47:44.219 +0000",1570524464.218736,-2.212419,-0.956212,0.402040,-0.461944,0.817013,0.345104,0.000000,0.000000,0.000000,-1,0.008344,0.037001,0.000937,-0.005631,0.005191,0.007069
"2019-10-08 08:47:44.241 +0000",1570524464.241042,-2.212110,-0.955816,0.401725,-0.462310,0.816785,0.345155,0.000000,0.000000,0.000000,-1,0.005811,0.033290,-0.003993,-0.004929,0.002856,0.006026
"2019-10-08 08:47:44.263 +0000",1570524464.263349,-2.211337,-0.955829,0.401988,-0.462568,0.816792,0.344791,0.000000,0.000000,0.000000,-1,0.007048,0.020980,-0.006365,-0.002153,0.001506,0.001583
"2019-10-08 08:47:44.286 +0000",1570524464.285625,-2.210978,-0.955860,0.402035,-0.462672,0.816810,0.344610,0.000000,0.000000,0.000000,-1,0.000862,0.011933,0.002279,-0.001867,0.000695,-0.000586
"2019-10-08 08:47:44.308 +0000",1570524464.307928,-2.210797,-0.955684,0.402036,-0.462849,0.816709,0.344612,0.000000,0.000000,0.000000,-1,-0.004157,0.002095,0.003604,-0.003734,0.002505,0.001473
"2019-10-08 08:47:44.330 +0000",1570524464.330237,-2.210950,-0.955695,0.401866,-0.462789,0.816715,0.344678,0.000000,0.000000,0.000000,-1,-0.005419,-0.002831,0.002407,-0.003901,0.003338,0.000507
"2019-10-08 08:47:44.353 +0000",1570524464.352513,-2.211056,-0.955667,0.401747,-0.462771,0.816699,0.344740,0.000000,0.000000,0.000000,-1,-0.002924,-0.000384,-0.001336,-0.005460,0.003553,0.003069
"2019-10-08 08:47:44.375 +0000",1570524464.374830,-2.210726,-0.955599,0.402048,-0.462929,0.816660,0.344621,0.000000,0.000000,0.000000,-1,0.002105,0.002089,0.001126,-0.004157,0.003866,0.000548
"2019-10-08 08:47:44.397 +0000",1570524464.397130,-2.210452,-0.955230,0.402265,-0.463266,0.816447,0.344674,0.000000,0.000000,0.000000,-1,0.002106,0.003319,0.001114,-0.002387,0.000829,0.002738
"2019-10-08 08:47:44.419 +0000",1570524464.419432,-2.210450,-0.955280,0.402227,-0.463234,0.816475,0.344648,0.000000,0.000000,0.000000,-1,0.003374,0.002104,0.004847,-0.003609,0.003135,0.001787
"2019-10-08 08:47:44.442 +0000",1570524464.441709,-2.210555,-0.955351,0.402117,-0.463151,0.816516,0.344663,0.000000,0.000000,0.000000,-1,-0.000391,-0.001588,0.004878,-0.002883,0.001294,0.004397
"2019-10-08 08:47:44.464 +0000",1570524464.464014,-2.210931,-0.955265,0.401771,-0.463077,0.816467,0.344879,0.000000,0.000000,0.000000,-1,-0.001599,-0.003035,0.003535,-0.002697,0.004059,0.003174
"2019-10-08 08:47:44.486 +0000",1570524464.486297,-2.211083,-0.955256,0.401584,-0.463031,0.816462,0.344953,0.000000,0.000000,0.000000,-1,-0.005357,-0.001801,0.004763,-0.000455,0.004370,0.001314
"2019-10-08 08:47:44.509 +0000",1570524464.508597,-2.211464,-0.955386,0.401223,-0.462815,0.816536,0.345066,0.000000,0.000000,0.000000,-1,0.002167,0.001887,0.003493,0.001328,0.003913,0.002971
"2019-10-08 08:47:44.531 +0000",1570524464.530904,-2.211566,-0.955479,0.401120,-0.462718,0.816590,0.345068,0.000000,0.000000,0.000000,-1,0.003401,0.001869,-0.001469,-0.001057,0.003554,0.003397
"2019-10-08 08:47:44.553 +0000",1570524464.553208,-2.211518,-0.955492,0.401086,-0.462727,0.816598,0.345039,0.000000,0.000000,0.000000,-1,-0.001611,0.003102,-0.000241,-0.000774,0.003532,0.003105
"2019-10-08 08:47:44.575 +0000",1570524464.575485,-2.211595,-0.955472,0.400974,-0.462713,0.816586,0.345085,0.000000,0.000000,0.000000,-1,-0.005367,-0.001811,0.002282,0.000555,0.002917,0.003319
"2019-10-08 08:47:44.598 +0000",1570524464.597799,-2.211624,-0.955409,0.400953,-0.462744,0.816550,0.345129,0.000000,0.000000,0.000000,-1,-0.004117,-0.001815,0.001042,-0.002649,0.002832,0.000284
"2019-10-08 08:47:44.620 +0000",1570524464.620096,-2.211815,-0.955362,0.400783,-0.462709,0.816523,0.345240,0.000000,0.000000,0.000000,-1,-0.006602,-0.004252,0.007265,-0.003050,0.002447,0.002828
"2019-10-08 08:47:44.642 +0000",1570524464.642373,-2.212150,-0.955361,0.400437,-0.462594,0.816522,0.345396,0.000000,0.000000,0.000000,-1,-0.006560,0.000158,0.003383,-0.003913,0.002402,0.005587
"2019-10-08 08:47:44.665 +0000",1570524464.664680,-2.212221,-0.955342,0.400236,-0.462582,0.816511,0.345438,0.000000,0.000000,0.000000,-1,-0.001542,0.008766,0.002068,-0.005893,0.004396,0.005895
"2019-10-08 08:47:44.687 +0000",1570524464.686985,-2.211892,-0.955130,0.400403,-0.462834,0.816389,0.345389,0.000000,0.000000,0.000000,-1,0.002214,0.005073,0.000862,-0.003459,0.003741,0.001336
"2019-10-08 08:47:44.709 +0000",1570524464.709261,-2.211981,-0.955149,0.400349,-0.462791,0.816400,0.345421,0.000000,0.000000,0.000000,-1,-0.004065,-0.006000,0.000957,-0.002084,0.002905,0.001182
"2019-10-08 08:47:44.732 +0000",1570524464.731567,-2.212393,-0.955224,0.400117,-0.462600,0.816443,0.345575,0.000000,0.000000,0.000000,-1,-0.005302,-0.010902,0.005962,-0.002702,0.002801,0.003424
"2019-10-08 08:47:44.754 +0000",1570524464.753872,-2.212874,-0.955178,0.399813,-0.462463,0.816417,0.345820,0.000000,0.000000,0.000000,-1,-0.006570,-0.008457,0.002218,-0.002121,0.002767,0.001012
"2019-10-08 08:47:44.776 +0000",1570524464.776151,-2.213070,-0.955118,0.399771,-0.462435,0.816382,0.345940,0.000000,0.000000,0.000000,-1,0.002186,-0.007247,-0.003991,0.000094,0.001138,0.001228
"2019-10-08 08:47:44.798 +0000",1570524464.798457,-2.213037,-0.955118,0.399832,-0.462446,0.816382,0.345925,0.000000,0.000000,0.000000,-1,0.002208,0.003839,-0.000368,0.003615,0.003153,0.003455
"2019-10-08 08:47:44.821 +0000",1570524464.820762,-2.213171,-0.954988,0.399616,-0.462485,0.816307,0.346050,0.000000,0.000000,0.000000,-1,-0.000258,0.005887,-0.001732,-0.001901,0.003884,0.004185
"2019-10-08 08:47:44.843 +0000",1570524464.843039,-2.213117,-0.954909,0.399542,-0.462555,0.816261,0.346064,0.000000,0.000000,0.000000,-1,0.002271,0.005907,0.003231,-0.003632,0.003700,0.003835
"2019-10-08 08:47:44.865 +0000",1570524464.865346,-2.212893,-0.954960,0.399631,-0.462600,0.816291,0.345935,0.000000,0.000000,0.000000,-1,0.002250,0.005888,-0.001731,-0.003099,0.004510,0.004361
"2019-10-08 08:47:44.888 +0000",1570524464.887651,-2.212689,-0.954981,0.399653,-0.462657,0.816303,0.345831,0.000000,0.000000,0.000000,-1,0.002259,0.012043,-0.000545,-0.001974,0.003354,0.004099
"2019-10-08 08:47:44.910 +0000",1570524464.909930,-2.212585,-0.955014,0.399603,-0.462670,0.816322,0.345766,0.000000,0.000000,0.000000,-1,0.006023,0.013275,-0.000554,-0.001761,0.003365,0.002988
"2019-10-08 08:47:44.932 +0000",1570524464.932234,-2.212436,-0.954943,0.399577,-0.462769,0.816281,0.345732,0.000000,0.000000,0.000000,-1,0.003503,0.012034,-0.003025,-0.001450,0.001804,0.004762
"2019-10-08 08:47:44.955 +0000",1570524464.954540,-2.212008,-0.955001,0.399687,-0.462879,0.816314,0.345506,0.000000,0.000000,0.000000,-1,0.001002,0.015728,-0.001818,-0.001904,0.002762,0.001997
"2019-10-08 08:47:44.977 +0000",1570524464.976820,-2.211442,-0.955146,0.400019,-0.462979,0.816398,0.345173,0.000000,0.000000,0.000000,-1,-0.001503,0.004666,0.000760,-0.002613,0.003777,-0.000157
"2019-10-08 08:47:44.999 +0000",1570524464.999123,-2.211523,-0.955188,0.399849,-0.462924,0.816423,0.345190,0.000000,0.000000,0.000000,-1,-0.003951,-0.000677,0.004414,-0.000455,0.003463,0.003870
"2019-10-08 08:47:45.021 +0000",1570524465.021434,-2.211511,-0.955113,0.399804,-0.462977,0.816379,0.345221,0.000000,0.000000,0.000000,-1,-0.002716,0.000535,-0.000558,-0.003118,0.003125,0.000986
"2019-10-08 08:47:45.044 +0000",1570524465.043735,-2.211593,-0.955125,0.399688,-0.462941,0.816386,0.345253,0.000000,0.000000,0.000000,-1,-0.000191,0.001780,0.003154,-0.002773,0.001577,0.002205
"2019-10-08 08:47:45.066 +0000",1570524465.066011,-2.211133,-0.955095,0.399978,-0.463119,0.816369,0.345055,0.000000,0.000000,0.000000,-1,-0.003959,0.003004,0.001900,-0.004578,0.002845,-0.000527
"2019-10-08 08:47:45.088 +0000",1570524465.088317,-2.211092,-0.955224,0.399954,-0.463049,0.816443,0.344973,0.000000,0.000000,0.000000,-1,0.006092,0.004253,0.005615,-0.001261,0.003320,0.002821
"2019-10-08 08:47:45.111 +0000",1570524465.110623,-2.211070,-0.955299,0.399924,-0.463008,0.816486,0.344926,0.000000,0.000000,0.000000,-1,-0.001430,0.001794,0.006874,-0.001043,0.002636,0.003752
"2019-10-08 08:47:45.133 +0000",1570524465.132913,-2.211694,-0.955376,0.399424,-0.462742,0.816531,0.345178,0.000000,0.000000,0.000000,-1,0.002311,0.000547,0.001925,0.000385,0.004392,0.004630
"2019-10-08 08:47:45.155 +0000",1570524465.155206,-2.211758,-0.955370,0.399406,-0.462723,0.816527,0.345210,0.000000,0.000000,0.000000,-1,-0.002719,-0.003155,-0.000525,0.000077,0.003434,0.002705
"2019-10-08 08:47:45.178 +0000",1570524465.177512,-2.211916,-0.955366,0.399237,-0.462671,0.816525,0.345285,0.000000,0.000000,0.000000,-1,-0.002679,-0.002148,-0.000627,-0.000280,0.003513,0.003775
"2019-10-08 08:47:45.200 +0000",1570524465.199800,-2.212217,-0.955406,0.399023,-0.462541,0.816548,0.345405,0.000000,0.000000,0.000000,-1,0.002344,-0.000911,0.000605,-0.000609,0.004420,0.003823
"2019-10-08 08:47:45.222 +0000",1570524465.222095,-2.212776,-0.955462,0.398525,-0.462312,0.816580,0.345636,0.000000,0.000000,0.000000,-1,0.007345,0.005222,-0.004409,-0.000060,0.004098,0.004553
"2019-10-08 08:47:45.244 +0000",1570524465.244401,-2.212396,-0.955556,0.398789,-0.462381,0.816635,0.345415,0.000000,0.000000,0.000000,-1,0.004858,0.007700,0.000530,-0.002264,0.004258,0.001036
"2019-10-08 08:47:45.267 +0000",1570524465.266678,-2.212033,-0.955541,0.399041,-0.462516,0.816626,0.345254,0.000000,0.000000,0.000000,-1,0.002333,0.005225,-0.003171,-0.001488,0.003106,0.003196
"2019-10-08 08:47:45.289 +0000",1570524465.288983,-2.211819,-0.955487,0.399128,-0.462626,0.816595,0.345181,0.000000,0.000000,0.000000,-1,-0.005171,0.000325,0.003072,-0.003240,0.002772,-0.000302
"2019-10-08 08:47:45.311 +0000",1570524465.311290,-2.211829,-0.955518,0.399140,-0.462602,0.816613,0.345171,0.000000,0.000000,0.000000,-1,0.001109,-0.002122,0.005577,-0.003203,0.004127,-0.000078
"2019-10-08 08:47:45.334 +0000",1570524465.333565,-2.211850,-0.955641,0.399134,-0.462515,0.816684,0.345120,0.000000,0.000000,0.000000,-1,-0.000161,-0.003367,0.001866,-0.003244,0.004926,0.000659
"2019-10-08 08:47:45.356 +0000",1570524465.355865,-2.212095,-0.955167,0.398900,-0.462740,0.816410,0.345465,0.000000,0.000000,0.000000,-1,0.006154,0.002419,0.001722,-0.005430,0.003353,0.005121
"2019-10-08 08:47:45.378 +0000",1570524465.378180,-2.211750,-0.955219,0.399114,-0.462825,0.816440,0.345280,0.000000,0.000000,0.000000,-1,0.004885,0.011010,-0.003317,-0.003362,0.005123,0.004482
"2019-10-08 08:47:45.400 +0000",1570524465.400455,-2.211437,-0.955222,0.399331,-0.462931,0.816442,0.345134,0.000000,0.000000,0.000000,-1,0.003631,0.004863,-0.002023,-0.002324,0.005244,0.000981
"2019-10-08 08:47:45.423 +0000",1570524465.422761,-2.211575,-0.955296,0.399289,-0.462835,0.816485,0.345161,0.000000,0.000000,0.000000,-1,-0.001365,-0.009871,0.005549,-0.000926,0.002088,-0.000297
"2019-10-08 08:47:45.445 +0000",1570524465.445068,-2.212123,-0.955392,0.398925,-0.462583,0.816540,0.345368,0.000000,0.000000,0.000000,-1,-0.007629,-0.013554,0.008060,-0.001269,0.004978,0.002364
"2019-10-08 08:47:45.467 +0000",1570524465.467343,-2.212622,-0.955415,0.398618,-0.462396,0.816553,0.345588,0.000000,0.000000,0.000000,-1,-0.005131,-0.013563,0.005580,-0.003699,0.004904,0.002862
"2019-10-08 08:47:45.490 +0000",1570524465.489650,-2.212771,-0.955434,0.398587,-0.462332,0.816564,0.345648,0.000000,0.000000,0.000000,-1,0.006141,-0.001281,-0.000727,0.000768,0.004374,0.001185
"2019-10-08 08:47:45.512 +0000",1570524465.511956,-2.213268,-0.955477,0.398130,-0.462132,0.816589,0.345856,0.000000,0.000000,0.000000,-1,0.002367,0.004854,-0.004504,0.000172,0.003311,0.003296
"2019-10-08 08:47:45.534 +0000",1570524465.534264,-2.212841,-0.955503,0.398409,-0.462262,0.816604,0.345646,0.000000,0.000000,0.000000,-1,0.008691,0.012005,-0.002172,-0.000415,0.003906,0.001370
"2019-10-08 08:47:45.557 +0000",1570524465.556539,-2.212437,-0.955585,0.398677,-0.462348,0.816652,0.345419,0.000000,0.000000,0.000000,-1,0.007456,0.010793,0.002800,-0.001046,0.004027,0.001444
"2019-10-08 08:47:45.579 +0000",1570524465.578837,-2.212431,-0.955622,0.398598,-0.462326,0.816673,0.345398,0.000000,0.000000,0.000000,-1,0.002433,0.002181,0.002874,-0.003632,0.003014,0.002670
"2019-10-08 08:47:45.601 +0000",1570524465.601152,-2.212138,-0.955739,0.398747,-0.462351,0.816740,0.345206,0.000000,0.000000,0.000000,-1,0.004955,0.008342,0.005302,-0.003119,0.002946,0.005456
"2019-10-08 08:47:45.623 +0000",1570524465.623427,-2.211700,-0.955849,0.398963,-0.462429,0.816804,0.344949,0.000000,0.000000,0.000000,-1,0.009952,0.014471,-0.000953,-0.001941,0.002669,0.002325
"2019-10-08 08:47:45.646 +0000",1570524465.645744,-2.211308,-0.955932,0.399161,-0.462511,0.816851,0.344728,0.000000,0.000000,0.000000,-1,0.004922,0.011999,-0.003414,-0.000014,0.001691,0.001448
"2019-10-08 08:47:45.668 +0000",1570524465.668034,-2.211079,-0.955917,0.399155,-0.462599,0.816843,0.344629,0.000000,0.000000,0.000000,-1,0.003696,0.008337,0.004061,-0.001451,0.000951,0.001868
"2019-10-08 08:47:45.690 +0000",1570524465.690316,-2.211023,-0.956069,0.399062,-0.462519,0.816931,0.344529,0.000000,0.000000,0.000000,-1,0.003709,0.004661,0.007815,-0.000677,0.003290,-0.001038
"2019-10-08 08:47:45.713 +0000",1570524465.712654,-2.210978,-0.956220,0.399032,-0.462436,0.817018,0.344435,0.000000,0.000000,0.000000,-1,0.001219,0.004332,0.004012,-0.001492,0.004668,0.003435
"2019-10-08 08:47:45.735 +0000",1570524465.734917,-2.210858,-0.956115,0.399094,-0.462546,0.816957,0.344430,0.000000,0.000000,0.000000,-1,-0.001302,0.000631,0.001563,-0.004709,0.004316,0.001991
"2019-10-08 08:47:45.757 +0000",1570524465.757205,-2.210538,-0.955943,0.399382,-0.462769,0.816858,0.344366,0.000000,0.000000,0.000000,-1,-0.001310,-0.004294,0.000366,-0.004516,0.004813,0.001093
"2019-10-08 08:47:45.780 +0000",1570524465.779511,-2.210631,-0.956002,0.399318,-0.462698,0.816892,0.344380,0.000000,0.000000,0.000000,-1,0.001210,-0.001823,0.002826,-0.003275,0.002642,-0.000416
"2019-10-08 08:47:45.802 +0000",1570524465.801812,-2.210747,-0.956079,0.399304,-0.462608,0.816937,0.344396,0.000000,0.000000,0.000000,-1,-0.000056,-0.004293,0.000366,-0.002526,0.003010,0.002863
"2019-10-08 08:47:45.824 +0000",1570524465.824094,-2.210766,-0.956188,0.399313,-0.462530,0.816999,0.344352,0.000000,0.000000,0.000000,-1,0.002466,0.000638,0.002805,-0.000010,0.003115,0.001855
"2019-10-08 08:47:45.846 +0000",1570524465.846392,-2.211012,-0.956221,0.399096,-0.462424,0.817018,0.344450,0.000000,0.000000,0.000000,-1,-0.003800,0.001871,0.004032,-0.000711,0.002836,0.002230
"2019-10-08 08:47:45.869 +0000",1570524465.868706,-2.211109,-0.956172,0.398960,-0.462422,0.816990,0.344518,0.000000,0.000000,0.000000,-1,-0.003820,0.001852,-0.000930,-0.000255,0.004421,0.002878
"2019-10-08 08:47:45.891 +0000",1570524465.890983,-2.211612,-0.956308,0.398552,-0.462160,0.817068,0.344684,0.000000,0.000000,0.000000,-1,-0.001285,0.001561,-0.002244,-0.001036,0.005441,0.002712
"2019-10-08 08:47:45.913 +0000",1570524465.913289,-2.211606,-0.956297,0.398550,-0.462169,0.817062,0.344687,0.000000,0.000000,0.000000,-1,0.001229,0.001567,-0.001003,0.000545,0.005539,0.003152
"2019-10-08 08:47:45.936 +0000",1570524465.935596,-2.211578,-0.956287,0.398591,-0.462185,0.817056,0.344679,0.000000,0.000000,0.000000,-1,-0.000026,0.000336,-0.000992,-0.000477,0.002569,0.001711
"2019-10-08 08:47:45.958 +0000",1570524465.957895,-2.211333,-0.956352,0.398805,-0.462227,0.817094,0.344534,0.000000,0.000000,0.000000,-1,0.001234,0.001572,0.000238,-0.001548,0.003326,0.000726
"2019-10-08 08:47:45.980 +0000",1570524465.980171,-2.211354,-0.956309,0.398796,-0.462248,0.817069,0.344565,0.000000,0.000000,0.000000,-1,-0.000040,0.002782,-0.004736,-0.000536,0.003319,0.001993
"2019-10-08 08:47:46.002 +0000",1570524466.002485,-2.211428,-0.956218,0.398806,-0.462282,0.817017,0.344643,0.000000,0.000000,0.000000,-1,-0.001290,-0.005819,-0.002179,-0.003462,0.003769,0.002082
"2019-10-08 08:47:46.025 +0000",1570524466.024763,-2.211443,-0.956186,0.398847,-0.462298,0.816998,0.344666,0.000000,0.000000,0.000000,-1,-0.001279,-0.004579,0.000291,-0.003049,0.004718,0.000823
"2019-10-08 08:47:46.047 +0000",1570524466.047067,-2.211163,-0.956168,0.399175,-0.462406,0.816988,0.344545,0.000000,0.000000,0.000000,-1,-0.001289,-0.005819,-0.002179,-0.004329,0.004164,-0.000490
"2019-10-08 08:47:46.069 +0000",1570524466.069374,-2.211285,-0.955931,0.399092,-0.462519,0.816851,0.344717,0.000000,0.000000,0.000000,-1,-0.002513,-0.001161,-0.002293,-0.005346,0.004560,0.004037
"2019-10-08 08:47:46.092 +0000",1570524466.091680,-2.211254,-0.955866,0.399071,-0.462573,0.816814,0.344735,0.000000,0.000000,0.000000,-1,-0.002504,0.003764,-0.001096,-0.004682,0.005193,0.002296
"2019-10-08 08:47:46.114 +0000",1570524466.113956,-2.210976,-0.955803,0.399268,-0.462710,0.816777,0.344637,0.000000,0.000000,0.000000,-1,-0.002499,-0.003606,0.001450,-0.004011,0.002955,-0.000704
"2019-10-08 08:47:46.136 +0000",1570524466.136271,-2.211365,-0.955848,0.399075,-0.462546,0.816803,0.344795,0.000000,0.000000,0.000000,-1,-0.002485,-0.013428,0.006500,-0.002344,0.000091,-0.002739
"2019-10-08 08:47:46.159 +0000",1570524466.158568,-2.211910,-0.955782,0.398838,-0.462401,0.816765,0.345079,0.000000,0.000000,0.000000,-1,-0.002506,-0.014677,0.001548,-0.002778,0.003334,0.003050
"2019-10-08 08:47:46.181 +0000",1570524466.180849,-2.212493,-0.955704,0.398568,-0.462251,0.816720,0.345387,0.000000,0.000000,0.000000,-1,-0.000001,-0.012221,0.000287,-0.000991,0.003257,0.002498
"2019-10-08 08:47:46.203 +0000",1570524466.203152,-2.212760,-0.955699,0.398499,-0.462162,0.816717,0.345513,0.000000,0.000000,0.000000,-1,0.000002,-0.007300,0.000243,0.000523,0.001947,0.002235
"2019-10-08 08:47:46.225 +0000",1570524466.225458,-2.212761,-0.955668,0.398614,-0.462182,0.816700,0.345528,0.000000,0.000000,0.000000,-1,0.001244,-0.003624,-0.003510,0.001397,0.004528,0.002418
"2019-10-08 08:47:46.248 +0000",1570524466.247746,-2.212689,-0.955781,0.398731,-0.462133,0.816765,0.345440,0.000000,0.000000,0.000000,-1,-0.001249,-0.000130,-0.006089,0.000128,0.005364,-0.000087
"2019-10-08 08:47:46.270 +0000",1570524466.270038,-2.212755,-0.955837,0.398666,-0.462073,0.816797,0.345443,0.000000,0.000000,0.000000,-1,0.000021,-0.000115,-0.002367,-0.002999,0.005560,0.003297
"2019-10-08 08:47:46.292 +0000",1570524466.292347,-2.212719,-0.955826,0.398772,-0.462093,0.816791,0.345431,0.000000,0.000000,0.000000,-1,0.003789,-0.000109,-0.001125,-0.002354,0.005963,0.002728
"2019-10-08 08:47:46.315 +0000",1570524466.314622,-2.212570,-0.955791,0.398925,-0.462167,0.816771,0.345380,0.000000,0.000000,0.000000,-1,0.001266,0.001106,-0.004858,-0.002524,0.004732,0.003177
"2019-10-08 08:47:46.337 +0000",1570524466.336930,-2.212634,-0.955692,0.398835,-0.462210,0.816714,0.345458,0.000000,0.000000,0.000000,-1,0.003788,0.006037,-0.002420,-0.002069,0.004988,0.004716
"2019-10-08 08:47:46.359 +0000",1570524466.359236,-2.212255,-0.955658,0.399093,-0.462363,0.816694,0.345299,0.000000,0.000000,0.000000,-1,0.000021,0.008491,-0.003684,-0.003274,0.003863,0.003715
"2019-10-08 08:47:46.382 +0000",1570524466.381512,-2.212082,-0.955577,0.399122,-0.462476,0.816647,0.345259,0.000000,0.000000,0.000000,-1,0.000018,0.003571,-0.003640,-0.002383,0.001560,0.002596
"2019-10-08 08:47:46.404 +0000",1570524466.403810,-2.212312,-0.955450,0.398871,-0.462480,0.816573,0.345427,0.000000,0.000000,0.000000,-1,-0.003727,-0.000102,0.001353,-0.001921,0.004166,0.004106
"2019-10-08 08:47:46.426 +0000",1570524466.426126,-2.212575,-0.955419,0.398672,-0.462409,0.816556,0.345564,0.000000,0.000000,0.000000,-1,-0.006220,-0.006461,0.001342,-0.002633,0.003681,0.002275
"2019-10-08 08:47:46.448 +0000",1570524466.448400,-2.213128,-0.955376,0.398322,-0.462246,0.816531,0.345841,0.000000,0.000000,0.000000,-1,-0.009978,-0.015064,0.003898,-0.003254,0.004423,0.000549
"2019-10-08 08:47:46.471 +0000",1570524466.470709,-2.213602,-0.955310,0.398061,-0.462125,0.816493,0.346092,0.000000,0.000000,0.000000,-1,-0.007478,-0.012612,0.001396,-0.003359,0.002553,0.000923
"2019-10-08 08:47:46.493 +0000",1570524466.493014,-2.213319,-0.955001,0.398473,-0.462425,0.816314,0.346112,0.000000,0.000000,0.000000,-1,0.000035,-0.010162,-0.002344,-0.003822,0.003449,0.001239
"2019-10-08 08:47:46.515 +0000",1570524466.515290,-2.213648,-0.955022,0.398373,-0.462298,0.816326,0.346254,0.000000,0.000000,0.000000,-1,0.000067,-0.007673,0.005077,-0.002332,0.002079,0.003996
"2019-10-08 08:47:46.538 +0000",1570524466.537596,-2.213935,-0.955046,0.398163,-0.462182,0.816340,0.346375,0.000000,0.000000,0.000000,-1,-0.002441,-0.006444,0.005065,-0.002280,0.003377,0.004073
"2019-10-08 08:47:46.560 +0000",1570524466.559904,-2.214377,-0.954904,0.397680,-0.462122,0.816258,0.346649,0.000000,0.000000,0.000000,-1,-0.016223,-0.005205,0.008769,-0.003439,0.004024,0.002427
"2019-10-08 08:47:46.582 +0000",1570524466.582180,-2.215152,-0.955129,0.396948,-0.461706,0.816389,0.346897,0.000000,0.000000,0.000000,-1,-0.016227,-0.011356,0.008824,0.000204,0.005877,0.000927
"2019-10-08 08:47:46.604 +0000",1570524466.604479,-2.215924,-0.955020,0.396428,-0.461510,0.816325,0.347307,0.000000,0.000000,0.000000,-1,-0.008732,-0.018957,-0.001084,0.000466,0.002721,0.001845
"2019-10-08 08:47:46.627 +0000",1570524466.626779,-2.217149,-0.955317,0.395667,-0.460890,0.816497,0.347726,0.000000,0.000000,0.000000,-1,-0.003697,-0.014020,0.002596,0.002089,0.004548,0.002158
"2019-10-08 08:47:46.649 +0000",1570524466.649068,-2.217363,-0.955269,0.395672,-0.460847,0.816469,0.347848,0.000000,0.000000,0.000000,-1,0.001293,-0.010356,-0.004878,0.001588,0.004515,0.002769
"2019-10-08 08:47:46.671 +0000",1570524466.671363,-2.217588,-0.955063,0.395720,-0.460903,0.816350,0.348053,0.000000,0.000000,0.000000,-1,0.001298,-0.009121,-0.003648,-0.003422,0.003215,0.004273
"2019-10-08 08:47:46.694 +0000",1570524466.693681,-2.217598,-0.955084,0.395923,-0.460886,0.816362,0.348047,0.000000,0.000000,0.000000,-1,0.006319,-0.004198,-0.003690,-0.002646,0.003279,0.002371
"2019-10-08 08:47:46.716 +0000",1570524466.715987,-2.217726,-0.954818,0.396021,-0.461015,0.816208,0.348237,0.000000,0.000000,0.000000,-1,0.000036,-0.005441,-0.006163,-0.002441,0.002059,0.001708
"2019-10-08 08:47:46.738 +0000",1570524466.738264,-2.217816,-0.954698,0.396043,-0.461061,0.816139,0.348337,0.000000,0.000000,0.000000,-1,-0.003714,-0.001742,-0.003716,-0.003874,0.004295,0.004354
"2019-10-08 08:47:46.761 +0000",1570524466.760571,-2.217993,-0.954628,0.395940,-0.461045,0.816099,0.348454,0.000000,0.000000,0.000000,-1,-0.003697,-0.005413,0.001279,-0.004134,0.004534,-0.000263
"2019-10-08 08:47:46.783 +0000",1570524466.782857,-2.218506,-0.954548,0.395532,-0.460918,0.816053,0.348730,0.000000,0.000000,0.000000,-1,-0.008697,-0.005586,0.002465,-0.000233,0.002093,0.001872
"2019-10-08 08:47:46.805 +0000",1570524466.805151,-2.218784,-0.954311,0.395325,-0.460976,0.815916,0.348974,0.000000,0.000000,0.000000,-1,-0.003686,-0.008048,0.001248,-0.003654,0.000811,0.001978
"2019-10-08 08:47:46.827 +0000",1570524466.827460,-2.218906,-0.954251,0.395210,-0.460972,0.815881,0.349060,0.000000,0.000000,0.000000,-1,-0.006211,-0.000688,-0.003780,-0.004192,0.004249,0.004440
"2019-10-08 08:47:46.850 +0000",1570524466.849745,-2.218762,-0.954144,0.395394,-0.461092,0.815819,0.349046,0.000000,0.000000,0.000000,-1,0.005076,-0.004373,-0.003743,-0.002973,0.002769,0.001234
"2019-10-08 08:47:46.872 +0000",1570524466.872042,-2.218666,-0.954020,0.395626,-0.461206,0.815747,0.349063,0.000000,0.000000,0.000000,-1,0.003833,-0.010510,0.000032,-0.004477,0.002795,0.001278
"2019-10-08 08:47:46.894 +0000",1570524466.894348,-2.218825,-0.954012,0.395685,-0.461156,0.815743,0.349140,0.000000,0.000000,0.000000,-1,-0.004957,-0.010523,-0.002452,-0.003032,0.002342,0.001842
"2019-10-08 08:47:46.917 +0000",1570524466.916655,-2.219081,-0.953972,0.395650,-0.461093,0.815719,0.349278,0.000000,0.000000,0.000000,-1,0.000061,-0.009291,-0.002461,-0.004224,0.004792,0.003520
"2019-10-08 08:47:46.939 +0000",1570524466.938930,-2.219717,-0.954276,0.395324,-0.460672,0.815895,0.349421,0.000000,0.000000,0.000000,-1,0.006346,-0.004358,-0.000021,0.001764,0.004051,0.001927
"2019-10-08 08:47:46.961 +0000",1570524466.961239,-2.219592,-0.954233,0.395490,-0.460744,0.815871,0.349385,0.000000,0.000000,0.000000,-1,0.001321,-0.000786,-0.005066,0.001470,0.002672,0.002650
"2019-10-08 08:47:46.984 +0000",1570524466.983544,-2.219361,-0.954170,0.395652,-0.460866,0.815834,0.349310,0.000000,0.000000,0.000000,-1,-0.001169,0.004148,-0.001389,-0.000071,0.003670,0.001002
"2019-10-08 08:47:47.006 +0000",1570524467.005832,-2.219120,-0.954232,0.395917,-0.460910,0.815870,0.349168,0.000000,0.000000,0.000000,-1,0.005080,0.000441,-0.006316,-0.002728,0.004748,0.001875
"2019-10-08 08:47:47.028 +0000",1570524467.028126,-2.218948,-0.954219,0.396015,-0.460979,0.815862,0.349096,0.000000,0.000000,0.000000,-1,-0.001173,0.006604,-0.002651,-0.004216,0.005885,0.001384
"2019-10-08 08:47:47.050 +0000",1570524467.050434,-2.218742,-0.954200,0.396179,-0.461063,0.815851,0.349010,0.000000,0.000000,0.000000,-1,0.007599,0.001682,-0.003844,-0.005124,0.002966,-0.000407
"2019-10-08 08:47:47.073 +0000",1570524467.072711,-2.218455,-0.954133,0.396528,-0.461207,0.815812,0.348910,0.000000,0.000000,0.000000,-1,0.005074,-0.000793,-0.007545,-0.002371,0.004027,0.000012
"2019-10-08 08:47:47.095 +0000",1570524467.095006,-2.219127,-0.953977,0.396018,-0.461073,0.815722,0.349297,0.000000,0.000000,0.000000,-1,0.006345,0.001682,-0.003845,0.000197,0.002393,0.003334
"2019-10-08 08:47:47.117 +0000",1570524467.117322,-2.219019,-0.953987,0.396069,-0.461104,0.815728,0.349242,0.000000,0.000000,0.000000,-1,-0.002414,0.004157,0.001092,-0.000917,0.003913,0.002732
"2019-10-08 08:47:47.140 +0000",1570524467.139599,-2.219051,-0.954003,0.395978,-0.461083,0.815737,0.349249,0.000000,0.000000,0.000000,-1,-0.002405,0.004083,0.001049,-0.005210,0.003705,0.003473
"2019-10-08 08:47:47.162 +0000",1570524467.161906,-2.218915,-0.953967,0.396048,-0.461154,0.815717,0.349204,0.000000,0.000000,0.000000,-1,-0.002408,-0.000837,0.001092,-0.003476,0.004199,0.000588
"2019-10-08 08:47:47.184 +0000",1570524467.184212,-2.218817,-0.953830,0.396179,-0.461277,0.815637,0.349227,0.000000,0.000000,0.000000,-1,0.000106,-0.008206,0.003639,-0.004681,0.002829,-0.000167
"2019-10-08 08:47:47.206 +0000",1570524467.206488,-2.219009,-0.953835,0.396176,-0.461206,0.815640,0.349313,0.000000,0.000000,0.000000,-1,0.001354,-0.010671,0.002421,-0.004095,0.002536,0.000663
"2019-10-08 08:47:47.229 +0000",1570524467.228800,-2.218884,-0.954017,0.396374,-0.461132,0.815746,0.349165,0.000000,0.000000,0.000000,-1,0.001364,-0.003285,0.003596,-0.002170,0.004048,0.001284
"2019-10-08 08:47:47.251 +0000",1570524467.251101,-2.219045,-0.954038,0.396367,-0.461063,0.815757,0.349229,0.000000,0.000000,0.000000,-1,0.003852,-0.004533,-0.001354,0.000308,0.003456,-0.001161
"2019-10-08 08:47:47.273 +0000",1570524467.273378,-2.219040,-0.954092,0.396362,-0.461029,0.815789,0.349201,0.000000,0.000000,0.000000,-1,0.000104,0.002856,0.001060,-0.000458,0.004875,0.000394
"2019-10-08 08:47:47.296 +0000",1570524467.295697,-2.218968,-0.954138,0.396374,-0.461024,0.815816,0.349144,0.000000,0.000000,0.000000,-1,-0.001154,-0.002065,0.001103,-0.002493,0.003581,-0.000069
"2019-10-08 08:47:47.318 +0000",1570524467.317991,-2.219262,-0.954176,0.396240,-0.460897,0.815838,0.349261,0.000000,0.000000,0.000000,-1,-0.001151,-0.007133,-0.000135,-0.001445,0.004505,0.002103
"2019-10-08 08:47:47.340 +0000",1570524467.340297,-2.219503,-0.954091,0.396249,-0.460868,0.815788,0.349414,0.000000,0.000000,0.000000,-1,-0.004922,-0.012060,-0.001333,-0.001275,0.006004,0.005215
"2019-10-08 08:47:47.363 +0000",1570524467.362574,-2.219622,-0.953987,0.396299,-0.460894,0.815728,0.349520,0.000000,0.000000,0.000000,-1,-0.002430,-0.005928,-0.006348,0.000765,0.003638,0.002607
"2019-10-08 08:47:47.385 +0000",1570524467.384885,-2.220108,-0.953895,0.395997,-0.460784,0.815675,0.349790,0.000000,0.000000,0.000000,-1,0.002591,0.000225,-0.006401,-0.001954,0.003631,0.004489
"2019-10-08 08:47:47.407 +0000",1570524467.407187,-2.220139,-0.953834,0.396005,-0.460812,0.815640,0.349834,0.000000,0.000000,0.000000,-1,0.002613,0.002705,-0.001461,-0.001148,0.003131,0.003834
"2019-10-08 08:47:47.429 +0000",1570524467.429463,-2.220071,-0.953839,0.396049,-0.460833,0.815643,0.349800,0.000000,0.000000,0.000000,-1,-0.002395,0.001482,0.001029,-0.001874,0.002839,0.002907
"2019-10-08 08:47:47.452 +0000",1570524467.451750,-2.219906,-0.953759,0.396165,-0.460943,0.815596,0.349763,0.000000,0.000000,0.000000,-1,-0.001159,-0.003452,-0.002648,-0.002787,0.003251,0.002379
"2019-10-08 08:47:47.474 +0000",1570524467.474075,-2.220058,-0.953701,0.396064,-0.460927,0.815563,0.349862,0.000000,0.000000,0.000000,-1,-0.001141,-0.007123,0.002347,-0.002711,0.005223,0.001563
"2019-10-08 08:47:47.496 +0000",1570524467.496344,-2.220193,-0.953645,0.396100,-0.460916,0.815530,0.349952,0.000000,0.000000,0.000000,-1,-0.009918,-0.013394,0.001122,-0.004629,0.005133,0.000466
"2019-10-08 08:47:47.519 +0000",1570524467.518659,-2.220579,-0.953607,0.395943,-0.460806,0.815508,0.350149,0.000000,0.000000,0.000000,-1,-0.001141,-0.010935,-0.000137,-0.004785,0.003446,0.000422
"2019-10-08 08:47:47.541 +0000",1570524467.540966,-2.220739,-0.953135,0.395962,-0.461056,0.815235,0.350455,0.000000,0.000000,0.000000,-1,0.002620,-0.006018,-0.001420,-0.006214,0.003872,0.003915
"2019-10-08 08:47:47.563 +0000",1570524467.563242,-2.220690,-0.953113,0.396103,-0.461088,0.815222,0.350444,0.000000,0.000000,0.000000,-1,0.001360,-0.006023,-0.002661,-0.006442,0.006372,0.002202
"2019-10-08 08:47:47.586 +0000",1570524467.585548,-2.220766,-0.953060,0.396192,-0.461095,0.815192,0.350504,0.000000,0.000000,0.000000,-1,-0.001150,-0.008484,-0.002640,-0.002146,0.004495,0.001028
"2019-10-08 08:47:47.608 +0000",1570524467.607852,-2.220805,-0.953037,0.396298,-0.461097,0.815178,0.350534,0.000000,0.000000,0.000000,-1,-0.002386,-0.012155,0.002354,-0.002343,0.003441,0.001455
"2019-10-08 08:47:47.630 +0000",1570524467.630130,-2.221241,-0.953145,0.396136,-0.460874,0.815241,0.350682,0.000000,0.000000,0.000000,-1,-0.004893,-0.017072,0.003638,-0.002704,0.007284,0.000454
"2019-10-08 08:47:47.652 +0000",1570524467.652437,-2.221921,-0.953130,0.395753,-0.460645,0.815232,0.351002,0.000000,0.000000,0.000000,-1,-0.006141,-0.014608,0.004856,0.000333,0.004623,0.000987
"2019-10-08 08:47:47.675 +0000",1570524467.674739,-2.222444,-0.953152,0.395450,-0.460447,0.815245,0.351233,0.000000,0.000000,0.000000,-1,-0.001139,-0.006123,-0.003934,0.001295,0.004244,0.003076
"2019-10-08 08:47:47.697 +0000",1570524467.697020,-2.222731,-0.953366,0.395249,-0.460207,0.815369,0.351259,0.000000,0.000000,0.000000,-1,-0.002390,0.000027,-0.003988,0.000170,0.005111,0.001921
"2019-10-08 08:47:47.719 +0000",1570524467.719325,-2.222695,-0.953459,0.395300,-0.460160,0.815423,0.351196,0.000000,0.000000,0.000000,-1,0.006403,0.002500,-0.001525,-0.000702,0.005561,0.002747
"2019-10-08 08:47:47.742 +0000",1570524467.741633,-2.222552,-0.953537,0.395357,-0.460160,0.815468,0.351092,0.000000,0.000000,0.000000,-1,0.005172,0.007439,0.003393,-0.000885,0.003624,0.005079
"2019-10-08 08:47:47.764 +0000",1570524467.763907,-2.222216,-0.953430,0.395559,-0.460347,0.815406,0.350990,0.000000,0.000000,0.000000,-1,0.000128,0.006183,-0.002801,-0.004771,0.003808,0.002174
"2019-10-08 08:47:47.786 +0000",1570524467.786216,-2.221952,-0.953347,0.395688,-0.460493,0.815358,0.350910,0.000000,0.000000,0.000000,-1,0.000114,0.007399,-0.006534,-0.005663,0.003551,0.001294
"2019-10-08 08:47:47.809 +0000",1570524467.808512,-2.221704,-0.953353,0.395899,-0.460576,0.815361,0.350792,0.000000,0.000000,0.000000,-1,0.005135,0.004946,-0.005269,-0.002681,0.003974,0.003868
"2019-10-08 08:47:47.831 +0000",1570524467.830818,-2.221252,-0.953516,0.396261,-0.460629,0.815456,0.350504,0.000000,0.000000,0.000000,-1,0.008913,0.004962,-0.001546,-0.001102,0.002232,-0.000452
"2019-10-08 08:47:47.853 +0000",1570524467.853104,-2.220982,-0.953565,0.396491,-0.460692,0.815484,0.350355,0.000000,0.000000,0.000000,-1,0.002658,0.001189,-0.000304,0.001036,0.001929,0.000918
"2019-10-08 08:47:47.875 +0000",1570524467.875412,-2.221026,-0.953543,0.396421,-0.460690,0.815472,0.350386,0.000000,0.000000,0.000000,-1,-0.003611,-0.002499,0.000967,-0.000995,0.003758,0.000474
"2019-10-08 08:47:47.898 +0000",1570524467.897688,-2.221330,-0.953444,0.396134,-0.460648,0.815414,0.350575,0.000000,0.000000,0.000000,-1,-0.013651,-0.003738,-0.000267,-0.005157,0.005997,0.002025
"2019-10-08 08:47:47.920 +0000",1570524467.919986,-2.220963,-0.953131,0.396410,-0.460980,0.815233,0.350560,0.000000,0.000000,0.000000,-1,-0.006105,-0.004945,0.004708,-0.004535,0.005049,0.000651
"2019-10-08 08:47:47.942 +0000",1570524467.942302,-2.221170,-0.953198,0.396224,-0.460864,0.815272,0.350623,0.000000,0.000000,0.000000,-1,0.002687,-0.002472,0.007171,-0.002423,0.002203,0.000375
"2019-10-08 08:47:47.965 +0000",1570524467.964577,-2.221290,-0.953277,0.396220,-0.460771,0.815317,0.350639,0.000000,0.000000,0.000000,-1,0.000152,-0.003727,0.000979,-0.004866,0.004263,-0.002083
"2019-10-08 08:47:47.987 +0000",1570524467.986884,-2.221409,-0.953387,0.396193,-0.460658,0.815381,0.350639,0.000000,0.000000,0.000000,-1,0.001411,-0.003721,0.002220,-0.002630,0.004519,0.002128
"2019-10-08 08:47:48.009 +0000",1570524468.009192,-2.221475,-0.953435,0.396254,-0.460603,0.815409,0.350646,0.000000,0.000000,0.000000,-1,0.000138,-0.002511,-0.002754,-0.000746,0.003805,0.001572
"2019-10-08 08:47:48.031 +0000",1570524468.031498,-2.221566,-0.953419,0.396313,-0.460582,0.815400,0.350696,0.000000,0.000000,0.000000,-1,0.001405,-0.008717,-0.001480,-0.002171,0.004532,0.002117
"2019-10-08 08:47:48.054 +0000",1570524468.053780,-2.222158,-0.953594,0.395929,-0.460261,0.815501,0.350883,0.000000,0.000000,0.000000,-1,0.000163,-0.005018,0.000968,-0.000234,0.005087,0.002557
"2019-10-08 08:47:48.076 +0000",1570524468.076081,-2.222247,-0.953593,0.395983,-0.460231,0.815500,0.350924,0.000000,0.000000,0.000000,-1,0.000149,-0.003802,-0.002764,-0.000753,0.004172,-0.000948
"2019-10-08 08:47:48.098 +0000",1570524468.098387,-2.222160,-0.953569,0.396068,-0.460277,0.815486,0.350896,0.000000,0.000000,0.000000,-1,0.002662,0.003580,-0.002829,-0.001149,0.002629,0.004527
"2019-10-08 08:47:48.121 +0000",1570524468.120663,-2.221951,-0.953600,0.396142,-0.460330,0.815504,0.350784,0.000000,0.000000,0.000000,-1,0.003931,0.009740,-0.000402,-0.001630,0.003649,0.003357
"2019-10-08 08:47:48.143 +0000",1570524468.142971,-2.222164,-0.953497,0.395971,-0.460322,0.815445,0.350933,0.000000,0.000000,0.000000,-1,0.008931,0.007268,-0.004099,-0.001470,0.002991,0.003895
"2019-10-08 08:47:48.165 +0000",1570524468.165277,-2.221826,-0.953546,0.396263,-0.460408,0.815473,0.350753,0.000000,0.000000,0.000000,-1,0.006419,0.002346,-0.004056,-0.002803,0.004260,0.003114
"2019-10-08 08:47:48.188 +0000",1570524468.187553,-2.221760,-0.953516,0.396430,-0.460451,0.815456,0.350737,0.000000,0.000000,0.000000,-1,0.001408,-0.003797,-0.001523,-0.002593,0.005955,0.002015
"2019-10-08 08:47:48.210 +0000",1570524468.209863,-2.221288,-0.953528,0.396930,-0.460609,0.815463,0.350514,0.000000,0.000000,0.000000,-1,0.001420,-0.005079,-0.001532,-0.002984,0.004423,-0.000920
"2019-10-08 08:47:48.232 +0000",1570524468.232166,-2.221346,-0.953378,0.396977,-0.460686,0.815376,0.350615,0.000000,0.000000,0.000000,-1,-0.002338,-0.005075,-0.000293,-0.004265,0.003350,0.001375
"2019-10-08 08:47:48.254 +0000",1570524468.254442,-2.221701,-0.953299,0.396755,-0.460612,0.815330,0.350818,0.000000,0.000000,0.000000,-1,-0.008603,-0.009989,0.002229,-0.002965,0.003304,0.001187
"2019-10-08 08:47:48.277 +0000",1570524468.276737,-2.221984,-0.952778,0.396514,-0.460851,0.815028,0.351206,0.000000,0.000000,0.000000,-1,-0.008604,-0.002613,0.000923,-0.004649,0.003911,0.003393
"2019-10-08 08:47:48.299 +0000",1570524468.299055,-2.222196,-0.952690,0.396335,-0.460834,0.814977,0.351347,0.000000,0.000000,0.000000,-1,-0.003596,-0.002620,-0.001556,-0.006726,0.006587,0.001437
"2019-10-08 08:47:48.321 +0000",1570524468.321337,-2.222047,-0.952684,0.396547,-0.460890,0.814974,0.351281,0.000000,0.000000,0.000000,-1,0.000171,-0.003843,-0.000303,-0.002627,0.003599,-0.000344
"2019-10-08 08:47:48.344 +0000",1570524468.343638,-2.222285,-0.952735,0.396520,-0.460773,0.815003,0.351365,0.000000,0.000000,0.000000,-1,0.001447,-0.009969,0.005954,-0.001507,0.002135,0.001082
"2019-10-08 08:47:48.366 +0000",1570524468.365945,-2.222885,-0.952733,0.396228,-0.460564,0.815002,0.351643,0.000000,0.000000,0.000000,-1,-0.007343,-0.016128,0.004765,-0.003273,0.005539,0.003323
"2019-10-08 08:47:48.388 +0000",1570524468.388221,-2.223488,-0.952698,0.395888,-0.460374,0.814982,0.351938,0.000000,0.000000,0.000000,-1,-0.007334,-0.013712,0.003486,-0.001845,0.005575,0.002509
"2019-10-08 08:47:48.411 +0000",1570524468.410528,-2.223737,-0.952628,0.395807,-0.460332,0.814941,0.352087,0.000000,0.000000,0.000000,-1,-0.002332,-0.006348,-0.001539,0.000172,0.004074,0.001169
"2019-10-08 08:47:48.433 +0000",1570524468.432830,-2.224492,-0.952961,0.395305,-0.459850,0.815134,0.352269,0.000000,0.000000,0.000000,-1,0.000171,-0.000206,-0.004073,0.002041,0.003240,0.002315
"2019-10-08 08:47:48.455 +0000",1570524468.455110,-2.224723,-0.952921,0.395164,-0.459794,0.815111,0.352395,0.000000,0.000000,0.000000,-1,-0.001086,0.003479,-0.005347,0.000291,0.004026,0.003623
"2019-10-08 08:47:48.477 +0000",1570524468.477417,-2.224664,-0.952869,0.395226,-0.459849,0.815081,0.352394,0.000000,0.000000,0.000000,-1,0.000192,0.001043,0.000878,-0.001576,0.005933,0.003334
"2019-10-08 08:47:48.500 +0000",1570524468.499725,-2.224653,-0.952919,0.395261,-0.459821,0.815110,0.352364,0.000000,0.000000,0.000000,-1,0.001455,-0.001407,0.003381,-0.003146,0.006057,0.003806
"2019-10-08 08:47:48.522 +0000",1570524468.522000,-2.224414,-0.952785,0.395463,-0.459992,0.815032,0.352321,0.000000,0.000000,0.000000,-1,0.002697,0.003500,-0.000384,-0.003921,0.003098,0.004369
"2019-10-08 08:47:48.544 +0000",1570524468.544307,-2.224092,-0.952790,0.395754,-0.460102,0.815035,0.352170,0.000000,0.000000,0.000000,-1,0.007691,0.005938,-0.006606,-0.002789,0.002012,0.001254
"2019-10-08 08:47:48.567 +0000",1570524468.566614,-2.223612,-0.952828,0.396123,-0.460246,0.815057,0.351930,0.000000,0.000000,0.000000,-1,0.008973,0.007154,-0.002908,-0.001332,0.003394,0.004485
"2019-10-08 08:47:48.589 +0000",1570524468.588884,-2.223502,-0.952728,0.396184,-0.460349,0.815000,0.351929,0.000000,0.000000,0.000000,-1,0.006466,0.002238,-0.001625,-0.003060,0.004123,0.002533
"2019-10-08 08:47:48.611 +0000",1570524468.611190,-2.223370,-0.952792,0.396292,-0.460355,0.815036,0.351837,0.000000,0.000000,0.000000,-1,0.001466,-0.001435,0.003368,-0.002719,0.004559,0.000244
"2019-10-08 08:47:48.633 +0000",1570524468.633498,-2.223577,-0.952800,0.396079,-0.460277,0.815041,0.351928,0.000000,0.000000,0.000000,-1,-0.007316,-0.003899,0.003386,-0.002721,0.004386,0.001267
"2019-10-08 08:47:48.656 +0000",1570524468.655794,-2.223460,-0.952752,0.396223,-0.460349,0.815013,0.351898,0.000000,0.000000,0.000000,-1,0.000185,-0.003920,-0.002814,-0.001840,0.002476,0.001450
"2019-10-08 08:47:48.678 +0000",1570524468.678080,-2.223528,-0.952754,0.396306,-0.460324,0.815014,0.351928,0.000000,0.000000,0.000000,-1,0.003947,-0.005148,-0.002801,-0.003742,0.003192,0.001496
"2019-10-08 08:47:48.700 +0000",1570524468.700387,-2.223403,-0.952815,0.396524,-0.460328,0.815049,0.351841,0.000000,0.000000,0.000000,-1,0.007723,-0.001447,-0.000351,-0.004668,0.003554,0.001003
"2019-10-08 08:47:48.723 +0000",1570524468.722695,-2.223364,-0.952861,0.396746,-0.460312,0.815076,0.351800,0.000000,0.000000,0.000000,-1,0.006449,-0.007612,-0.004019,-0.004577,0.003451,0.000952
"2019-10-08 08:47:48.745 +0000",1570524468.744972,-2.223477,-0.952946,0.396739,-0.460217,0.815126,0.351810,0.000000,0.000000,0.000000,-1,-0.002301,-0.002701,-0.000356,-0.001025,0.003325,0.002972
"2019-10-08 08:47:48.767 +0000",1570524468.767277,-2.223520,-0.952936,0.396702,-0.460209,0.815120,0.351835,0.000000,0.000000,0.000000,-1,-0.001050,-0.000245,-0.001618,-0.000820,0.005055,0.003253
"2019-10-08 08:47:48.790 +0000",1570524468.789583,-2.223571,-0.952954,0.396764,-0.460179,0.815130,0.351849,0.000000,0.000000,0.000000,-1,0.003965,-0.002703,-0.001594,0.000355,0.003992,0.000507
"2019-10-08 08:47:48.812 +0000",1570524468.811859,-2.223899,-0.953248,0.396606,-0.459873,0.815301,0.351855,0.000000,0.000000,0.000000,-1,0.002704,-0.005169,-0.002813,-0.000302,0.005271,0.002729
"2019-10-08 08:47:48.834 +0000",1570524468.834166,-2.223906,-0.953445,0.396737,-0.459744,0.815414,0.351760,0.000000,0.000000,0.000000,-1,0.003964,-0.005163,-0.001571,-0.002247,0.005631,0.002900
"2019-10-08 08:47:48.856 +0000",1570524468.856475,-2.224013,-0.953387,0.396747,-0.459743,0.815381,0.351838,0.000000,0.000000,0.000000,-1,0.000203,-0.002705,-0.001595,-0.000706,0.004809,0.004623
"2019-10-08 08:47:48.879 +0000",1570524468.878766,-2.223862,-0.953277,0.396841,-0.459867,0.815317,0.351823,0.000000,0.000000,0.000000,-1,-0.001042,0.004681,-0.000420,-0.001955,0.004721,0.000746
"2019-10-08 08:47:48.901 +0000",1570524468.901056,-2.223852,-0.953288,0.396852,-0.459864,0.815324,0.351813,0.000000,0.000000,0.000000,-1,0.003977,-0.000233,0.000866,-0.002935,0.003493,-0.002692
