timestamp,timeIntervalSince1970,attitude.roll,attitude.pitch,attitude.yaw,gravity.x,gravity.y,gravity.z,magneticField.x,magneticField.y,magneticField.z,magneticField.accuracy,rotationRate.x,rotationRate.y,rotationRate.z,userAcceleration.x,userAcceleration.y,userAcceleration.z
"2019-04-16 11:11:10.936 +0000",1555413070.936012,0.180977,0.664654,-0.063899,0.141676,-0.616787,-0.774275,0.000000,0.000000,0.000000,-1,-0.608220,0.036184,-0.319154,-0.005918,0.018551,0.028196
"2019-04-16 11:11:10.956 +0000",1555413070.956004,0.185120,0.651786,-0.068254,0.146332,-0.606608,-0.781418,0.000000,0.000000,0.000000,-1,-0.550126,0.108944,-0.267052,-0.002380,0.044794,-0.072204
"2019-04-16 11:11:10.976 +0000",1555413070.975977,0.189291,0.642998,-0.071772,0.150587,-0.599598,-0.786007,0.000000,0.000000,0.000000,-1,-0.331380,0.051858,-0.181477,0.023470,0.027057,-0.090290
"2019-04-16 11:11:10.996 +0000",1555413070.995932,0.187250,0.637865,-0.073156,0.149554,-0.595482,-0.789326,0.000000,0.000000,0.000000,-1,-0.183161,-0.276181,-0.054175,0.040769,0.019661,-0.098797
"2019-04-16 11:11:11.016 +0000",1555413071.015921,0.177116,0.636966,-0.071112,0.141641,-0.594759,-0.791328,0.000000,0.000000,0.000000,-1,0.025392,-0.475038,0.149575,0.065696,0.035448,-0.090325
"2019-04-16 11:11:11.036 +0000",1555413071.035880,0.164588,0.638507,-0.065732,0.131566,-0.595997,-0.792135,0.000000,0.000000,0.000000,-1,0.025722,-0.451088,0.253729,0.042567,0.009007,-0.074167
"2019-04-16 11:11:11.056 +0000",1555413071.055866,0.153941,0.638820,-0.059951,0.123096,-0.596249,-0.793306,0.000000,0.000000,0.000000,-1,-0.039971,-0.275282,0.202303,0.021343,0.004971,-0.073454
"2019-04-16 11:11:11.076 +0000",1555413071.075839,0.149830,0.639122,-0.056601,0.119807,-0.596491,-0.793628,0.000000,0.000000,0.000000,-1,0.026727,-0.018503,0.097864,0.023717,0.013148,-0.072065
"2019-04-16 11:11:11.096 +0000",1555413071.095814,0.153744,0.634156,-0.057340,0.123365,-0.592498,-0.796070,0.000000,0.000000,0.000000,-1,0.150196,0.102916,0.059617,0.042682,0.015197,-0.065045
"2019-04-16 11:11:11.116 +0000",1555413071.115787,0.156203,0.638076,-0.056495,0.124960,-0.595651,-0.793464,0.000000,0.000000,0.000000,-1,0.195727,0.175390,0.069168,0.048655,0.016214,-0.034371
"2019-04-16 11:11:11.136 +0000",1555413071.135761,0.165449,0.638956,-0.058750,0.132204,-0.596358,-0.791757,0.000000,0.000000,0.000000,-1,0.136651,0.206163,0.092334,0.041640,0.013106,-0.017264
"2019-04-16 11:11:11.156 +0000",1555413071.155732,0.167536,0.641679,-0.056183,0.133585,-0.598541,-0.789876,0.000000,0.000000,0.000000,-1,0.115214,0.158547,0.142331,0.035589,0.025146,0.005940
"2019-04-16 11:11:11.176 +0000",1555413071.175694,0.172158,0.642870,-0.055457,0.137112,-0.599495,-0.788547,0.000000,0.000000,0.000000,-1,0.164503,0.089878,0.164804,0.024814,0.024208,0.008929
"2019-04-16 11:11:11.196 +0000",1555413071.195679,0.171873,0.647035,-0.052214,0.136459,-0.602823,-0.786119,0.000000,0.000000,0.000000,-1,0.184827,0.092048,0.158462,0.015382,0.031015,0.021562
"2019-04-16 11:11:11.216 +0000",1555413071.215629,0.174987,0.649732,-0.050870,0.138623,-0.604973,-0.784087,0.000000,0.000000,0.000000,-1,0.122843,0.127820,0.131668,0.015079,0.033531,0.031813
"2019-04-16 11:11:11.236 +0000",1555413071.235600,0.175981,0.651712,-0.048525,0.139192,-0.606549,-0.782767,0.000000,0.000000,0.000000,-1,0.059045,0.111430,0.095418,0.011672,0.036297,0.033103
"2019-04-16 11:11:11.256 +0000",1555413071.255600,0.178407,0.651916,-0.047676,0.141069,-0.606710,-0.782306,0.000000,0.000000,0.000000,-1,0.014416,0.109985,0.053845,-0.000062,0.047567,0.052478
"2019-04-16 11:11:11.276 +0000",1555413071.275571,0.180321,0.651352,-0.046942,0.142627,-0.606262,-0.782371,0.000000,0.000000,0.000000,-1,-0.069748,0.124252,0.004750,-0.005222,0.045837,0.060279
"2019-04-16 11:11:11.296 +0000",1555413071.295515,0.182933,0.648754,-0.046686,0.144956,-0.604194,-0.783542,0.000000,0.000000,0.000000,-1,-0.162670,0.142909,-0.012474,-0.006528,0.049339,0.072696
"2019-04-16 11:11:11.316 +0000",1555413071.315518,0.183923,0.644795,-0.044980,0.146168,-0.601035,-0.785743,0.000000,0.000000,0.000000,-1,-0.228987,0.062341,0.066187,-0.017948,0.089499,0.093848
"2019-04-16 11:11:11.335 +0000",1555413071.335464,0.180151,0.640289,-0.040305,0.143687,-0.597427,-0.788946,0.000000,0.000000,0.000000,-1,-0.267293,-0.129392,0.193976,-0.018733,0.099044,0.102926
"2019-04-16 11:11:11.355 +0000",1555413071.355461,0.169411,0.635628,-0.032207,0.135674,-0.593683,-0.793179,0.000000,0.000000,0.000000,-1,-0.300978,-0.404986,0.330404,-0.017388,0.100778,0.109036
"2019-04-16 11:11:11.375 +0000",1555413071.375436,0.150958,0.629954,-0.020529,0.121520,-0.589107,-0.798865,0.000000,0.000000,0.000000,-1,-0.397797,-0.677556,0.482649,-0.003707,0.103237,0.099158
"2019-04-16 11:11:11.395 +0000",1555413071.395407,0.125377,0.621724,-0.003761,0.101649,-0.582437,-0.806495,0.000000,0.000000,0.000000,-1,-0.580010,-0.824732,0.702578,-0.049601,0.107279,0.080741
"2019-04-16 11:11:11.415 +0000",1555413071.415381,0.097030,0.608963,0.017507,0.079463,-0.572017,-0.816383,0.000000,0.000000,0.000000,-1,-0.813796,-0.783568,0.822185,-0.027415,0.096859,0.090630
"2019-04-16 11:11:11.435 +0000",1555413071.435348,0.069936,0.592575,0.038621,0.057965,-0.558499,-0.827478,0.000000,0.000000,0.000000,-1,-0.913046,-0.751261,0.780475,-0.064313,0.091442,0.094140
"2019-04-16 11:11:11.455 +0000",1555413071.455326,0.043900,0.575826,0.057775,0.036809,-0.544528,-0.837935,0.000000,0.000000,0.000000,-1,-0.849534,-0.800112,0.738149,-0.062047,0.116626,0.143858
"2019-04-16 11:11:11.475 +0000",1555413071.475278,0.016311,0.560260,0.076479,0.013816,-0.531407,-0.847004,0.000000,0.000000,0.000000,-1,-0.812924,-0.929273,0.792637,-0.051155,0.106816,0.146046
"2019-04-16 11:11:11.495 +0000",1555413071.495260,-0.015520,0.540667,0.095861,-0.013306,-0.514708,-0.857262,0.000000,0.000000,0.000000,-1,-1.101333,-1.202181,0.829678,-0.047638,0.067030,0.149865
"2019-04-16 11:11:11.515 +0000",1555413071.515245,-0.051929,0.515201,0.112470,-0.045168,-0.492709,-0.869021,0.000000,0.000000,0.000000,-1,-1.313797,-1.514999,0.703205,-0.011488,0.068881,0.121783
"2019-04-16 11:11:11.535 +0000",1555413071.535215,-0.090307,0.487965,0.123999,-0.079658,-0.468830,-0.879689,0.000000,0.000000,0.000000,-1,-1.301261,-1.709157,0.548299,-0.033959,0.122974,0.117681
"2019-04-16 11:11:11.555 +0000",1555413071.555192,-0.129685,0.463287,0.132908,-0.115690,-0.446891,-0.887076,0.000000,0.000000,0.000000,-1,-1.112865,-1.781749,0.541343,-0.067553,0.160407,0.087287
"2019-04-16 11:11:11.575 +0000",1555413071.575164,-0.169697,0.440834,0.143061,-0.152738,-0.426694,-0.891405,0.000000,0.000000,0.000000,-1,-1.015348,-1.792299,0.676574,-0.025500,0.151288,0.095980
"2019-04-16 11:11:11.595 +0000",1555413071.595139,-0.212708,0.418656,0.155385,-0.192876,-0.406533,-0.893045,0.000000,0.000000,0.000000,-1,-0.962798,-1.997474,0.805628,-0.001475,0.146630,0.125910
"2019-04-16 11:11:11.615 +0000",1555413071.615111,-0.264299,0.396311,0.170067,-0.240985,-0.386018,-0.890459,0.000000,0.000000,0.000000,-1,-0.910361,-2.421498,0.977627,0.027088,0.091309,0.049379
"2019-04-16 11:11:11.635 +0000",1555413071.635076,-0.315498,0.373530,0.184013,-0.288894,-0.364904,-0.885090,0.000000,0.000000,0.000000,-1,-0.905659,-2.186084,0.896485,0.016799,0.168631,0.043217
"2019-04-16 11:11:11.655 +0000",1555413071.655055,-0.358321,0.350380,0.194808,-0.329395,-0.343254,-0.879588,0.000000,0.000000,0.000000,-1,-0.938412,-1.792174,0.878820,0.057300,0.146981,0.037715
"2019-04-16 11:11:11.675 +0000",1555413071.675025,-0.393705,0.325453,0.207772,-0.363475,-0.319738,-0.875016,0.000000,0.000000,0.000000,-1,-0.915958,-1.448577,1.136699,0.056087,0.223287,0.110307
"2019-04-16 11:11:11.695 +0000",1555413071.694994,-0.429113,0.299580,0.227199,-0.397533,-0.295119,-0.868834,0.000000,0.000000,0.000000,-1,-0.748766,-1.581838,1.508274,0.069607,0.254805,0.168043
"2019-04-16 11:11:11.715 +0000",1555413071.714973,-0.474736,0.272656,0.253574,-0.440218,-0.269290,-0.856558,0.000000,0.000000,0.000000,-1,-0.627658,-2.099997,1.854816,0.127489,0.256152,0.168142
"2019-04-16 11:11:11.735 +0000",1555413071.734947,-0.527234,0.241778,0.284594,-0.488510,-0.239430,-0.839066,0.000000,0.000000,0.000000,-1,-0.643952,-2.238445,2.188821,0.133530,0.293034,0.148255
"2019-04-16 11:11:11.755 +0000",1555413071.754915,-0.567435,0.205614,0.319967,-0.526149,-0.204168,-0.825520,0.000000,0.000000,0.000000,-1,-0.688852,-1.325188,2.537144,0.063426,0.318380,0.159885
"2019-04-16 11:11:11.775 +0000",1555413071.774887,-0.595751,0.160837,0.354138,-0.553888,-0.160144,-0.817044,0.000000,0.000000,0.000000,-1,-1.130435,-0.933248,2.649433,0.082621,0.229999,0.124463
"2019-04-16 11:11:11.795 +0000",1555413071.794842,-0.616786,0.106838,0.378609,-0.575118,-0.106635,-0.811091,0.000000,0.000000,0.000000,-1,-1.746678,-0.964287,2.474952,0.028594,0.277075,0.028376
"2019-04-16 11:11:11.815 +0000",1555413071.814831,-0.644596,0.046303,0.396147,-0.600231,-0.046286,-0.798486,0.000000,0.000000,0.000000,-1,-1.969489,-1.594764,2.545617,0.038311,0.251685,-0.030005
"2019-04-16 11:11:11.835 +0000",1555413071.834800,-0.689075,-0.012344,0.418028,-0.635775,0.012344,-0.771776,0.000000,0.000000,0.000000,-1,-1.316414,-2.609816,2.754693,0.004275,0.316819,-0.103682
"2019-04-16 11:11:11.855 +0000",1555413071.854786,-0.754288,-0.061836,0.454195,-0.683461,0.061796,-0.727366,0.000000,0.000000,0.000000,-1,-0.303915,-3.791096,3.191188,-0.161036,0.236666,-0.182897
"2019-04-16 11:11:11.875 +0000",1555413071.874746,-0.831180,-0.112973,0.503971,-0.734018,0.112733,-0.669708,0.000000,0.000000,0.000000,-1,0.049452,-4.007532,3.756754,-0.209128,0.189650,-0.200607
"2019-04-16 11:11:11.895 +0000",1555413071.894731,-0.895983,-0.170548,0.554152,-0.769495,0.169723,-0.615687,0.000000,0.000000,0.000000,-1,-0.029002,-3.435341,3.736605,-0.268255,0.051011,-0.185308
"2019-04-16 11:11:11.915 +0000",1555413071.914701,-0.959810,-0.226231,0.593345,-0.798211,0.224306,-0.559058,0.000000,0.000000,0.000000,-1,-0.173742,-3.743904,3.178620,-0.538199,-0.031572,-0.320398
"2019-04-16 11:11:11.935 +0000",1555413071.934664,-1.028744,-0.275574,0.625938,-0.824330,0.272099,-0.496430,0.000000,0.000000,0.000000,-1,0.105430,-3.767313,2.779467,-0.492275,-0.105961,-0.359924
"2019-04-16 11:11:11.955 +0000",1555413071.954648,-1.080827,-0.313701,0.653768,-0.839287,0.308581,-0.447633,0.000000,0.000000,0.000000,-1,0.218215,-2.493063,2.016569,-0.399635,-0.090869,-0.258621
"2019-04-16 11:11:11.975 +0000",1555413071.974622,-1.112534,-0.344871,0.671425,-0.844017,0.338076,-0.416342,0.000000,0.000000,0.000000,-1,-0.105916,-1.570704,1.714732,-0.472237,-0.118471,-0.182749
"2019-04-16 11:11:11.995 +0000",1555413071.994593,-1.131833,-0.376950,0.680160,-0.841641,0.368086,-0.395163,0.000000,0.000000,0.000000,-1,-0.429646,-0.863425,1.517407,-0.423542,-0.155592,-0.143961
"2019-04-16 11:11:12.015 +0000",1555413072.014567,-1.149255,-0.403598,0.681625,-0.839147,0.392730,-0.376292,0.000000,0.000000,0.000000,-1,-0.510035,-1.148775,1.076463,-0.336848,-0.191893,-0.117147
"2019-04-16 11:11:12.035 +0000",1555413072.034543,-1.194503,-0.426124,0.679157,-0.846865,0.413344,-0.334614,0.000000,0.000000,0.000000,-1,-0.501890,-2.763940,1.003409,-0.242628,-0.158492,-0.043377
"2019-04-16 11:11:12.054 +0000",1555413072.054497,-1.254893,-0.450137,0.684099,-0.855833,0.435089,-0.279728,0.000000,0.000000,0.000000,-1,-0.040373,-3.240230,1.376085,-0.128695,-0.071014,0.015599
"2019-04-16 11:11:12.074 +0000",1555413072.074459,-1.311718,-0.479298,0.695503,-0.857706,0.461156,-0.227322,0.000000,0.000000,0.000000,-1,0.097809,-2.883811,1.564007,0.006479,-0.116918,0.028058
"2019-04-16 11:11:12.094 +0000",1555413072.094456,-1.352318,-0.505989,0.703056,-0.853903,0.484673,-0.189585,0.000000,0.000000,0.000000,-1,-0.066021,-1.757872,1.267500,-0.019572,-0.098641,-0.020177
"2019-04-16 11:11:12.114 +0000",1555413072.114426,-1.372296,-0.531067,0.705565,-0.845335,0.506453,-0.170038,0.000000,0.000000,0.000000,-1,-0.177130,-0.690394,1.311397,0.001433,-0.087569,-0.016348
"2019-04-16 11:11:12.134 +0000",1555413072.134378,-1.375082,-0.560520,0.708000,-0.830809,0.531626,-0.164710,0.000000,0.000000,0.000000,-1,-0.192795,0.036539,1.564373,0.024291,-0.043345,-0.017984
"2019-04-16 11:11:12.154 +0000",1555413072.154379,-1.370476,-0.595214,0.709951,-0.811470,0.560686,-0.164764,0.000000,0.000000,0.000000,-1,-0.341042,0.124432,1.811660,0.094231,-0.087450,-0.131760
"2019-04-16 11:11:12.174 +0000",1555413072.174338,-1.375990,-0.635069,0.706759,-0.789804,0.593233,-0.155835,0.000000,0.000000,0.000000,-1,-0.608187,-0.309069,1.993573,0.039132,-0.073870,-0.066302
"2019-04-16 11:11:12.194 +0000",1555413072.194325,-1.387945,-0.677394,0.699337,-0.766219,0.626764,-0.141687,0.000000,0.000000,0.000000,-1,-0.735897,-0.426361,2.007314,0.051162,0.007742,-0.084571
"2019-04-16 11:11:12.214 +0000",1555413072.214297,-1.409279,-0.719771,0.685462,-0.742170,0.659212,-0.120926,0.000000,0.000000,0.000000,-1,-1.004760,-0.755543,2.035973,0.019163,0.083570,-0.127548
"2019-04-16 11:11:12.234 +0000",1555413072.234265,-1.440978,-0.766338,0.664250,-0.714392,0.693502,-0.093266,0.000000,0.000000,0.000000,-1,-1.113570,-0.884166,2.292168,-0.024896,0.048213,-0.099117
"2019-04-16 11:11:12.254 +0000",1555413072.254244,-1.472502,-0.815319,0.644468,-0.682327,0.727944,-0.067286,0.000000,0.000000,0.000000,-1,-0.876631,-0.904192,2.342640,-0.137559,0.114280,-0.076589
"2019-04-16 11:11:12.274 +0000",1555413072.274218,-1.505330,-0.859519,0.628126,-0.651403,0.757529,-0.042706,0.000000,0.000000,0.000000,-1,-0.647141,-1.116550,2.006397,-0.187678,0.119897,-0.122302
"2019-04-16 11:11:12.294 +0000",1555413072.294176,-1.539867,-0.892908,0.614650,-0.626850,0.778899,-0.019395,0.000000,0.000000,0.000000,-1,-0.432520,-1.246472,1.411653,-0.259274,0.106828,-0.095458
"2019-04-16 11:11:12.314 +0000",1555413072.314162,-1.569106,-0.913659,0.606642,-0.610852,0.791744,-0.001032,0.000000,0.000000,0.000000,-1,-0.148007,-1.050917,0.837826,-0.271167,0.100620,-0.074407
"2019-04-16 11:11:12.334 +0000",1555413072.334137,-1.586379,-0.924164,0.609327,-0.602429,0.798118,0.009388,0.000000,0.000000,0.000000,-1,0.234752,-0.938502,0.335551,-0.187137,0.119454,-0.069935
"2019-04-16 11:11:12.354 +0000",1555413072.354110,-1.588450,-0.926600,0.624859,-0.600462,0.799583,0.010602,0.000000,0.000000,0.000000,-1,0.585214,-0.562766,0.022060,-0.098055,0.097695,-0.009503
"2019-04-16 11:11:12.374 +0000",1555413072.374066,-1.575754,-0.926321,0.646966,-0.600772,0.799415,0.002978,0.000000,0.000000,0.000000,-1,0.679238,-0.050636,-0.032738,-0.063794,0.079507,0.012647
"2019-04-16 11:11:12.394 +0000",1555413072.394040,-1.555664,-0.926361,0.666836,-0.600679,0.799439,-0.009090,0.000000,0.000000,0.000000,-1,0.524335,0.302939,0.044034,0.089875,0.047042,0.086818
"2019-04-16 11:11:12.414 +0000",1555413072.414027,-1.541634,-0.928436,0.678816,-0.598833,0.800684,-0.017469,0.000000,0.000000,0.000000,-1,0.258576,0.132444,0.141567,0.095491,0.047263,0.114133
"2019-04-16 11:11:12.434 +0000",1555413072.433993,-1.537528,-0.931302,0.684473,-0.596460,0.802398,-0.019851,0.000000,0.000000,0.000000,-1,0.137894,-0.093275,0.138474,0.064126,0.013505,0.135100
"2019-04-16 11:11:12.454 +0000",1555413072.453974,-1.535959,-0.933566,0.690027,-0.594611,0.803746,-0.020723,0.000000,0.000000,0.000000,-1,0.179972,-0.162243,0.123777,0.039344,0.014689,0.129930
"2019-04-16 11:11:12.474 +0000",1555413072.473945,-1.534299,-0.937326,0.696797,-0.591551,0.805978,-0.021600,0.000000,0.000000,0.000000,-1,0.197560,-0.203955,0.252516,0.045012,0.009421,0.105584
"2019-04-16 11:11:12.494 +0000",1555413072.493919,-1.533119,-0.944194,0.703622,-0.585980,0.810025,-0.022088,0.000000,0.000000,0.000000,-1,0.170077,-0.222387,0.397078,0.113980,0.037082,0.086496
"2019-04-16 11:11:12.514 +0000",1555413072.513891,-1.536937,-0.952437,0.706262,-0.579367,0.814830,-0.019625,0.000000,0.000000,0.000000,-1,-0.017408,-0.355823,0.416039,0.078543,0.000340,0.022615
"2019-04-16 11:11:12.534 +0000",1555413072.533852,-1.547547,-0.959792,0.702887,-0.573535,0.819072,-0.013337,0.000000,0.000000,0.000000,-1,-0.138492,-0.387615,0.325476,0.023395,0.009022,-0.003951
"2019-04-16 11:11:12.554 +0000",1555413072.553838,-1.557313,-0.966440,0.699009,-0.568181,0.822868,-0.007662,0.000000,0.000000,0.000000,-1,-0.084577,-0.305440,0.354166,0.030507,0.010292,-0.034254
"2019-04-16 11:11:12.574 +0000",1555413072.573811,-1.561417,-0.973345,0.699162,-0.562513,0.826772,-0.005276,0.000000,0.000000,0.000000,-1,0.053573,-0.121249,0.327589,-0.000964,0.007838,-0.063770
"2019-04-16 11:11:12.594 +0000",1555413072.593759,-1.556929,-0.979273,0.703753,-0.557573,0.830092,-0.007732,0.000000,0.000000,0.000000,-1,0.156381,0.112597,0.276413,-0.018218,0.009401,-0.071552
"2019-04-16 11:11:12.614 +0000",1555413072.613755,-1.547446,-0.983448,0.709433,-0.554004,0.832413,-0.012938,0.000000,0.000000,0.000000,-1,0.135723,0.322272,0.169743,-0.029217,-0.000489,-0.063997
"2019-04-16 11:11:12.634 +0000",1555413072.633730,-1.535930,-0.985041,0.712296,-0.552493,0.833295,-0.019271,0.000000,0.000000,0.000000,-1,0.044798,0.530358,0.024628,-0.050748,-0.010251,-0.038895
"2019-04-16 11:11:12.654 +0000",1555413072.653692,-1.524331,-0.984026,0.712397,-0.553077,0.832733,-0.025718,0.000000,0.000000,0.000000,-1,-0.023124,0.576218,-0.086145,-0.042367,-0.000870,-0.013467
"2019-04-16 11:11:12.674 +0000",1555413072.673673,-1.517226,-0.981657,0.708952,-0.554849,0.831419,-0.029752,0.000000,0.000000,0.000000,-1,-0.131075,0.434188,-0.141432,-0.030677,0.014330,-0.017444
"2019-04-16 11:11:12.694 +0000",1555413072.693622,-1.516703,-0.978572,0.702361,-0.557391,0.829701,-0.030180,0.000000,0.000000,0.000000,-1,-0.184373,0.222408,-0.169928,-0.024854,0.041530,-0.071794
"2019-04-16 11:11:12.714 +0000",1555413072.713598,-1.517679,-0.975673,0.696582,-0.559820,0.828079,-0.029764,0.000000,0.000000,0.000000,-1,-0.134365,0.238654,-0.149652,-0.013391,0.035767,-0.076666
"2019-04-16 11:11:12.734 +0000",1555413072.733574,-1.512306,-0.972943,0.692177,-0.561907,0.826546,-0.032904,0.000000,0.000000,0.000000,-1,-0.110525,0.590500,-0.129930,-0.008970,0.044792,-0.083048
"2019-04-16 11:11:12.754 +0000",1555413072.753567,-1.498484,-0.971136,0.688756,-0.562887,0.825527,-0.040775,0.000000,0.000000,0.000000,-1,-0.066786,0.993560,-0.084729,0.033392,0.023396,-0.048383
"2019-04-16 11:11:12.774 +0000",1555413072.773529,-1.473826,-0.969643,0.689176,-0.562937,0.824684,-0.054760,0.000000,0.000000,0.000000,-1,0.075805,1.306579,-0.063649,0.059321,0.020653,-0.022419
"2019-04-16 11:11:12.794 +0000",1555413072.793512,-1.443848,-0.968492,0.694608,-0.561984,0.824032,-0.071728,0.000000,0.000000,0.000000,-1,0.199946,1.210611,-0.024984,0.082080,0.000873,0.009579
"2019-04-16 11:11:12.813 +0000",1555413072.813485,-1.419279,-0.968285,0.702222,-0.560220,0.823915,-0.085539,0.000000,0.000000,0.000000,-1,0.202921,0.723385,0.044856,0.073908,0.009383,0.023130
"2019-04-16 11:11:12.833 +0000",1555413072.833446,-1.403686,-0.968842,0.707229,-0.558366,0.824231,-0.094187,0.000000,0.000000,0.000000,-1,0.092736,0.524320,0.051312,0.044374,-0.004834,0.011255
"2019-04-16 11:11:12.853 +0000",1555413072.853428,-1.392369,-0.969698,0.709204,-0.556570,0.824715,-0.100375,0.000000,0.000000,0.000000,-1,0.032078,0.477328,0.050198,0.021764,-0.005120,0.012393
"2019-04-16 11:11:12.873 +0000",1555413072.873404,-1.380610,-0.971186,0.711369,-0.554145,0.825556,-0.106680,0.000000,0.000000,0.000000,-1,0.059276,0.503351,0.125697,0.018943,0.020804,0.000327
"2019-04-16 11:11:12.893 +0000",1555413072.893371,-1.368153,-0.975811,0.714883,-0.549028,0.828157,-0.112805,0.000000,0.000000,0.000000,-1,0.039040,0.474583,0.317068,0.004961,0.021987,-0.023532
"2019-04-16 11:11:12.913 +0000",1555413072.913348,-1.355563,-0.983167,0.718561,-0.541598,0.832257,-0.118404,0.000000,0.000000,0.000000,-1,0.020403,0.466486,0.403158,-0.022505,-0.000592,-0.044834
"2019-04-16 11:11:12.933 +0000",1555413072.933322,-1.342064,-0.990873,0.722923,-0.533688,0.836505,-0.124246,0.000000,0.000000,0.000000,-1,0.044782,0.529162,0.385039,-0.057376,-0.023013,-0.069678
"2019-04-16 11:11:12.953 +0000",1555413072.953270,-1.325888,-0.996271,0.728103,-0.527220,0.839450,-0.131766,0.000000,0.000000,0.000000,-1,0.092225,0.627309,0.232956,-0.092088,-0.021487,-0.098688
"2019-04-16 11:11:12.973 +0000",1555413072.973269,-1.306683,-0.997657,0.733634,-0.523469,0.840203,-0.141562,0.000000,0.000000,0.000000,-1,0.151356,0.812292,0.022294,-0.103392,-0.015999,-0.087671
"2019-04-16 11:11:12.993 +0000",1555413072.993233,-1.283037,-0.994273,0.738960,-0.522699,0.838363,-0.154705,0.000000,0.000000,0.000000,-1,0.204023,1.040664,-0.213963,-0.079154,-0.010467,-0.066425
"2019-04-16 11:11:13.013 +0000",1555413073.013213,-1.256508,-0.986487,0.743444,-0.524603,0.834093,-0.170529,0.000000,0.000000,0.000000,-1,0.251369,1.187555,-0.388445,-0.065469,0.002150,-0.066517
"2019-04-16 11:11:13.033 +0000",1555413073.033156,-1.228794,-0.976878,0.748270,-0.527202,0.828754,-0.187679,0.000000,0.000000,0.000000,-1,0.302902,1.170598,-0.418085,-0.027790,0.017422,-0.066395
"2019-04-16 11:11:13.053 +0000",1555413073.053139,-1.199905,-0.967130,0.755415,-0.529066,0.823260,-0.205748,0.000000,0.000000,0.000000,-1,0.397728,1.125718,-0.341281,0.022596,0.033201,-0.043062
"2019-04-16 11:11:13.073 +0000",1555413073.073133,-1.171719,-0.960451,0.765912,-0.528112,0.819450,-0.222708,0.000000,0.000000,0.000000,-1,0.376152,0.891019,-0.118774,0.031515,0.033623,-0.024378
"2019-04-16 11:11:13.093 +0000",1555413073.093108,-1.149506,-0.957260,0.774181,-0.525419,0.817617,-0.235451,0.000000,0.000000,0.000000,-1,0.224853,0.698618,-0.030547,0.059217,0.021998,-0.009864
"2019-04-16 11:11:13.113 +0000",1555413073.113080,-1.134666,-0.955412,0.779366,-0.523236,0.816552,-0.243860,0.000000,0.000000,0.000000,-1,0.159856,0.421166,-0.015378,0.077588,0.015480,0.004129
"2019-04-16 11:11:13.133 +0000",1555413073.133022,-1.126143,-0.954109,0.784712,-0.522098,0.815799,-0.248768,0.000000,0.000000,0.000000,-1,0.180493,0.071968,0.027711,0.080463,0.023450,0.012684
"2019-04-16 11:11:13.153 +0000",1555413073.153006,-1.123785,-0.953832,0.792192,-0.521714,0.815639,-0.250097,0.000000,0.000000,0.000000,-1,0.212917,-0.343851,0.117702,0.082307,0.032476,0.020345
"2019-04-16 11:11:13.173 +0000",1555413073.172997,-1.126450,-0.955416,0.802328,-0.521212,0.816554,-0.248150,0.000000,0.000000,0.000000,-1,0.239111,-0.617146,0.242552,0.040667,0.035207,0.006145
"2019-04-16 11:11:13.193 +0000",1555413073.192941,-1.127736,-0.958884,0.814641,-0.518969,0.818551,-0.246263,0.000000,0.000000,0.000000,-1,0.245505,-0.521989,0.347675,0.016421,0.027076,0.011018
"2019-04-16 11:11:13.213 +0000",1555413073.212944,-1.126311,-0.964004,0.826501,-0.514827,0.821482,-0.245197,0.000000,0.000000,0.000000,-1,0.158963,-0.338353,0.382312,0.002803,0.019903,0.011692
"2019-04-16 11:11:13.233 +0000",1555413073.232916,-1.126670,-0.971009,0.832608,-0.509706,0.825456,-0.242534,0.000000,0.000000,0.000000,-1,0.080277,-0.158245,0.354257,-0.013320,0.014678,0.011806
"2019-04-16 11:11:13.253 +0000",1555413073.252889,-1.123933,-0.975336,0.838496,-0.505814,0.827891,-0.242382,0.000000,0.000000,0.000000,-1,0.033053,-0.056683,0.311470,-0.020263,0.013265,-0.005253
"2019-04-16 11:11:13.273 +0000",1555413073.272861,-1.120278,-0.980102,0.843437,-0.501367,0.830554,-0.242509,0.000000,0.000000,0.000000,-1,0.018240,-0.015622,0.255032,-0.025870,0.015744,-0.005187
"2019-04-16 11:11:13.293 +0000",1555413073.292833,-1.116659,-0.983051,0.848657,-0.498284,0.832193,-0.243246,0.000000,0.000000,0.000000,-1,0.039135,-0.078480,0.206253,-0.013420,0.012946,-0.010721
"2019-04-16 11:11:13.313 +0000",1555413073.312809,-1.115737,-0.985607,0.853044,-0.496147,0.833607,-0.242770,0.000000,0.000000,0.000000,-1,0.060253,-0.172230,0.143710,-0.016319,0.010036,-0.009015
"2019-04-16 11:11:13.333 +0000",1555413073.332769,-1.116898,-0.986815,0.856755,-0.495523,0.834274,-0.241752,0.000000,0.000000,0.000000,-1,0.065206,-0.232067,0.077893,-0.008552,0.006073,-0.014398
"2019-04-16 11:11:13.353 +0000",1555413073.352751,-1.113183,-0.984019,0.865133,-0.496712,0.832729,-0.244621,0.000000,0.000000,0.000000,-1,0.060151,-0.267170,0.064078,-0.017189,0.009617,-0.029427
"2019-04-16 11:11:13.373 +0000",1555413073.372726,-1.110717,-0.982401,0.871238,-0.497314,0.831832,-0.246443,0.000000,0.000000,0.000000,-1,0.084198,-0.117413,0.035179,-0.016205,0.008256,-0.030840
"2019-04-16 11:11:13.393 +0000",1555413073.392675,-1.103149,-0.980000,0.878577,-0.497216,0.830497,-0.251099,0.000000,0.000000,0.000000,-1,0.084682,0.050303,0.003017,-0.005790,0.011666,-0.020432
"2019-04-16 11:11:13.413 +0000",1555413073.412674,-1.094901,-0.981097,0.884355,-0.494318,0.831108,-0.254774,0.000000,0.000000,0.000000,-1,0.073468,0.135373,0.023092,0.012384,0.017632,-0.010775
"2019-04-16 11:11:13.433 +0000",1555413073.432634,-1.088436,-0.982639,0.888676,-0.491525,0.831964,-0.257369,0.000000,0.000000,0.000000,-1,0.042417,0.085609,0.074151,0.015435,0.014761,-0.011445
"2019-04-16 11:11:13.453 +0000",1555413073.452619,-1.081825,-0.985595,0.894258,-0.487639,0.833601,-0.259457,0.000000,0.000000,0.000000,-1,0.058583,0.032659,0.091301,0.017027,0.004641,-0.003788
"2019-04-16 11:11:13.473 +0000",1555413073.472592,-1.077104,-0.987813,0.899485,-0.484779,0.834824,-0.260879,0.000000,0.000000,0.000000,-1,0.066526,-0.043893,0.073377,0.017830,-0.001755,0.000076
"2019-04-16 11:11:13.493 +0000",1555413073.492538,-1.075236,-0.988833,0.903213,-0.483542,0.835385,-0.261379,0.000000,0.000000,0.000000,-1,0.030757,-0.104824,0.029819,0.006765,-0.003247,-0.000980
"2019-04-16 11:11:13.513 +0000",1555413073.512537,-1.076405,-0.989138,0.903652,-0.483623,0.835553,-0.260693,0.000000,0.000000,0.000000,-1,-0.007759,-0.055212,-0.000098,0.004543,0.001499,-0.000095
"2019-04-16 11:11:13.533 +0000",1555413073.532509,-1.076990,-0.989780,0.903120,-0.483303,0.835905,-0.260155,0.000000,0.000000,0.000000,-1,-0.039967,-0.004422,-0.014051,0.003704,0.010713,-0.003333
"2019-04-16 11:11:13.552 +0000",1555413073.552482,-1.076123,-0.990718,0.902981,-0.482386,0.836420,-0.260202,0.000000,0.000000,0.000000,-1,-0.046542,0.038019,-0.020491,0.004008,0.017996,-0.013205
"2019-04-16 11:11:13.572 +0000",1555413073.572453,-1.075041,-0.991165,0.902323,-0.481776,0.836665,-0.260546,0.000000,0.000000,0.000000,-1,-0.032925,0.082750,-0.010956,0.006388,0.017095,-0.013547
"2019-04-16 11:11:13.592 +0000",1555413073.592401,-1.072188,-0.992066,0.902635,-0.480368,0.837158,-0.261559,0.000000,0.000000,0.000000,-1,-0.035171,0.108234,-0.013109,0.009177,0.010254,-0.010231
"2019-04-16 11:11:13.612 +0000",1555413073.612401,-1.070861,-0.992446,0.901463,-0.479741,0.837366,-0.262044,0.000000,0.000000,0.000000,-1,-0.052165,0.098561,-0.021628,0.010137,0.007757,-0.008037
"2019-04-16 11:11:13.632 +0000",1555413073.632355,-1.070504,-0.992903,0.899698,-0.479312,0.837615,-0.262031,0.000000,0.000000,0.000000,-1,-0.069038,0.063393,-0.030108,0.009464,0.010377,-0.014519
"2019-04-16 11:11:13.652 +0000",1555413073.652345,-1.069117,-0.993643,0.899085,-0.478405,0.838019,-0.262398,0.000000,0.000000,0.000000,-1,-0.073316,0.053778,-0.023778,0.011425,0.015359,-0.020760
"2019-04-16 11:11:13.672 +0000",1555413073.672319,-1.068159,-0.994632,0.898547,-0.477426,0.838559,-0.262457,0.000000,0.000000,0.000000,-1,-0.058458,0.030667,0.011378,0.018457,0.018421,-0.026987
"2019-04-16 11:11:13.692 +0000",1555413073.692288,-1.064788,-0.996212,0.901199,-0.475380,0.839418,-0.263422,0.000000,0.000000,0.000000,-1,-0.015743,-0.014611,0.050881,0.018089,0.009306,-0.023642
"2019-04-16 11:11:13.712 +0000",1555413073.712267,-1.061020,-0.997475,0.905462,-0.473458,0.840104,-0.264694,0.000000,0.000000,0.000000,-1,0.042017,-0.044050,0.062746,0.013878,0.005462,-0.019913
"2019-04-16 11:11:13.732 +0000",1555413073.732209,-1.058671,-0.998180,0.909162,-0.472319,0.840486,-0.265515,0.000000,0.000000,0.000000,-1,0.064585,-0.053601,0.047927,0.018065,0.004393,-0.008578
"2019-04-16 11:11:13.752 +0000",1555413073.752211,-1.055888,-0.999520,0.913056,-0.470597,0.841211,-0.266273,0.000000,0.000000,0.000000,-1,0.031409,-0.046267,0.052116,0.019776,0.009130,-0.007332
"2019-04-16 11:11:13.772 +0000",1555413073.772186,-1.052660,-1.001743,0.916326,-0.468110,0.842411,-0.266865,0.000000,0.000000,0.000000,-1,0.003087,0.027111,0.084924,0.023652,0.012722,-0.007305
"2019-04-16 11:11:13.792 +0000",1555413073.792150,-1.048016,-1.005015,0.919928,-0.464474,0.844170,-0.267657,0.000000,0.000000,0.000000,-1,-0.006890,0.055967,0.122091,0.023877,0.016120,-0.005887
"2019-04-16 11:11:13.812 +0000",1555413073.812130,-1.044499,-1.008641,0.923037,-0.460880,0.846108,-0.267750,0.000000,0.000000,0.000000,-1,0.002736,0.014738,0.151956,0.009327,0.023566,0.003697
"2019-04-16 11:11:13.832 +0000",1555413073.832104,-1.042523,-1.012155,0.926017,-0.457780,0.847976,-0.267160,0.000000,0.000000,0.000000,-1,0.003901,-0.039300,0.177561,-0.005355,0.016419,0.005167
"2019-04-16 11:11:13.852 +0000",1555413073.852077,-1.043645,-1.014996,0.926906,-0.455995,0.849478,-0.265433,0.000000,0.000000,0.000000,-1,-0.029040,-0.069223,0.171150,-0.024580,0.007761,0.008796
"2019-04-16 11:11:13.872 +0000",1555413073.872049,-1.045414,-1.017826,0.927010,-0.454382,0.850968,-0.263419,0.000000,0.000000,0.000000,-1,-0.077922,-0.084465,0.140236,-0.030054,0.004165,0.007041
"2019-04-16 11:11:13.892 +0000",1555413073.892013,-1.050525,-1.019107,0.923790,-0.454777,0.851640,-0.260552,0.000000,0.000000,0.000000,-1,-0.112932,-0.084831,0.100802,-0.045040,0.009764,-0.007286
"2019-04-16 11:11:13.912 +0000",1555413073.911992,-1.053909,-1.021510,0.921227,-0.453875,0.852897,-0.257999,0.000000,0.000000,0.000000,-1,-0.116038,-0.041569,0.049700,-0.051099,0.014824,-0.009121
"2019-04-16 11:11:13.932 +0000",1555413073.931967,-1.056662,-1.022839,0.918069,-0.453597,0.853590,-0.256191,0.000000,0.000000,0.000000,-1,-0.094681,0.018811,0.002873,-0.052354,0.011339,-0.016880
"2019-04-16 11:11:13.952 +0000",1555413073.951918,-1.058376,-1.022345,0.914967,-0.454402,0.853333,-0.255620,0.000000,0.000000,0.000000,-1,-0.056299,0.074035,-0.027976,-0.041982,0.004882,-0.017619
"2019-04-16 11:11:13.972 +0000",1555413073.971914,-1.057732,-1.021034,0.913271,-0.455211,0.852649,-0.256461,0.000000,0.000000,0.000000,-1,0.005402,0.132692,-0.031143,-0.039875,-0.000430,-0.010125
"2019-04-16 11:11:13.992 +0000",1555413073.991886,-1.054539,-1.019547,0.913665,-0.455493,0.851871,-0.258539,0.000000,0.000000,0.000000,-1,0.056388,0.161718,-0.005581,-0.031080,-0.014911,0.002634
"2019-04-16 11:11:14.012 +0000",1555413074.011861,-1.051304,-1.017072,0.914130,-0.456483,0.850572,-0.261057,0.000000,0.000000,0.000000,-1,0.072284,0.179874,0.001836,-0.030791,-0.030214,0.014582
"2019-04-16 11:11:14.032 +0000",1555413074.031817,-1.048089,-1.015580,0.914512,-0.456740,0.849786,-0.263157,0.000000,0.000000,0.000000,-1,0.047929,0.152072,-0.012007,-0.033662,-0.026208,0.018909
"2019-04-16 11:11:14.052 +0000",1555413074.051806,-1.047342,-1.013895,0.913336,-0.457783,0.848897,-0.264213,0.000000,0.000000,0.000000,-1,0.023838,0.087005,-0.040680,-0.043117,-0.020375,0.028511
"2019-04-16 11:11:14.072 +0000",1555413074.071778,-1.051918,-1.011479,0.908562,-0.460767,0.847618,-0.263132,0.000000,0.000000,0.000000,-1,-0.029990,-0.004796,-0.077891,-0.036868,-0.008628,0.020853
"2019-04-16 11:11:14.092 +0000",1555413074.091734,-1.059658,-1.009356,0.901518,-0.464358,0.846489,-0.260437,0.000000,0.000000,0.000000,-1,-0.089309,-0.058400,-0.120478,-0.037595,0.009437,0.012772
"2019-04-16 11:11:14.112 +0000",1555413074.111724,-1.068118,-1.007581,0.894192,-0.467861,0.845543,-0.257223,0.000000,0.000000,0.000000,-1,-0.102978,-0.098864,-0.125774,-0.029881,0.023003,0.004751
"2019-04-16 11:11:14.132 +0000",1555413074.131697,-1.076078,-1.006193,0.888098,-0.470926,0.844801,-0.254048,0.000000,0.000000,0.000000,-1,-0.085653,-0.148730,-0.125669,-0.019766,0.030092,-0.005504
"2019-04-16 11:11:14.152 +0000",1555413074.151669,-1.082767,-1.004448,0.883796,-0.473916,0.843866,-0.251583,0.000000,0.000000,0.000000,-1,-0.061034,-0.151846,-0.130932,-0.015418,0.028387,-0.020527
"2019-04-16 11:11:14.172 +0000",1555413074.171642,-1.087601,-1.001997,0.880386,-0.476957,0.842548,-0.250249,0.000000,0.000000,0.000000,-1,-0.025902,-0.071205,-0.174571,-0.003527,0.024166,-0.025797
"2019-04-16 11:11:14.192 +0000",1555413074.191597,-1.090767,-0.998539,0.876722,-0.480328,0.840681,-0.250082,0.000000,0.000000,0.000000,-1,0.002643,0.024373,-0.201236,0.025433,0.041110,-0.021814
"2019-04-16 11:11:14.212 +0000",1555413074.211588,-1.089922,-0.996236,0.876087,-0.481832,0.839432,-0.251382,0.000000,0.000000,0.000000,-1,0.052366,0.052523,-0.142685,0.037114,0.045044,-0.018653
"2019-04-16 11:11:14.232 +0000",1555413074.231549,-1.088098,-0.993821,0.877363,-0.483166,0.838117,-0.253201,0.000000,0.000000,0.000000,-1,0.102208,0.023441,-0.058553,0.055173,0.043262,-0.004642
"2019-04-16 11:11:14.252 +0000",1555413074.251531,-1.085497,-0.992739,0.880737,-0.483309,0.837525,-0.254880,0.000000,0.000000,0.000000,-1,0.103049,-0.034521,0.025525,0.052339,0.023360,0.003400
"2019-04-16 11:11:14.272 +0000",1555413074.271508,-1.083828,-0.992966,0.884443,-0.482714,0.837649,-0.255598,0.000000,0.000000,0.000000,-1,0.074218,-0.092818,0.070207,0.047107,0.007260,-0.000796
"2019-04-16 11:11:14.291 +0000",1555413074.291473,-1.082588,-0.994532,0.888831,-0.481238,0.838504,-0.255580,0.000000,0.000000,0.000000,-1,0.071327,-0.162923,0.073511,0.038656,0.003354,-0.001882
"2019-04-16 11:11:14.311 +0000",1555413074.311455,-1.083275,-0.994966,0.892733,-0.481091,0.838741,-0.255079,0.000000,0.000000,0.000000,-1,0.091892,-0.212801,0.068311,0.019162,0.018758,-0.003390
"2019-04-16 11:11:14.331 +0000",1555413074.331427,-1.083291,-0.995859,0.897545,-0.480434,0.839226,-0.254720,0.000000,0.000000,0.000000,-1,0.103500,-0.196760,0.078951,0.010555,0.020927,-0.000773
"2019-04-16 11:11:14.351 +0000",1555413074.351389,-1.082850,-0.996678,0.902119,-0.479714,0.839672,-0.254610,0.000000,0.000000,0.000000,-1,0.081810,-0.156353,0.101174,0.012841,0.005345,-0.003127
"2019-04-16 11:11:14.371 +0000",1555413074.371372,-1.080912,-0.998178,0.907136,-0.478108,0.840485,-0.254946,0.000000,0.000000,0.000000,-1,0.077383,-0.111801,0.091540,0.014073,-0.002854,-0.001066
"2019-04-16 11:11:14.391 +0000",1555413074.391318,-1.078851,-0.999368,0.911731,-0.476699,0.841129,-0.255458,0.000000,0.000000,0.000000,-1,0.064676,-0.113003,0.074517,0.015548,-0.006809,-0.005375
"2019-04-16 11:11:14.411 +0000",1555413074.411316,-1.077231,-0.999943,0.916120,-0.475859,0.841440,-0.256001,0.000000,0.000000,0.000000,-1,0.071110,-0.124622,0.080927,0.001921,-0.008326,-0.006587
"2019-04-16 11:11:14.431 +0000",1555413074.431291,-1.076014,-1.000012,0.920605,-0.475496,0.841478,-0.256552,0.000000,0.000000,0.000000,-1,0.093670,-0.139450,0.072484,-0.009642,-0.002549,-0.006524
"2019-04-16 11:11:14.451 +0000",1555413074.451263,-1.075792,-0.999310,0.924252,-0.475959,0.841098,-0.256939,0.000000,0.000000,0.000000,-1,0.093840,-0.129028,0.036309,-0.023171,0.012021,-0.005787
"2019-04-16 11:11:14.471 +0000",1555413074.471236,-1.075803,-0.998014,0.926429,-0.476920,0.840397,-0.257451,0.000000,0.000000,0.000000,-1,0.062797,-0.046590,-0.018109,-0.020135,0.009686,-0.006084
"2019-04-16 11:11:14.491 +0000",1555413074.491190,-1.075613,-0.996038,0.926359,-0.478332,0.839324,-0.258330,0.000000,0.000000,0.000000,-1,0.039140,0.057111,-0.074670,-0.023286,0.024263,0.008040
"2019-04-16 11:11:14.511 +0000",1555413074.511183,-1.075525,-0.994132,0.924549,-0.479716,0.838286,-0.259132,0.000000,0.000000,0.000000,-1,0.024104,0.121630,-0.114136,-0.024526,0.033235,0.020088
"2019-04-16 11:11:14.531 +0000",1555413074.531132,-1.076686,-0.992121,0.920198,-0.481500,0.837188,-0.259374,0.000000,0.000000,0.000000,-1,0.001562,0.199874,-0.162141,-0.002433,0.011476,0.031011
"2019-04-16 11:11:14.551 +0000",1555413074.551104,-1.075166,-0.989839,0.915508,-0.482784,0.835938,-0.261013,0.000000,0.000000,0.000000,-1,-0.049037,0.328001,-0.200696,0.023723,0.007919,0.027905
"2019-04-16 11:11:14.571 +0000",1555413074.571100,-1.072650,-0.987693,0.909629,-0.483700,0.834758,-0.263083,0.000000,0.000000,0.000000,-1,-0.114802,0.380124,-0.141369,0.040860,0.012089,0.018699
"2019-04-16 11:11:14.591 +0000",1555413074.591069,-1.070731,-0.987739,0.904331,-0.483161,0.834783,-0.263993,0.000000,0.000000,0.000000,-1,-0.126693,0.263859,-0.025335,0.037971,0.017909,0.008302
"2019-04-16 11:11:14.611 +0000",1555413074.611046,-1.069219,-0.989786,0.902726,-0.481262,0.835909,-0.263901,0.000000,0.000000,0.000000,-1,-0.051403,0.045799,0.062332,0.013428,0.010085,-0.008361
"2019-04-16 11:11:14.631 +0000",1555413074.631019,-1.069754,-0.991161,0.904307,-0.480394,0.836663,-0.263091,0.000000,0.000000,0.000000,-1,0.035981,-0.159838,0.083015,-0.011564,0.007347,-0.010285
"2019-04-16 11:11:14.651 +0000",1555413074.650992,-1.071270,-0.991265,0.907501,-0.480717,0.836719,-0.262321,0.000000,0.000000,0.000000,-1,0.077108,-0.224684,0.045977,-0.019344,0.008450,-0.010567
"2019-04-16 11:11:14.671 +0000",1555413074.670965,-1.072716,-0.990749,0.910279,-0.481474,0.836437,-0.261832,0.000000,0.000000,0.000000,-1,0.079154,-0.144257,-0.004148,-0.026079,0.014409,-0.012506
"2019-04-16 11:11:14.691 +0000",1555413074.690930,-1.071108,-0.990274,0.913145,-0.481401,0.836177,-0.262796,0.000000,0.000000,0.000000,-1,0.069786,-0.000745,0.019012,-0.006285,0.031713,-0.012732
"2019-04-16 11:11:14.711 +0000",1555413074.710912,-1.068324,-0.990842,0.916221,-0.480252,0.836488,-0.263906,0.000000,0.000000,0.000000,-1,0.060769,0.005999,0.092342,0.008770,0.018157,0.000356
"2019-04-16 11:11:14.731 +0000",1555413074.730884,-1.065294,-0.992408,0.920680,-0.478303,0.837345,-0.264726,0.000000,0.000000,0.000000,-1,0.084533,-0.077709,0.114845,0.012788,-0.000889,0.005021
"2019-04-16 11:11:14.751 +0000",1555413074.750856,-1.064601,-0.993187,0.925337,-0.477549,0.837770,-0.264741,0.000000,0.000000,0.000000,-1,0.094972,-0.209582,0.082105,0.011332,-0.008623,0.013062
"2019-04-16 11:11:14.771 +0000",1555413074.770829,-1.067788,-0.993747,0.928215,-0.477979,0.838076,-0.262991,0.000000,0.000000,0.000000,-1,0.064606,-0.292777,0.044960,0.006681,-0.004046,0.021002
"2019-04-16 11:11:14.791 +0000",1555413074.790776,-1.074761,-0.994713,0.927893,-0.479089,0.838603,-0.259266,0.000000,0.000000,0.000000,-1,-0.018574,-0.309122,0.032061,0.000985,0.003545,0.017781
"2019-04-16 11:11:14.811 +0000",1555413074.810776,-1.083025,-0.996115,0.925680,-0.480176,0.839366,-0.254747,0.000000,0.000000,0.000000,-1,-0.095439,-0.321112,0.032989,0.000333,0.002462,0.009905
"2019-04-16 11:11:14.831 +0000",1555413074.830746,-1.092915,-0.998066,0.922516,-0.481217,0.840425,-0.249232,0.000000,0.000000,0.000000,-1,-0.099501,-0.373156,0.038377,0.008698,-0.004228,0.004710
"2019-04-16 11:11:14.851 +0000",1555413074.850720,-1.103023,-0.999654,0.920061,-0.482520,0.841284,-0.243754,0.000000,0.000000,0.000000,-1,-0.103458,-0.432693,0.033143,0.008491,-0.008337,-0.001043
"2019-04-16 11:11:14.871 +0000",1555413074.870693,-1.115743,-1.001335,0.916493,-0.484310,0.842192,-0.236974,0.000000,0.000000,0.000000,-1,-0.149918,-0.533853,0.023635,0.009518,-0.006346,-0.009028
"2019-04-16 11:11:14.891 +0000",1555413074.890667,-1.130669,-1.003221,0.912718,-0.486356,0.843207,-0.229042,0.000000,0.000000,0.000000,-1,-0.178381,-0.647474,0.052455,-0.001926,0.005182,-0.036232
"2019-04-16 11:11:14.911 +0000",1555413074.910640,-1.145860,-1.005828,0.908490,-0.487774,0.844606,-0.220721,0.000000,0.000000,0.000000,-1,-0.187641,-0.529438,0.078839,-0.019596,0.024718,-0.051420
"2019-04-16 11:11:14.931 +0000",1555413074.930612,-1.156806,-1.008291,0.904231,-0.488255,0.845922,-0.214531,0.000000,0.000000,0.000000,-1,-0.185406,-0.306406,0.064688,-0.031002,0.037425,-0.063240
"2019-04-16 11:11:14.951 +0000",1555413074.950586,-1.165105,-1.010495,0.899557,-0.488304,0.847095,-0.209736,0.000000,0.000000,0.000000,-1,-0.136767,-0.172485,0.041195,-0.037865,0.042034,-0.053097
"2019-04-16 11:11:14.971 +0000",1555413074.970559,-1.168899,-1.010660,0.897743,-0.488968,0.847183,-0.207826,0.000000,0.000000,0.000000,-1,-0.057620,-0.117245,-0.017207,-0.036057,0.034302,-0.042479
"2019-04-16 11:11:14.991 +0000",1555413074.990513,-1.172392,-1.009534,0.895737,-0.490570,0.846584,-0.206487,0.000000,0.000000,0.000000,-1,-0.020005,-0.052786,-0.106533,-0.039887,0.032505,-0.044626
"2019-04-16 11:11:15.011 +0000",1555413075.010505,-1.172066,-1.005941,0.892652,-0.493302,0.844666,-0.207827,0.000000,0.000000,0.000000,-1,-0.064795,0.266332,-0.193225,-0.038528,0.018218,-0.035368
"2019-04-16 11:11:15.030 +0000",1555413075.030478,-1.168689,-1.002368,0.885638,-0.495372,0.842748,-0.210671,0.000000,0.000000,0.000000,-1,-0.127782,0.569531,-0.262910,-0.027531,0.025386,-0.023551
"2019-04-16 11:11:15.050 +0000",1555413075.050450,-1.163890,-0.997647,0.875723,-0.498004,0.840197,-0.214619,0.000000,0.000000,0.000000,-1,-0.167265,0.693087,-0.368426,0.001040,0.048505,0.005680
"2019-04-16 11:11:15.070 +0000",1555413075.070354,-1.160637,-0.991368,0.862999,-0.502131,0.836776,-0.218337,0.000000,0.000000,0.000000,-1,-0.209523,0.705178,-0.456769,0.008234,0.052583,0.001982
"2019-04-16 11:11:15.090 +0000",1555413075.090307,-1.157915,-0.984451,0.848107,-0.506824,0.832969,-0.222020,0.000000,0.000000,0.000000,-1,-0.257760,0.784468,-0.492068,0.023914,0.056863,0.022984
"2019-04-16 11:11:15.110 +0000",1555413075.110301,-1.156940,-0.977627,0.830715,-0.511800,0.829173,-0.224795,0.000000,0.000000,0.000000,-1,-0.338642,0.748963,-0.514503,0.051045,0.027928,0.025439
"2019-04-16 11:11:15.130 +0000",1555413075.130260,-1.160006,-0.971081,0.811015,-0.517452,0.825496,-0.225387,0.000000,0.000000,0.000000,-1,-0.385845,0.593554,-0.535627,0.065075,0.019169,0.024688
"2019-04-16 11:11:15.150 +0000",1555413075.150233,-1.167185,-0.963605,0.791439,-0.524717,0.821254,-0.224084,0.000000,0.000000,0.000000,-1,-0.336397,0.362961,-0.581963,0.057386,-0.005275,0.007394
"2019-04-16 11:11:15.170 +0000",1555413075.170219,-1.176133,-0.954815,0.774822,-0.533345,0.816207,-0.222147,0.000000,0.000000,0.000000,-1,-0.230743,0.168930,-0.588903,0.047429,0.003388,-0.019110
"2019-04-16 11:11:15.190 +0000",1555413075.190192,-1.183056,-0.945909,0.761780,-0.541578,0.811029,-0.221189,0.000000,0.000000,0.000000,-1,-0.153522,0.249261,-0.526143,0.027739,0.007056,-0.030428
"2019-04-16 11:11:15.210 +0000",1555413075.210165,-1.180965,-0.938728,0.752536,-0.546488,0.806807,-0.224529,0.000000,0.000000,0.000000,-1,-0.100699,0.627461,-0.372445,0.015985,0.016618,-0.025898
"2019-04-16 11:11:15.230 +0000",1555413075.230138,-1.169813,-0.934617,0.746073,-0.546999,0.804372,-0.231901,0.000000,0.000000,0.000000,-1,-0.099867,0.907823,-0.199568,0.027818,0.017665,-0.021455
"2019-04-16 11:11:15.250 +0000",1555413075.250110,-1.154113,-0.933680,0.742163,-0.543980,0.803815,-0.240766,0.000000,0.000000,0.000000,-1,-0.072102,0.906809,-0.018774,0.025379,0.017688,-0.004061
"2019-04-16 11:11:15.270 +0000",1555413075.270084,-1.140553,-0.934866,0.743908,-0.539798,0.804520,-0.247722,0.000000,0.000000,0.000000,-1,0.098370,0.381308,0.117373,0.022342,0.007935,0.037807
"2019-04-16 11:11:15.290 +0000",1555413075.290025,-1.134146,-0.935420,0.752942,-0.537796,0.804849,-0.250986,0.000000,0.000000,0.000000,-1,0.304368,-0.287019,0.143236,-0.030838,-0.004540,0.051936
"2019-04-16 11:11:15.310 +0000",1555413075.310029,-1.133637,-0.935572,0.765987,-0.537557,0.804939,-0.251208,0.000000,0.000000,0.000000,-1,0.343900,-0.569201,0.188390,-0.034586,0.006890,0.041232
"2019-04-16 11:11:15.330 +0000",1555413075.330002,-1.136051,-0.937115,0.777386,-0.537035,0.805853,-0.249386,0.000000,0.000000,0.000000,-1,0.226096,-0.560930,0.231731,-0.046995,0.009958,0.027203
"2019-04-16 11:11:15.350 +0000",1555413075.349975,-1.138463,-0.940297,0.785382,-0.535304,0.807734,-0.247015,0.000000,0.000000,0.000000,-1,0.113275,-0.311238,0.320425,-0.075017,0.007544,-0.002604
"2019-04-16 11:11:15.370 +0000",1555413075.369947,-1.134643,-0.946060,0.792415,-0.530129,0.811117,-0.247087,0.000000,0.000000,0.000000,-1,0.050596,0.023336,0.352758,-0.076148,0.002466,0.001299
"2019-04-16 11:11:15.390 +0000",1555413075.389891,-1.126348,-0.951456,0.799172,-0.524102,0.814261,-0.249591,0.000000,0.000000,0.000000,-1,0.083227,0.183623,0.305805,-0.076118,-0.002997,0.002490
"2019-04-16 11:11:15.410 +0000",1555413075.409867,-1.117657,-0.952916,0.805831,-0.520844,0.815108,-0.253616,0.000000,0.000000,0.000000,-1,0.165887,0.187798,0.234700,-0.053772,-0.014418,-0.000611
"2019-04-16 11:11:15.430 +0000",1555413075.429843,-1.107073,-0.954142,0.815182,-0.517235,0.815818,-0.258667,0.000000,0.000000,0.000000,-1,0.241575,0.116393,0.139274,-0.046668,-0.024558,0.006027
"2019-04-16 11:11:15.450 +0000",1555413075.449825,-1.100982,-0.951874,0.822814,-0.517299,0.814504,-0.262650,0.000000,0.000000,0.000000,-1,0.256567,-0.029483,0.070390,-0.038685,-0.019460,0.010864
"2019-04-16 11:11:15.470 +0000",1555413075.469811,-1.096652,-0.950646,0.830775,-0.517046,0.813791,-0.265343,0.000000,0.000000,0.000000,-1,0.216652,-0.142381,0.047089,-0.043287,-0.010965,0.007851
"2019-04-16 11:11:15.490 +0000",1555413075.489785,-1.094989,-0.949962,0.836632,-0.517099,0.813393,-0.266458,0.000000,0.000000,0.000000,-1,0.132334,-0.158647,0.048008,-0.034277,-0.005578,0.005120
"2019-04-16 11:11:15.510 +0000",1555413075.509758,-1.095302,-0.949473,0.840037,-0.517536,0.813109,-0.266478,0.000000,0.000000,0.000000,-1,0.047901,-0.154704,0.053141,-0.009823,-0.006789,-0.010545
"2019-04-16 11:11:15.530 +0000",1555413075.529732,-1.096968,-0.950271,0.841775,-0.517402,0.813573,-0.265319,0.000000,0.000000,0.000000,-1,0.022219,-0.160054,0.064792,-0.011239,-0.002416,-0.013184
"2019-04-16 11:11:15.550 +0000",1555413075.549704,-1.098158,-0.950381,0.844043,-0.517638,0.813637,-0.264663,0.000000,0.000000,0.000000,-1,0.042522,-0.154683,0.060563,-0.014925,-0.002846,-0.011933
"2019-04-16 11:11:15.570 +0000",1555413075.569676,-1.099973,-0.950538,0.846348,-0.518003,0.813729,-0.263665,0.000000,0.000000,0.000000,-1,0.065452,-0.211109,0.022420,-0.013034,-0.006767,-0.010749
"2019-04-16 11:11:15.590 +0000",1555413075.589641,-1.102303,-0.948885,0.849381,-0.519815,0.812767,-0.263064,0.000000,0.000000,0.000000,-1,0.099083,-0.269613,-0.015708,-0.000784,-0.006019,-0.007185
"2019-04-16 11:11:15.610 +0000",1555413075.609621,-1.105069,-0.947411,0.853177,-0.521611,0.811907,-0.262163,0.000000,0.000000,0.000000,-1,0.115420,-0.329060,-0.019838,0.003025,0.002210,-0.013030
"2019-04-16 11:11:15.630 +0000",1555413075.629596,-1.107788,-0.946416,0.857625,-0.523044,0.811325,-0.261105,0.000000,0.000000,0.000000,-1,0.098277,-0.347045,0.004612,-0.002209,0.014145,-0.014606
"2019-04-16 11:11:15.650 +0000",1555413075.649567,-1.109719,-0.946170,0.862662,-0.523726,0.811182,-0.260182,0.000000,0.000000,0.000000,-1,0.085309,-0.340587,0.026913,0.001784,0.015723,-0.030162
"2019-04-16 11:11:15.670 +0000",1555413075.669541,-1.112010,-0.945935,0.867629,-0.524492,0.811044,-0.259067,0.000000,0.000000,0.000000,-1,0.115158,-0.348914,0.041847,0.002397,0.014716,-0.029798
"2019-04-16 11:11:15.689 +0000",1555413075.689499,-1.114851,-0.945567,0.873615,-0.525494,0.810829,-0.257707,0.000000,0.000000,0.000000,-1,0.147789,-0.468830,0.041033,0.010464,0.019066,-0.027343
"2019-04-16 11:11:15.709 +0000",1555413075.709488,-1.119658,-0.945218,0.882034,-0.526981,0.810624,-0.255302,0.000000,0.000000,0.000000,-1,0.206807,-0.747977,0.042644,0.016956,0.010909,-0.024926
"2019-04-16 11:11:15.729 +0000",1555413075.729456,-1.130655,-0.944048,0.891919,-0.530614,0.809939,-0.249895,0.000000,0.000000,0.000000,-1,0.308743,-1.099065,0.068892,0.011281,0.005536,-0.026518
"2019-04-16 11:11:15.749 +0000",1555413075.749407,-1.146013,-0.942353,0.904456,-0.535640,0.808944,-0.242282,0.000000,0.000000,0.000000,-1,0.397627,-1.379131,0.076931,0.013270,-0.000518,-0.014188
"2019-04-16 11:11:15.769 +0000",1555413075.769406,-1.164390,-0.940284,0.919189,-0.541537,0.807726,-0.233059,0.000000,0.000000,0.000000,-1,0.455197,-1.590263,0.085867,-0.003079,0.000029,-0.013813
"2019-04-16 11:11:15.789 +0000",1555413075.789378,-1.183160,-0.938442,0.935494,-0.547193,0.806638,-0.223416,0.000000,0.000000,0.000000,-1,0.489006,-1.546419,0.113511,-0.015948,0.005603,-0.025684
"2019-04-16 11:11:15.809 +0000",1555413075.809346,-1.195319,-0.937882,0.951344,-0.550289,0.806307,-0.216912,0.000000,0.000000,0.000000,-1,0.396439,-1.026961,0.173149,-0.055576,-0.001253,-0.021553
"2019-04-16 11:11:15.829 +0000",1555413075.829323,-1.198965,-0.939484,0.961860,-0.549872,0.807254,-0.214435,0.000000,0.000000,0.000000,-1,0.176333,-0.361660,0.186598,-0.059289,-0.007571,-0.008542
"2019-04-16 11:11:15.849 +0000",1555413075.849297,-1.198353,-0.940720,0.965466,-0.548811,0.807983,-0.214408,0.000000,0.000000,0.000000,-1,0.058202,0.031832,0.155988,-0.034349,-0.001601,0.030860
"2019-04-16 11:11:15.869 +0000",1555413075.869269,-1.194982,-0.942648,0.968892,-0.546635,0.809117,-0.215684,0.000000,0.000000,0.000000,-1,0.067326,-0.026838,0.106126,-0.001766,-0.001790,0.041917
"2019-04-16 11:11:15.889 +0000",1555413075.889223,-1.198903,-0.943532,0.970645,-0.546810,0.809636,-0.213279,0.000000,0.000000,0.000000,-1,0.135505,-0.343584,0.030185,0.002209,0.002025,0.066063
"2019-04-16 11:11:15.909 +0000",1555413075.909214,-1.204778,-0.942035,0.976988,-0.549185,0.808756,-0.210497,0.000000,0.000000,0.000000,-1,0.237755,-0.670640,-0.015900,0.002951,0.003866,0.069872
"2019-04-16 11:11:15.929 +0000",1555413075.929162,-1.214407,-0.939493,0.985068,-0.553111,0.807259,-0.205916,0.000000,0.000000,0.000000,-1,0.269845,-0.858750,-0.051702,0.004985,-0.001717,0.072676
"2019-04-16 11:11:15.949 +0000",1555413075.949139,-1.226416,-0.936670,0.990392,-0.557687,0.805589,-0.200027,0.000000,0.000000,0.000000,-1,0.146650,-0.736227,-0.091469,-0.029899,0.006483,0.054703
"2019-04-16 11:11:15.969 +0000",1555413075.969135,-1.237288,-0.934617,0.988947,-0.561390,0.804371,-0.194493,0.000000,0.000000,0.000000,-1,-0.105172,-0.312437,-0.119185,-0.032588,0.018398,0.049199
"2019-04-16 11:11:15.989 +0000",1555413075.989107,-1.245975,-0.933880,0.979573,-0.563620,0.803934,-0.189798,0.000000,0.000000,0.000000,-1,-0.329130,0.065901,-0.125515,-0.021402,0.035849,0.036890
"2019-04-16 11:11:16.009 +0000",1555413076.009080,-1.254190,-0.934058,0.965495,-0.565024,0.804039,-0.185117,0.000000,0.000000,0.000000,-1,-0.424715,0.174936,-0.126932,-0.005578,0.052528,0.007139
"2019-04-16 11:11:16.029 +0000",1555413076.029039,-1.262876,-0.933569,0.950836,-0.566986,0.803748,-0.180322,0.000000,0.000000,0.000000,-1,-0.381503,0.148220,-0.186342,-0.005326,0.059472,-0.009757
"2019-04-16 11:11:16.049 +0000",1555413076.049021,-1.268308,-0.932493,0.939234,-0.568781,0.803108,-0.177497,0.000000,0.000000,0.000000,-1,-0.273279,0.194881,-0.279732,0.017283,0.072930,-0.016458
"2019-04-16 11:11:16.069 +0000",1555413076.068998,-1.272077,-0.928358,0.929300,-0.572616,0.800637,-0.176327,0.000000,0.000000,0.000000,-1,-0.194326,0.207973,-0.274277,0.042587,0.080879,-0.020999
"2019-04-16 11:11:16.089 +0000",1555413076.088971,-1.274098,-0.924992,0.922785,-0.575545,0.798616,-0.175957,0.000000,0.000000,0.000000,-1,-0.101514,0.117493,-0.181462,0.059447,0.064955,-0.023262
"2019-04-16 11:11:16.109 +0000",1555413076.108945,-1.274859,-0.922818,0.920274,-0.577338,0.797306,-0.176025,0.000000,0.000000,0.000000,-1,-0.000185,0.045053,-0.098225,0.051672,0.051800,-0.019150
"2019-04-16 11:11:16.129 +0000",1555413076.128918,-1.272638,-0.921306,0.921569,-0.578097,0.796392,-0.177661,0.000000,0.000000,0.000000,-1,0.089070,0.071229,-0.039612,0.050890,0.020670,-0.012220
"2019-04-16 11:11:16.149 +0000",1555413076.148889,-1.268452,-0.920320,0.924457,-0.578098,0.795796,-0.180313,0.000000,0.000000,0.000000,-1,0.095132,0.110708,-0.013080,0.044055,0.000027,-0.003968
"2019-04-16 11:11:16.169 +0000",1555413076.168863,-1.264117,-0.919626,0.926569,-0.577837,0.795375,-0.182984,0.000000,0.000000,0.000000,-1,0.053286,0.149848,-0.013222,0.029528,-0.012798,-0.009780
"2019-04-16 11:11:16.189 +0000",1555413076.188806,-1.260230,-0.919143,0.926990,-0.577487,0.795082,-0.185346,0.000000,0.000000,0.000000,-1,-0.003453,0.193101,-0.027221,0.013354,0.007271,-0.018054
"2019-04-16 11:11:16.209 +0000",1555413076.208807,-1.257236,-0.918657,0.925550,-0.577297,0.794787,-0.187193,0.000000,0.000000,0.000000,-1,-0.049407,0.206687,-0.034776,0.013698,0.007077,-0.024004
"2019-04-16 11:11:16.229 +0000",1555413076.228782,-1.253386,-0.919081,0.925679,-0.576252,0.795045,-0.189309,0.000000,0.000000,0.000000,-1,-0.041630,0.091172,0.009011,0.004139,0.018295,-0.030326
"2019-04-16 11:11:16.249 +0000",1555413076.248755,-1.253658,-0.919855,0.925881,-0.575718,0.795514,-0.188960,0.000000,0.000000,0.000000,-1,0.018729,-0.079374,0.055102,-0.002117,0.018054,-0.038609
"2019-04-16 11:11:16.269 +0000",1555413076.268726,-1.253976,-0.920760,0.928779,-0.575094,0.796062,-0.188553,0.000000,0.000000,0.000000,-1,0.100133,-0.152234,0.076637,-0.007700,0.012593,-0.033219
"2019-04-16 11:11:16.289 +0000",1555413076.288700,-1.253297,-0.921601,0.934024,-0.574330,0.796570,-0.188735,0.000000,0.000000,0.000000,-1,0.155745,-0.191208,0.097006,-0.009502,0.008819,-0.020036
"2019-04-16 11:11:16.309 +0000",1555413076.308673,-1.252804,-0.922404,0.940081,-0.573629,0.797056,-0.188818,0.000000,0.000000,0.000000,-1,0.161292,-0.225222,0.089626,-0.019282,0.008090,-0.015528
"2019-04-16 11:11:16.329 +0000",1555413076.328622,-1.252460,-0.922876,0.945406,-0.573207,0.797341,-0.188897,0.000000,0.000000,0.000000,-1,0.132335,-0.170231,0.065033,-0.021077,0.006462,-0.011360
"2019-04-16 11:11:16.349 +0000",1555413076.348593,-1.252600,-0.921126,0.948804,-0.574557,0.796283,-0.189253,0.000000,0.000000,0.000000,-1,0.080973,-0.120636,0.041444,-0.017117,0.008282,-0.001696
"2019-04-16 11:11:16.369 +0000",1555413076.368581,-1.253288,-0.920461,0.950612,-0.575190,0.795881,-0.189023,0.000000,0.000000,0.000000,-1,0.030991,-0.104113,-0.008655,-0.017141,0.013582,-0.009937
"2019-04-16 11:11:16.389 +0000",1555413076.388563,-1.254313,-0.919534,0.950947,-0.576085,0.795319,-0.188663,0.000000,0.000000,0.000000,-1,0.003237,-0.046063,-0.057702,-0.009105,0.020706,-0.008420
"2019-04-16 11:11:16.409 +0000",1555413076.408538,-1.253859,-0.918932,0.951071,-0.576454,0.794954,-0.189073,0.000000,0.000000,0.000000,-1,-0.003443,0.016570,-0.062052,-0.004204,0.024961,-0.008467
"2019-04-16 11:11:16.429 +0000",1555413076.428510,-1.254455,-0.919017,0.950399,-0.576502,0.795006,-0.188709,0.000000,0.000000,0.000000,-1,0.005277,-0.026929,-0.057704,-0.007269,0.041588,0.001758
"2019-04-16 11:11:16.448 +0000",1555413076.448478,-1.258013,-0.919284,0.949648,-0.576968,0.795168,-0.186591,0.000000,0.000000,0.000000,-1,0.046375,-0.182733,-0.020170,-0.015622,0.041594,0.012335
"2019-04-16 11:11:16.468 +0000",1555413076.468458,-1.263716,-0.919263,0.950089,-0.578039,0.795155,-0.183303,0.000000,0.000000,0.000000,-1,0.103340,-0.275934,-0.007159,-0.020472,0.028423,0.021773
"2019-04-16 11:11:16.488 +0000",1555413076.488420,-1.269410,-0.918321,0.950619,-0.579788,0.794583,-0.180230,0.000000,0.000000,0.000000,-1,0.086069,-0.221924,-0.023229,-0.022903,0.018100,0.026635
"2019-04-16 11:11:16.508 +0000",1555413076.508401,-1.273847,-0.917221,0.949758,-0.581418,0.793915,-0.177912,0.000000,0.000000,0.000000,-1,0.005805,-0.114240,-0.086279,-0.024829,0.032974,0.030909
"2019-04-16 11:11:16.528 +0000",1555413076.528375,-1.277173,-0.915084,0.947114,-0.583629,0.792614,-0.176468,0.000000,0.000000,0.000000,-1,-0.073306,-0.033054,-0.140780,-0.017583,0.043003,0.027237
"2019-04-16 11:11:16.548 +0000",1555413076.548324,-1.280141,-0.913152,0.943202,-0.585616,0.791435,-0.175173,0.000000,0.000000,0.000000,-1,-0.084438,0.030778,-0.116445,-0.008730,0.036278,0.017367
"2019-04-16 11:11:16.568 +0000",1555413076.568319,-1.281555,-0.912223,0.940136,-0.586568,0.790866,-0.174555,0.000000,0.000000,0.000000,-1,-0.037788,0.067241,-0.087695,0.017232,0.007413,0.012445
"2019-04-16 11:11:16.588 +0000",1555413076.588294,-1.280602,-0.911025,0.939762,-0.587309,0.790132,-0.175385,0.000000,0.000000,0.000000,-1,0.033585,0.059244,-0.048203,0.037489,-0.017000,0.011169
"2019-04-16 11:11:16.608 +0000",1555413076.608266,-1.278522,-0.910980,0.941178,-0.586976,0.790105,-0.176616,0.000000,0.000000,0.000000,-1,0.083756,0.048889,-0.035317,0.047502,-0.011876,0.022685
"2019-04-16 11:11:16.628 +0000",1555413076.628229,-1.275829,-0.910545,0.944010,-0.586827,0.789838,-0.178296,0.000000,0.000000,0.000000,-1,0.088923,0.006762,0.027482,0.041356,-0.000272,0.034223
"2019-04-16 11:11:16.648 +0000",1555413076.648186,-1.273860,-0.911384,0.946925,-0.585841,0.790353,-0.179257,0.000000,0.000000,0.000000,-1,0.063049,-0.029085,0.095526,0.010753,0.017707,0.052075
"2019-04-16 11:11:16.668 +0000",1555413076.668185,-1.272867,-0.914154,0.949546,-0.583568,0.792046,-0.179196,0.000000,0.000000,0.000000,-1,0.014646,-0.075510,0.187993,-0.006779,0.002631,0.047222
"2019-04-16 11:11:16.688 +0000",1555413076.688159,-1.274167,-0.918128,0.950714,-0.580785,0.794466,-0.177515,0.000000,0.000000,0.000000,-1,-0.047143,-0.120366,0.194278,-0.022257,-0.030749,0.038035
"2019-04-16 11:11:16.708 +0000",1555413076.708131,-1.277335,-0.921370,0.948780,-0.578876,0.796431,-0.174928,0.000000,0.000000,0.000000,-1,-0.140846,-0.056495,0.092995,-0.014019,-0.039488,0.021944
"2019-04-16 11:11:16.728 +0000",1555413076.728103,-1.282320,-0.922861,0.942064,-0.578602,0.797332,-0.171703,0.000000,0.000000,0.000000,-1,-0.267822,0.068736,-0.030772,-0.002056,-0.028426,0.005840
"2019-04-16 11:11:16.748 +0000",1555413076.748075,-1.287935,-0.923181,0.931300,-0.579312,0.797525,-0.168380,0.000000,0.000000,0.000000,-1,-0.369650,0.172313,-0.054523,0.012021,-0.026620,-0.024110
"2019-04-16 11:11:16.768 +0000",1555413076.768049,-1.293246,-0.924934,0.919264,-0.578853,0.798581,-0.164917,0.000000,0.000000,0.000000,-1,-0.361762,0.230065,0.009195,0.011012,-0.027677,-0.057647
"2019-04-16 11:11:16.788 +0000",1555413076.788002,-1.296151,-0.927202,0.909964,-0.577585,0.799944,-0.162744,0.000000,0.000000,0.000000,-1,-0.249732,0.223228,0.037072,-0.002936,-0.023607,-0.064658
"2019-04-16 11:11:16.808 +0000",1555413076.807994,-1.295017,-0.928413,0.905608,-0.576467,0.800670,-0.163134,0.000000,0.000000,0.000000,-1,-0.078754,0.241829,0.011870,-0.008860,-0.023922,-0.064634
"2019-04-16 11:11:16.828 +0000",1555413076.827967,-1.289871,-0.928190,0.905429,-0.575792,0.800536,-0.166148,0.000000,0.000000,0.000000,-1,0.030244,0.285590,-0.029440,-0.018660,-0.019317,-0.047826
"2019-04-16 11:11:16.848 +0000",1555413076.847941,-1.282492,-0.926786,0.905956,-0.575627,0.799695,-0.170712,0.000000,0.000000,0.000000,-1,0.023643,0.392567,-0.082771,-0.013912,0.004886,-0.025577
"2019-04-16 11:11:16.868 +0000",1555413076.867913,-1.274781,-0.925151,0.904367,-0.575543,0.798712,-0.175527,0.000000,0.000000,0.000000,-1,-0.051490,0.472983,-0.087294,-0.013843,0.013361,-0.015101
"2019-04-16 11:11:16.888 +0000",1555413076.887887,-1.268642,-0.924266,0.901016,-0.575130,0.798179,-0.179267,0.000000,0.000000,0.000000,-1,-0.095078,0.403868,-0.067078,-0.020009,0.043954,-0.019723
"2019-04-16 11:11:16.908 +0000",1555413076.907858,-1.265810,-0.923115,0.897250,-0.575495,0.797485,-0.181170,0.000000,0.000000,0.000000,-1,-0.086440,0.213505,-0.109302,-0.030492,0.095185,-0.004163
"2019-04-16 11:11:16.928 +0000",1555413076.927815,-1.267659,-0.920814,0.892913,-0.577579,0.796095,-0.180654,0.000000,0.000000,0.000000,-1,-0.098955,0.006999,-0.173871,-0.049435,0.117357,0.007741
"2019-04-16 11:11:16.948 +0000",1555413076.947800,-1.274297,-0.917859,0.887289,-0.581013,0.794303,-0.177502,0.000000,0.000000,0.000000,-1,-0.128943,-0.167494,-0.200249,-0.076137,0.098062,0.007489
"2019-04-16 11:11:16.968 +0000",1555413076.967777,-1.282514,-0.914542,0.881024,-0.584975,0.792283,-0.173470,0.000000,0.000000,0.000000,-1,-0.134298,-0.143176,-0.217307,-0.059084,0.063216,-0.015433
"2019-04-16 11:11:16.988 +0000",1555413076.987748,-1.288229,-0.911371,0.875981,-0.588366,0.790344,-0.170824,0.000000,0.000000,0.000000,-1,-0.075219,-0.034374,-0.180141,-0.031934,0.022476,-0.022581
"2019-04-16 11:11:17.008 +0000",1555413077.007723,-1.287859,-0.908255,0.874080,-0.590665,0.788431,-0.171729,0.000000,0.000000,0.000000,-1,0.028386,0.172224,-0.164295,0.001264,-0.020777,-0.015939
"2019-04-16 11:11:17.028 +0000",1555413077.027696,-1.281219,-0.904340,0.875365,-0.592465,0.786017,-0.176527,0.000000,0.000000,0.000000,-1,0.128125,0.336125,-0.182414,0.023709,-0.051200,0.007475
"2019-04-16 11:11:17.048 +0000",1555413077.047670,-1.270885,-0.900103,0.878765,-0.593786,0.783391,-0.183622,0.000000,0.000000,0.000000,-1,0.172588,0.393787,-0.161148,0.039709,-0.055242,0.032544
"2019-04-16 11:11:17.068 +0000",1555413077.067642,-1.261282,-0.896488,0.882132,-0.594689,0.781139,-0.190177,0.000000,0.000000,0.000000,-1,0.134376,0.306680,-0.132389,0.040749,-0.051570,0.049003
"2019-04-16 11:11:17.088 +0000",1555413077.087585,-1.256301,-0.893474,0.883166,-0.595970,0.779254,-0.193864,0.000000,0.000000,0.000000,-1,0.036883,0.149033,-0.137664,0.038841,-0.038073,0.051881
"2019-04-16 11:11:17.108 +0000",1555413077.107588,-1.257128,-0.890704,0.880464,-0.598181,0.777515,-0.194036,0.000000,0.000000,0.000000,-1,-0.083029,0.027246,-0.173870,0.036841,-0.027454,0.049917
"2019-04-16 11:11:17.128 +0000",1555413077.127561,-1.261638,-0.887460,0.873756,-0.601450,0.775470,-0.192103,0.000000,0.000000,0.000000,-1,-0.189563,0.060404,-0.248553,0.027964,0.019635,0.040782
"2019-04-16 11:11:17.148 +0000",1555413077.147511,-1.266950,-0.883748,0.863313,-0.605204,0.773122,-0.189765,0.000000,0.000000,0.000000,-1,-0.305363,0.192554,-0.281940,0.025721,0.069011,0.023185
"2019-04-16 11:11:17.168 +0000",1555413077.167506,-1.271800,-0.881499,0.849965,-0.607778,0.771693,-0.187339,0.000000,0.000000,0.000000,-1,-0.404780,0.315902,-0.189829,0.045949,0.075796,-0.007103
"2019-04-16 11:11:17.187 +0000",1555413077.187481,-1.275045,-0.882006,0.836802,-0.608008,0.772016,-0.185252,0.000000,0.000000,0.000000,-1,-0.390830,0.346498,-0.046321,0.046683,0.074985,-0.032201
"2019-04-16 11:11:17.207 +0000",1555413077.207452,-1.275834,-0.884046,0.828068,-0.606646,0.773310,-0.184314,0.000000,0.000000,0.000000,-1,-0.221118,0.258449,0.046645,0.022326,0.032689,-0.035611
"2019-04-16 11:11:17.227 +0000",1555413077.227399,-1.273680,-0.885738,0.826110,-0.604995,0.774382,-0.185237,0.000000,0.000000,0.000000,-1,-0.007015,0.140413,0.064260,0.012817,0.004564,-0.024877
"2019-04-16 11:11:17.247 +0000",1555413077.247383,-1.269899,-0.886130,0.828702,-0.604001,0.774630,-0.187433,0.000000,0.000000,0.000000,-1,0.106812,0.062047,0.027395,-0.000919,-0.003192,-0.007421
"2019-04-16 11:11:17.267 +0000",1555413077.267370,-1.265906,-0.885665,0.833152,-0.603591,0.774336,-0.189952,0.000000,0.000000,0.000000,-1,0.160518,0.008045,0.021204,-0.018601,-0.007429,0.005793
"2019-04-16 11:11:17.287 +0000",1555413077.287336,-1.262036,-0.884918,0.838430,-0.603403,0.773863,-0.192462,0.000000,0.000000,0.000000,-1,0.169302,-0.025986,0.008514,-0.026678,-0.011061,0.010013
"2019-04-16 11:11:17.307 +0000",1555413077.307317,-1.259348,-0.883837,0.842678,-0.603679,0.773178,-0.194340,0.000000,0.000000,0.000000,-1,0.123523,-0.021022,-0.021353,-0.023229,-0.012115,0.007847
"2019-04-16 11:11:17.327 +0000",1555413077.327264,-1.257442,-0.883019,0.844600,-0.603909,0.772659,-0.195684,0.000000,0.000000,0.000000,-1,0.037674,0.051979,-0.014192,-0.020557,-0.006149,-0.000910
"2019-04-16 11:11:17.347 +0000",1555413077.347262,-1.256118,-0.883013,0.844034,-0.603653,0.772655,-0.196485,0.000000,0.000000,0.000000,-1,-0.048077,0.101621,-0.004869,-0.019623,0.003880,-0.012881
"2019-04-16 11:11:17.367 +0000",1555413077.367234,-1.255692,-0.883371,0.841777,-0.603307,0.772882,-0.196657,0.000000,0.000000,0.000000,-1,-0.079136,0.113206,-0.000696,-0.012019,0.011999,-0.024168
"2019-04-16 11:11:17.387 +0000",1555413077.387186,-1.254466,-0.883905,0.840535,-0.602673,0.773221,-0.197267,0.000000,0.000000,0.000000,-1,-0.018323,0.100824,0.021771,0.002422,0.024432,-0.031858
"2019-04-16 11:11:17.407 +0000",1555413077.407176,-1.251533,-0.884548,0.842180,-0.601620,0.773629,-0.198879,0.000000,0.000000,0.000000,-1,0.076622,0.073817,0.064527,0.003933,0.030204,-0.024586
"2019-04-16 11:11:17.427 +0000",1555413077.427154,-1.245187,-0.886718,0.848258,-0.598753,0.775002,-0.202155,0.000000,0.000000,0.000000,-1,0.149121,0.036168,0.118963,0.005858,0.016060,-0.002648
"2019-04-16 11:11:17.447 +0000",1555413077.447103,-1.240498,-0.888379,0.853905,-0.596580,0.776051,-0.204543,0.000000,0.000000,0.000000,-1,0.126705,0.003275,0.142357,0.001106,0.011410,0.016096
"2019-04-16 11:11:17.467 +0000",1555413077.467099,-1.237591,-0.890710,0.858132,-0.594272,0.777518,-0.205684,0.000000,0.000000,0.000000,-1,0.065883,-0.036163,0.162494,0.000522,0.008203,0.015620
"2019-04-16 11:11:17.487 +0000",1555413077.487073,-1.237321,-0.894354,0.861005,-0.591535,0.779805,-0.204915,0.000000,0.000000,0.000000,-1,0.055432,-0.117868,0.188116,0.004087,0.002529,0.003881
"2019-04-16 11:11:17.507 +0000",1555413077.507045,-1.236402,-0.897788,0.865915,-0.588814,0.781950,-0.204579,0.000000,0.000000,0.000000,-1,0.112249,-0.165423,0.192558,0.002388,0.003069,-0.001232
"2019-04-16 11:11:17.527 +0000",1555413077.526990,-1.235101,-0.900530,0.872184,-0.586520,0.783656,-0.204638,0.000000,0.000000,0.000000,-1,0.165740,-0.174807,0.186301,-0.006619,0.009267,0.001528
"2019-04-16 11:11:17.547 +0000",1555413077.546967,-1.235971,-0.903020,0.876751,-0.584854,0.785201,-0.203485,0.000000,0.000000,0.000000,-1,0.187870,-0.124762,0.193707,-0.018998,0.007020,0.030176
"2019-04-16 11:11:17.567 +0000",1555413077.566963,-1.237847,-0.905357,0.879155,-0.583499,0.786645,-0.201788,0.000000,0.000000,0.000000,-1,0.126612,-0.058077,0.197725,-0.019315,0.000327,0.036337
"2019-04-16 11:11:17.587 +0000",1555413077.586915,-1.238175,-0.908330,0.881092,-0.581351,0.788478,-0.200832,0.000000,0.000000,0.000000,-1,0.035722,-0.035108,0.192185,-0.023217,-0.001445,0.035731
"2019-04-16 11:11:17.607 +0000",1555413077.606909,-1.246573,-0.910762,0.876114,-0.581198,0.789971,-0.195331,0.000000,0.000000,0.000000,-1,-0.017199,-0.088723,0.146422,-0.031381,0.016898,0.034671
"2019-04-16 11:11:17.627 +0000",1555413077.626883,-1.254213,-0.913051,0.872427,-0.580954,0.791373,-0.190322,0.000000,0.000000,0.000000,-1,-0.034506,-0.179524,0.072097,-0.033487,0.038156,0.031462
"2019-04-16 11:11:17.647 +0000",1555413077.646853,-1.259902,-0.913984,0.870937,-0.581324,0.791943,-0.186787,0.000000,0.000000,0.000000,-1,-0.078686,-0.245907,0.010445,-0.035986,0.053562,0.032353
"2019-04-16 11:11:17.667 +0000",1555413077.666827,-1.269700,-0.914809,0.865516,-0.582502,0.792446,-0.180889,0.000000,0.000000,0.000000,-1,-0.156466,-0.233723,-0.034380,-0.028872,0.047565,0.020473
"2019-04-16 11:11:17.687 +0000",1555413077.686797,-1.279057,-0.914801,0.858343,-0.584175,0.792441,-0.175432,0.000000,0.000000,0.000000,-1,-0.238847,-0.149317,-0.080386,-0.014275,0.025262,0.005922
"2019-04-16 11:11:17.707 +0000",1555413077.706773,-1.288869,-0.914268,0.848567,-0.586274,0.792116,-0.169810,0.000000,0.000000,0.000000,-1,-0.294435,-0.073346,-0.132739,-0.006759,0.030195,-0.004614
"2019-04-16 11:11:17.727 +0000",1555413077.726739,-1.296983,-0.913361,0.838276,-0.588324,0.791562,-0.165241,0.000000,0.000000,0.000000,-1,-0.285080,0.030586,-0.172206,0.017492,0.018878,-0.018444
"2019-04-16 11:11:17.747 +0000",1555413077.746715,-1.302553,-0.911505,0.828768,-0.590650,0.790427,-0.162351,0.000000,0.000000,0.000000,-1,-0.239687,0.130687,-0.161634,0.055677,0.009714,-0.024417
"2019-04-16 11:11:17.767 +0000",1555413077.766691,-1.306531,-0.909978,0.820398,-0.592456,0.789490,-0.160315,0.000000,0.000000,0.000000,-1,-0.222740,0.112907,-0.123300,0.064502,0.009521,-0.026895
"2019-04-16 11:11:17.787 +0000",1555413077.786665,-1.308694,-0.911355,0.815204,-0.591751,0.790335,-0.158751,0.000000,0.000000,0.000000,-1,-0.202373,0.000822,-0.044399,0.059417,0.002161,-0.032472
"2019-04-16 11:11:17.807 +0000",1555413077.806612,-1.314485,-0.912086,0.809615,-0.592102,0.790782,-0.155176,0.000000,0.000000,0.000000,-1,-0.158392,-0.106000,0.010069,0.047378,-0.001216,-0.031958
"2019-04-16 11:11:17.827 +0000",1555413077.826596,-1.320987,-0.913472,0.805193,-0.592036,0.791630,-0.151051,0.000000,0.000000,0.000000,-1,-0.148697,-0.168441,0.046329,0.028696,-0.009159,-0.037883
"2019-04-16 11:11:17.847 +0000",1555413077.846579,-1.327971,-0.915233,0.800458,-0.591721,0.792705,-0.146577,0.000000,0.000000,0.000000,-1,-0.174458,-0.145160,0.048369,0.007569,-0.005992,-0.045943
"2019-04-16 11:11:17.867 +0000",1555413077.866553,-1.335091,-0.916939,0.794139,-0.591434,0.793744,-0.142045,0.000000,0.000000,0.000000,-1,-0.225926,-0.081724,0.030098,0.001026,0.000675,-0.054306
"2019-04-16 11:11:17.887 +0000",1555413077.886501,-1.339158,-0.918220,0.788999,-0.591017,0.794522,-0.139404,0.000000,0.000000,0.000000,-1,-0.255929,-0.051060,0.023613,-0.003724,0.005069,-0.054581
"2019-04-16 11:11:17.907 +0000",1555413077.906502,-1.346516,-0.919924,0.781426,-0.590706,0.795555,-0.134751,0.000000,0.000000,0.000000,-1,-0.232340,-0.087010,0.037535,-0.009605,0.011909,-0.049606
"2019-04-16 11:11:17.926 +0000",1555413077.926450,-1.351397,-0.921179,0.776999,-0.590382,0.796315,-0.131648,0.000000,0.000000,0.000000,-1,-0.208553,-0.133697,0.029146,-0.016262,0.011241,-0.050267
"2019-04-16 11:11:17.946 +0000",1555413077.946447,-1.358860,-0.922167,0.770758,-0.590578,0.796913,-0.127073,0.000000,0.000000,0.000000,-1,-0.184968,-0.107238,-0.005930,-0.018293,0.007500,-0.051653
"2019-04-16 11:11:17.966 +0000",1555413077.966422,-1.362411,-0.921543,0.767162,-0.591512,0.796535,-0.125078,0.000000,0.000000,0.000000,-1,-0.150848,-0.054142,-0.035715,-0.020060,0.001789,-0.039396
"2019-04-16 11:11:17.986 +0000",1555413077.986362,-1.366771,-0.921305,0.762419,-0.592237,0.796392,-0.122537,0.000000,0.000000,0.000000,-1,-0.129644,-0.012661,-0.042114,-0.025591,-0.002263,-0.041755
"2019-04-16 11:11:18.006 +0000",1555413078.006365,-1.367272,-0.919580,0.759881,-0.593643,0.795347,-0.122517,0.000000,0.000000,0.000000,-1,-0.118180,0.070167,-0.058172,-0.027145,-0.004530,-0.040477
"2019-04-16 11:11:18.026 +0000",1555413078.026339,-1.364563,-0.916084,0.758680,-0.596027,0.793223,-0.124693,0.000000,0.000000,0.000000,-1,-0.105472,0.139099,-0.091226,-0.022579,-0.010401,-0.030992
"2019-04-16 11:11:18.046 +0000",1555413078.046286,-1.363485,-0.913417,0.755799,-0.597960,0.791596,-0.125771,0.000000,0.000000,0.000000,-1,-0.072172,0.155991,-0.134779,-0.019288,0.001189,-0.017799
"2019-04-16 11:11:18.066 +0000",1555413078.066284,-1.362048,-0.910327,0.753709,-0.600169,0.789704,-0.127136,0.000000,0.000000,0.000000,-1,-0.048475,0.126295,-0.143197,-0.018529,0.006881,-0.017044
"2019-04-16 11:11:18.086 +0000",1555413078.086259,-1.360295,-0.907717,0.752548,-0.601960,0.788100,-0.128619,0.000000,0.000000,0.000000,-1,-0.033428,0.098779,-0.135683,-0.003387,0.014726,-0.011243
"2019-04-16 11:11:18.106 +0000",1555413078.106205,-1.359020,-0.905983,0.751534,-0.603130,0.787032,-0.129673,0.000000,0.000000,0.000000,-1,-0.029138,0.074460,-0.118622,0.003444,0.016831,-0.008495
"2019-04-16 11:11:18.126 +0000",1555413078.126188,-1.357826,-0.905337,0.751098,-0.603472,0.786633,-0.130501,0.000000,0.000000,0.000000,-1,-0.023792,0.034294,-0.086645,0.009920,0.024723,-0.014458
"2019-04-16 11:11:18.146 +0000",1555413078.146160,-1.355517,-0.905857,0.752595,-0.602769,0.786954,-0.131806,0.000000,0.000000,0.000000,-1,0.029397,0.007223,-0.026946,0.015137,0.026614,-0.019805
"2019-04-16 11:11:18.166 +0000",1555413078.166150,-1.351694,-0.906915,0.756585,-0.601447,0.787607,-0.133929,0.000000,0.000000,0.000000,-1,0.118834,0.001512,0.027476,0.014854,0.017356,-0.010892
"2019-04-16 11:11:18.186 +0000",1555413078.186116,-1.347380,-0.908155,0.762430,-0.599912,0.788370,-0.136306,0.000000,0.000000,0.000000,-1,0.187026,-0.032961,0.084018,0.016843,0.017249,0.003234
"2019-04-16 11:11:18.206 +0000",1555413078.206096,-1.344547,-0.911551,0.768522,-0.596910,0.790454,-0.137403,0.000000,0.000000,0.000000,-1,0.185000,-0.115582,0.129870,0.017275,0.007275,0.013136
"2019-04-16 11:11:18.226 +0000",1555413078.226043,-1.343801,-0.914455,0.774305,-0.594569,0.792230,-0.137331,0.000000,0.000000,0.000000,-1,0.162754,-0.201525,0.166106,0.008616,-0.001489,0.014666
"2019-04-16 11:11:18.246 +0000",1555413078.246039,-1.344182,-0.917115,0.780182,-0.592565,0.793851,-0.136631,0.000000,0.000000,0.000000,-1,0.157723,-0.263181,0.163000,0.001302,0.001392,0.012745
"2019-04-16 11:11:18.266 +0000",1555413078.266014,-1.346468,-0.919166,0.785260,-0.591288,0.795096,-0.134913,0.000000,0.000000,0.000000,-1,0.165348,-0.292914,0.160928,-0.016882,0.000421,0.010096
"2019-04-16 11:11:18.286 +0000",1555413078.285969,-1.346903,-0.921008,0.791182,-0.589917,0.796212,-0.134331,0.000000,0.000000,0.000000,-1,0.155402,-0.204863,0.145888,-0.027545,-0.003716,0.009239
"2019-04-16 11:11:18.306 +0000",1555413078.305959,-1.346011,-0.922529,0.795399,-0.588616,0.797131,-0.134587,0.000000,0.000000,0.000000,-1,0.085348,-0.057554,0.131700,-0.029182,-0.009152,0.008900
"2019-04-16 11:11:18.326 +0000",1555413078.325933,-1.345615,-0.923148,0.796553,-0.588081,0.797505,-0.134710,0.000000,0.000000,0.000000,-1,0.008281,0.006797,0.105920,-0.034569,-0.006092,0.004384
"2019-04-16 11:11:18.346 +0000",1555413078.345881,-1.345701,-0.924288,0.796644,-0.587206,0.798192,-0.134456,0.000000,0.000000,0.000000,-1,-0.023452,-0.020059,0.075059,-0.032728,0.001292,-0.004887
"2019-04-16 11:11:18.366 +0000",1555413078.365878,-1.346961,-0.925044,0.796371,-0.586786,0.798647,-0.133582,0.000000,0.000000,0.000000,-1,-0.028434,-0.072234,0.057048,-0.036596,0.011045,-0.013589
"2019-04-16 11:11:18.386 +0000",1555413078.385853,-1.347309,-0.925243,0.797341,-0.586678,0.798767,-0.133342,0.000000,0.000000,0.000000,-1,-0.018685,-0.094517,0.053905,-0.030006,0.016373,-0.031956
"2019-04-16 11:11:18.406 +0000",1555413078.405817,-1.346977,-0.925369,0.799346,-0.586536,0.798843,-0.133515,0.000000,0.000000,0.000000,-1,0.001729,-0.106161,0.045452,-0.032666,0.029954,-0.039397
"2019-04-16 11:11:18.426 +0000",1555413078.425796,-1.348967,-0.925840,0.799478,-0.586433,0.799126,-0.132264,0.000000,0.000000,0.000000,-1,-0.008742,-0.106397,0.010347,-0.027032,0.033821,-0.044722
"2019-04-16 11:11:18.446 +0000",1555413078.445743,-1.352006,-0.925777,0.798407,-0.586882,0.799088,-0.130493,0.000000,0.000000,0.000000,-1,-0.043789,-0.112014,-0.019483,-0.020586,0.038650,-0.052338
"2019-04-16 11:11:18.466 +0000",1555413078.465724,-1.354276,-0.925409,0.797735,-0.587463,0.798867,-0.129223,0.000000,0.000000,0.000000,-1,-0.063854,-0.122870,-0.048209,-0.015915,0.044608,-0.049259
"2019-04-16 11:11:18.486 +0000",1555413078.485698,-1.358848,-0.924309,0.795384,-0.588907,0.798205,-0.126721,0.000000,0.000000,0.000000,-1,-0.050736,-0.144248,-0.081109,-0.011801,0.049360,-0.050556
"2019-04-16 11:11:18.506 +0000",1555413078.505688,-1.361887,-0.923226,0.794988,-0.590134,0.797552,-0.125110,0.000000,0.000000,0.000000,-1,-0.019519,-0.177121,-0.093748,0.000092,0.058024,-0.035977
"2019-04-16 11:11:18.526 +0000",1555413078.525636,-1.366287,-0.921592,0.794203,-0.591954,0.796565,-0.122777,0.000000,0.000000,0.000000,-1,-0.005636,-0.195043,-0.078810,0.016728,0.053593,-0.019618
"2019-04-16 11:11:18.546 +0000",1555413078.545633,-1.370554,-0.921431,0.793142,-0.592598,0.796468,-0.120275,0.000000,0.000000,0.000000,-1,-0.058156,-0.164412,-0.073634,0.019341,0.047557,-0.013484
"2019-04-16 11:11:18.566 +0000",1555413078.565607,-1.376351,-0.919732,0.788304,-0.594613,0.795439,-0.117099,0.000000,0.000000,0.000000,-1,-0.177928,-0.052652,-0.141019,0.013604,0.040498,0.011142
"2019-04-16 11:11:18.586 +0000",1555413078.585559,-1.385098,-0.918175,0.777318,-0.596831,0.794495,-0.112122,0.000000,0.000000,0.000000,-1,-0.365883,0.037513,-0.222320,0.018339,0.054260,0.007798
"2019-04-16 11:11:18.606 +0000",1555413078.605553,-1.397091,-0.915066,0.760219,-0.600563,0.792603,-0.105383,0.000000,0.000000,0.000000,-1,-0.549719,0.095050,-0.251479,0.026161,0.061111,-0.004175
"2019-04-16 11:11:18.626 +0000",1555413078.625525,-1.411241,-0.912213,0.738616,-0.604224,0.790860,-0.097234,0.000000,0.000000,0.000000,-1,-0.668733,0.178543,-0.244400,0.047613,0.067004,-0.032512
"2019-04-16 11:11:18.645 +0000",1555413078.645494,-1.426123,-0.910550,0.715272,-0.606904,0.789841,-0.088420,0.000000,0.000000,0.000000,-1,-0.710562,0.164785,-0.205120,0.063432,0.018340,-0.042683
"2019-04-16 11:11:18.665 +0000",1555413078.665471,-1.441279,-0.909199,0.691957,-0.609232,0.789012,-0.079350,0.000000,0.000000,0.000000,-1,-0.691741,0.162061,-0.134910,0.065760,0.019170,-0.051753
"2019-04-16 11:11:18.685 +0000",1555413078.685444,-1.454891,-0.908817,0.670806,-0.610556,0.788777,-0.071085,0.000000,0.000000,0.000000,-1,-0.603292,0.152032,-0.091129,0.082403,-0.046421,-0.059469
"2019-04-16 11:11:18.705 +0000",1555413078.705391,-1.464705,-0.907958,0.654576,-0.611897,0.788249,-0.065161,0.000000,0.000000,0.000000,-1,-0.432154,0.133470,-0.113084,0.056828,-0.033457,-0.044305
"2019-04-16 11:11:18.725 +0000",1555413078.725354,-1.470559,-0.906156,0.643847,-0.613680,0.787139,-0.061721,0.000000,0.000000,0.000000,-1,-0.263303,0.134073,-0.125505,0.058611,-0.032348,-0.047746
"2019-04-16 11:11:18.745 +0000",1555413078.745356,-1.472862,-0.905172,0.636264,-0.614591,0.786532,-0.060382,0.000000,0.000000,0.000000,-1,-0.245495,0.206363,-0.125609,0.013395,0.014631,0.020725
"2019-04-16 11:11:18.765 +0000",1555413078.765335,-1.476286,-0.902969,0.624785,-0.616518,0.785169,-0.058441,0.000000,0.000000,0.000000,-1,-0.414619,0.324472,-0.162271,-0.001539,0.030551,0.044403
"2019-04-16 11:11:18.785 +0000",1555413078.785279,-1.483647,-0.900643,0.607064,-0.618749,0.783727,-0.054060,0.000000,0.000000,0.000000,-1,-0.601575,0.316343,-0.153064,-0.041682,0.063045,0.060561
"2019-04-16 11:11:18.805 +0000",1555413078.805279,-1.495640,-0.899544,0.584916,-0.620211,0.783044,-0.046701,0.000000,0.000000,0.000000,-1,-0.721113,0.217408,-0.091493,-0.057722,0.037513,0.032220
"2019-04-16 11:11:18.825 +0000",1555413078.825239,-1.511636,-0.898886,0.560909,-0.621393,0.782634,-0.036805,0.000000,0.000000,0.000000,-1,-0.743080,0.109007,-0.082869,-0.072180,0.031773,0.013688
"2019-04-16 11:11:18.845 +0000",1555413078.845227,-1.527869,-0.898268,0.538214,-0.622392,0.782249,-0.026734,0.000000,0.000000,0.000000,-1,-0.668257,0.057432,-0.049685,-0.075560,0.019387,-0.009093
"2019-04-16 11:11:18.865 +0000",1555413078.865201,-1.540727,-0.898588,0.520071,-0.622434,0.782448,-0.018722,0.000000,0.000000,0.000000,-1,-0.490419,0.082976,0.022927,-0.078707,-0.009896,-0.029053
"2019-04-16 11:11:18.885 +0000",1555413078.885169,-1.546374,-0.900129,0.510045,-0.621324,0.783407,-0.015177,0.000000,0.000000,0.000000,-1,-0.193036,0.122830,0.100010,-0.093901,-0.025030,-0.012304
"2019-04-16 11:11:18.905 +0000",1555413078.905143,-1.543411,-0.903190,0.510758,-0.618876,0.785306,-0.016952,0.000000,0.000000,0.000000,-1,0.135557,0.112885,0.178293,-0.094549,-0.054471,0.019455
"2019-04-16 11:11:18.925 +0000",1555413078.925118,-1.534794,-0.906779,0.519433,-0.615886,0.787523,-0.022183,0.000000,0.000000,0.000000,-1,0.316224,0.074339,0.186154,-0.091893,-0.073564,0.057507
"2019-04-16 11:11:18.945 +0000",1555413078.945075,-1.524769,-0.909888,0.531124,-0.613184,0.789435,-0.028243,0.000000,0.000000,0.000000,-1,0.364738,0.017006,0.157631,-0.072836,-0.081473,0.083053
"2019-04-16 11:11:18.965 +0000",1555413078.965063,-1.515907,-0.912259,0.543321,-0.611039,0.790888,-0.033573,0.000000,0.000000,0.000000,-1,0.368568,-0.080862,0.131206,-0.066024,-0.078608,0.088795
"2019-04-16 11:11:18.985 +0000",1555413078.985037,-1.509484,-0.914453,0.555627,-0.609077,0.792229,-0.037391,0.000000,0.000000,0.000000,-1,0.372400,-0.217868,0.135671,-0.060707,-0.076622,0.086280
"2019-04-16 11:11:19.005 +0000",1555413079.005009,-1.505008,-0.916765,0.568523,-0.607074,0.793638,-0.039996,0.000000,0.000000,0.000000,-1,0.391076,-0.330385,0.139066,-0.051434,-0.086271,0.079242
"2019-04-16 11:11:19.025 +0000",1555413079.024971,-1.502679,-0.918590,0.581376,-0.605534,0.794746,-0.041311,0.000000,0.000000,0.000000,-1,0.377873,-0.423087,0.098779,-0.044155,-0.093971,0.073309
"2019-04-16 11:11:19.045 +0000",1555413079.044957,-1.501402,-0.919206,0.593572,-0.604992,0.795120,-0.042051,0.000000,0.000000,0.000000,-1,0.361131,-0.404437,0.025360,-0.023853,-0.106903,0.046735
"2019-04-16 11:11:19.065 +0000",1555413079.064928,-1.499078,-0.918264,0.605389,-0.605639,0.794549,-0.043510,0.000000,0.000000,0.000000,-1,0.366512,-0.327241,-0.042787,-0.016172,-0.102807,0.037818
"2019-04-16 11:11:19.085 +0000",1555413079.084893,-1.494378,-0.916266,0.618458,-0.607010,0.793334,-0.046477,0.000000,0.000000,0.000000,-1,0.430523,-0.253930,-0.087421,0.002701,-0.079131,0.028853
"2019-04-16 11:11:19.105 +0000",1555413079.104845,-1.486364,-0.913049,0.633347,-0.609158,0.791371,-0.051555,0.000000,0.000000,0.000000,-1,0.478441,-0.144658,-0.149152,-0.006503,0.057674,0.036220
"2019-04-16 11:11:19.125 +0000",1555413079.124846,-1.475338,-0.909128,0.648709,-0.611637,0.788968,-0.058564,0.000000,0.000000,0.000000,-1,0.489430,-0.016990,-0.123805,-0.035626,0.152316,0.065079
"2019-04-16 11:11:19.145 +0000",1555413079.144818,-1.466093,-0.908831,0.662121,-0.611302,0.788786,-0.064240,0.000000,0.000000,0.000000,-1,0.330322,-0.138325,0.141847,-0.044734,0.173662,0.064896
"2019-04-16 11:11:19.165 +0000",1555413079.164792,-1.467262,-0.915333,0.667883,-0.606262,0.792766,-0.062995,0.000000,0.000000,0.000000,-1,0.027309,-0.365224,0.440327,-0.059418,0.091099,-0.000665
"2019-04-16 11:11:19.185 +0000",1555413079.184752,-1.477517,-0.925149,0.666914,-0.599099,0.798711,-0.056046,0.000000,0.000000,0.000000,-1,-0.097097,-0.531248,0.476474,-0.060263,-0.007085,-0.065765
"2019-04-16 11:11:19.205 +0000",1555413079.204738,-1.487025,-0.932277,0.668181,-0.593917,0.802979,-0.049870,0.000000,0.000000,0.000000,-1,0.092001,-0.493426,0.264164,-0.044343,-0.083832,-0.079662
"2019-04-16 11:11:19.225 +0000",1555413079.224710,-1.488435,-0.933132,0.676306,-0.593302,0.803489,-0.048976,0.000000,0.000000,0.000000,-1,0.315345,-0.323314,-0.064158,-0.020498,-0.106086,-0.075429
"2019-04-16 11:11:19.245 +0000",1555413079.244659,-1.481830,-0.928315,0.688463,-0.596814,0.800611,-0.053237,0.000000,0.000000,0.000000,-1,0.390021,-0.055330,-0.261093,0.033353,-0.086134,-0.018540
"2019-04-16 11:11:19.265 +0000",1555413079.264657,-1.473585,-0.922886,0.696993,-0.600672,0.797347,-0.058577,0.000000,0.000000,0.000000,-1,0.182694,0.131071,-0.216071,0.041895,-0.070570,-0.010149
"2019-04-16 11:11:19.285 +0000",1555413079.284630,-1.470313,-0.919928,0.695918,-0.602821,0.795558,-0.060778,0.000000,0.000000,0.000000,-1,-0.132485,0.248258,-0.122256,0.034629,-0.045604,-0.002088
"2019-04-16 11:11:19.305 +0000",1555413079.304601,-1.471497,-0.917776,0.687377,-0.604595,0.794252,-0.060234,0.000000,0.000000,0.000000,-1,-0.289538,0.286792,-0.149206,0.021206,-0.002641,-0.035484
"2019-04-16 11:11:19.325 +0000",1555413079.324574,-1.474458,-0.915070,0.677111,-0.606908,0.792606,-0.058650,0.000000,0.000000,0.000000,-1,-0.293469,0.232519,-0.162954,0.027333,0.008161,-0.054799
"2019-04-16 11:11:19.345 +0000",1555413079.344539,-1.478427,-0.913137,0.667996,-0.608660,0.791425,-0.056382,0.000000,0.000000,0.000000,-1,-0.250600,0.116213,-0.093589,0.022570,0.038684,-0.073257
"2019-04-16 11:11:19.365 +0000",1555413079.364520,-1.483369,-0.912969,0.661471,-0.609064,0.791323,-0.053385,0.000000,0.000000,0.000000,-1,-0.161762,-0.061290,0.018485,0.015573,0.031218,-0.087637
"2019-04-16 11:11:19.384 +0000",1555413079.384475,-1.489269,-0.914538,0.658632,-0.608130,0.792281,-0.049690,0.000000,0.000000,0.000000,-1,-0.052326,-0.248508,0.088089,0.006308,0.017717,-0.089669
"2019-04-16 11:11:19.404 +0000",1555413079.404466,-1.494178,-0.915896,0.659671,-0.607293,0.793109,-0.046621,0.000000,0.000000,0.000000,-1,0.079453,-0.283246,0.051194,-0.015250,0.025373,-0.080103
"2019-04-16 11:11:19.424 +0000",1555413079.424432,-1.493774,-0.915576,0.665272,-0.607527,0.792914,-0.046886,0.000000,0.000000,0.000000,-1,0.220274,-0.131268,-0.039120,-0.017549,0.031961,-0.072392
"2019-04-16 11:11:19.444 +0000",1555413079.444411,-1.486311,-0.913432,0.673483,-0.608853,0.791606,-0.051562,0.000000,0.000000,0.000000,-1,0.263049,0.165997,-0.105394,-0.016025,0.038778,-0.053281
"2019-04-16 11:11:19.464 +0000",1555413079.464386,-1.474720,-0.910980,0.679896,-0.610145,0.790105,-0.058802,0.000000,0.000000,0.000000,-1,0.160414,0.400403,-0.099571,0.015113,0.054027,-0.016485
"2019-04-16 11:11:19.484 +0000",1555413079.484358,-1.463524,-0.908857,0.682422,-0.611114,0.788802,-0.065808,0.000000,0.000000,0.000000,-1,0.052160,0.479636,-0.102032,0.013397,0.091996,0.004468
"2019-04-16 11:11:19.504 +0000",1555413079.504330,-1.454976,-0.906437,0.681896,-0.612424,0.787312,-0.071250,0.000000,0.000000,0.000000,-1,-0.038105,0.408978,-0.135065,0.018308,0.104885,0.007819
"2019-04-16 11:11:19.524 +0000",1555413079.524302,-1.449922,-0.907874,0.679361,-0.610933,0.788197,-0.074208,0.000000,0.000000,0.000000,-1,-0.137993,0.278009,-0.118028,0.052308,0.082439,-0.032344
"2019-04-16 11:11:19.544 +0000",1555413079.544272,-1.449952,-0.906321,0.673680,-0.612149,0.787240,-0.074337,0.000000,0.000000,0.000000,-1,-0.161279,0.188873,-0.082857,0.056287,0.074210,-0.056538
"2019-04-16 11:11:19.564 +0000",1555413079.564249,-1.448829,-0.905822,0.671578,-0.612455,0.786933,-0.075072,0.000000,0.000000,0.000000,-1,0.029760,0.117865,0.002683,0.047056,0.051202,-0.052659
"2019-04-16 11:11:19.584 +0000",1555413079.584222,-1.440575,-0.906877,0.678915,-0.610991,0.787583,-0.080017,0.000000,0.000000,0.000000,-1,0.311976,0.146220,0.124405,0.030760,0.011275,-0.029587
"2019-04-16 11:11:19.604 +0000",1555413079.604195,-1.426559,-0.909060,0.690434,-0.608106,0.788927,-0.088325,0.000000,0.000000,0.000000,-1,0.317345,0.316430,0.162435,0.006605,-0.053331,0.029854
"2019-04-16 11:11:19.624 +0000",1555413079.624166,-1.411957,-0.910985,0.698465,-0.605252,0.790108,-0.096954,0.000000,0.000000,0.000000,-1,0.167458,0.456819,0.106642,0.005444,-0.074455,0.051788
"2019-04-16 11:11:19.644 +0000",1555413079.644136,-1.401126,-0.912003,0.700824,-0.603372,0.790732,-0.103368,0.000000,0.000000,0.000000,-1,0.008897,0.414384,0.039409,0.016199,-0.066992,0.049230
"2019-04-16 11:11:19.664 +0000",1555413079.664113,-1.395572,-0.912464,0.700592,-0.602431,0.791013,-0.106654,0.000000,0.000000,0.000000,-1,0.003608,0.201792,0.021643,0.005415,-0.045576,0.039088
"2019-04-16 11:11:19.684 +0000",1555413079.684059,-1.391975,-0.913124,0.703705,-0.601529,0.791417,-0.108727,0.000000,0.000000,0.000000,-1,0.145419,-0.028965,0.071176,-0.006839,-0.020849,0.036752
"2019-04-16 11:11:19.704 +0000",1555413079.704058,-1.388814,-0.914446,0.711057,-0.600153,0.792225,-0.110439,0.000000,0.000000,0.000000,-1,0.225932,-0.179205,0.124720,-0.052847,0.022411,0.053981
"2019-04-16 11:11:19.724 +0000",1555413079.724031,-1.388163,-0.917036,0.717350,-0.598061,0.793803,-0.110457,0.000000,0.000000,0.000000,-1,0.102982,-0.234597,0.186219,-0.074516,0.034139,0.051268
"2019-04-16 11:11:19.744 +0000",1555413079.744003,-1.393337,-0.921289,0.717209,-0.595296,0.796382,-0.106764,0.000000,0.000000,0.000000,-1,-0.128838,-0.263001,0.211314,-0.101771,0.042134,0.030287
"2019-04-16 11:11:19.764 +0000",1555413079.763978,-1.402937,-0.925529,0.711532,-0.592959,0.798939,-0.100479,0.000000,0.000000,0.000000,-1,-0.222653,-0.236075,0.156823,-0.129637,0.045619,-0.011414
"2019-04-16 11:11:19.784 +0000",1555413079.783949,-1.410572,-0.928484,0.706158,-0.591376,0.800713,-0.095572,0.000000,0.000000,0.000000,-1,-0.149126,-0.123502,0.097265,-0.128412,0.040245,-0.019998
"2019-04-16 11:11:19.804 +0000",1555413079.803922,-1.412727,-0.929390,0.704402,-0.590863,0.801255,-0.094183,0.000000,0.000000,0.000000,-1,0.004665,0.016754,-0.008953,-0.114077,0.022811,-0.022043
"2019-04-16 11:11:19.824 +0000",1555413079.823895,-1.407885,-0.927316,0.707633,-0.592039,0.800012,-0.097312,0.000000,0.000000,0.000000,-1,0.167042,0.164410,-0.127922,-0.095568,0.021307,-0.000481
"2019-04-16 11:11:19.844 +0000",1555413079.843856,-1.399730,-0.922869,0.712663,-0.594726,0.797336,-0.102742,0.000000,0.000000,0.000000,-1,0.175947,0.221230,-0.233241,-0.078736,0.025784,0.018620
"2019-04-16 11:11:19.864 +0000",1555413079.863842,-1.394399,-0.915119,0.715066,-0.600235,0.792635,-0.106992,0.000000,0.000000,0.000000,-1,0.106009,0.123199,-0.427792,-0.040146,0.013166,0.023999
"2019-04-16 11:11:19.884 +0000",1555413079.883814,-1.394344,-0.907283,0.712757,-0.606326,0.787833,-0.108112,0.000000,0.000000,0.000000,-1,-0.074675,0.072912,-0.362163,0.058856,0.054742,-0.016674
"2019-04-16 11:11:19.904 +0000",1555413079.903787,-1.398332,-0.902111,0.708319,-0.610758,0.784638,-0.106391,0.000000,0.000000,0.000000,-1,-0.085166,-0.100767,-0.255609,0.018823,0.004837,0.007789
"2019-04-16 11:11:19.924 +0000",1555413079.923759,-1.403616,-0.898055,0.706123,-0.614445,0.782116,-0.103691,0.000000,0.000000,0.000000,-1,0.009965,-0.213619,-0.175513,0.062977,0.008213,-0.017983
"2019-04-16 11:11:19.944 +0000",1555413079.943713,-1.408512,-0.895421,0.706564,-0.616976,0.780472,-0.101014,0.000000,0.000000,0.000000,-1,0.040807,-0.285295,-0.095608,0.048540,0.017135,-0.022429
"2019-04-16 11:11:19.964 +0000",1555413079.963705,-1.413134,-0.894317,0.708151,-0.618286,0.779782,-0.098296,0.000000,0.000000,0.000000,-1,0.073547,-0.292224,-0.027490,0.037445,0.007389,-0.028321
"2019-04-16 11:11:19.984 +0000",1555413079.983671,-1.415320,-0.893638,0.711699,-0.619023,0.779356,-0.097026,0.000000,0.000000,0.000000,-1,0.141460,-0.218557,-0.010454,0.031163,0.002519,-0.027943
"2019-04-16 11:11:20.004 +0000",1555413080.003622,-1.414411,-0.893136,0.717272,-0.619321,0.779042,-0.097650,0.000000,0.000000,0.000000,-1,0.191198,-0.147063,0.010802,0.027723,0.000286,-0.022696
"2019-04-16 11:11:20.024 +0000",1555413080.023623,-1.411761,-0.892898,0.723733,-0.619243,0.778893,-0.099320,0.000000,0.000000,0.000000,-1,0.212292,-0.107596,0.024606,0.017910,0.002525,-0.018371
"2019-04-16 11:11:20.044 +0000",1555413080.043576,-1.407684,-0.892701,0.731675,-0.618984,0.778769,-0.101869,0.000000,0.000000,0.000000,-1,0.275244,-0.108336,0.037491,-0.001362,0.001230,-0.013045
"2019-04-16 11:11:20.064 +0000",1555413080.063506,-1.402292,-0.892402,0.742346,-0.618656,0.778581,-0.105244,0.000000,0.000000,0.000000,-1,0.364221,-0.170678,0.034573,-0.021252,0.003035,-0.003368
"2019-04-16 11:11:20.083 +0000",1555413080.083479,-1.397257,-0.891275,0.754138,-0.618982,0.777874,-0.108509,0.000000,0.000000,0.000000,-1,0.364748,-0.225104,-0.009997,-0.034812,0.002949,-0.003613
"2019-04-16 11:11:20.103 +0000",1555413080.103451,-1.394397,-0.887323,0.763534,-0.621691,0.775384,-0.110817,0.000000,0.000000,0.000000,-1,0.276210,-0.206529,-0.045302,-0.063276,-0.003777,-0.010032
"2019-04-16 11:11:20.123 +0000",1555413080.123426,-1.392582,-0.884438,0.770625,-0.623687,0.773559,-0.112342,0.000000,0.000000,0.000000,-1,0.227326,-0.168879,-0.117751,-0.058060,0.004578,-0.010644
"2019-04-16 11:11:20.143 +0000",1555413080.143375,-1.391217,-0.879431,0.775440,-0.627336,0.770377,-0.113883,0.000000,0.000000,0.000000,-1,0.150688,-0.065856,-0.067046,-0.032454,0.013528,-0.007790
"2019-04-16 11:11:20.163 +0000",1555413080.163369,-1.390191,-0.877067,0.777350,-0.629009,0.768867,-0.114854,0.000000,0.000000,0.000000,-1,0.038652,-0.002956,-0.138596,-0.035557,0.011162,-0.007598
"2019-04-16 11:11:20.183 +0000",1555413080.183342,-1.390375,-0.872027,0.775806,-0.632835,0.765634,-0.115432,0.000000,0.000000,0.000000,-1,-0.058440,0.068480,-0.214390,-0.019585,0.008978,-0.009294
"2019-04-16 11:11:20.203 +0000",1555413080.203316,-1.390853,-0.868885,0.772035,-0.635253,0.763609,-0.115560,0.000000,0.000000,0.000000,-1,-0.168516,0.089252,-0.222076,0.013900,0.005785,-0.014018
"2019-04-16 11:11:20.223 +0000",1555413080.223287,-1.395087,-0.865823,0.763856,-0.638036,0.761629,-0.113277,0.000000,0.000000,0.000000,-1,-0.264931,0.097584,-0.182945,0.017568,0.014632,-0.020115
"2019-04-16 11:11:20.243 +0000",1555413080.243233,-1.397902,-0.864892,0.756566,-0.639051,0.761025,-0.111602,0.000000,0.000000,0.000000,-1,-0.290801,0.072327,-0.122350,0.029889,-0.002297,-0.033158
"2019-04-16 11:11:20.263 +0000",1555413080.263235,-1.397762,-0.865014,0.751469,-0.638944,0.761104,-0.111676,0.000000,0.000000,0.000000,-1,-0.276260,0.100298,-0.072384,0.039929,-0.015895,-0.048160
"2019-04-16 11:11:20.283 +0000",1555413080.283191,-1.401170,-0.864526,0.743948,-0.639686,0.760788,-0.109560,0.000000,0.000000,0.000000,-1,-0.200552,0.121877,-0.066949,0.042732,-0.034836,-0.053144
"2019-04-16 11:11:20.303 +0000",1555413080.303170,-1.401500,-0.863194,0.740368,-0.640721,0.759923,-0.109520,0.000000,0.000000,0.000000,-1,-0.037963,0.111742,-0.095313,0.050297,-0.031910,-0.036263
"2019-04-16 11:11:20.323 +0000",1555413080.323152,-1.398678,-0.861009,0.741947,-0.642043,0.758501,-0.111612,0.000000,0.000000,0.000000,-1,0.125735,0.058209,-0.095969,0.048980,-0.025056,-0.028113
"2019-04-16 11:11:20.343 +0000",1555413080.343126,-1.393916,-0.859027,0.747344,-0.642983,0.757208,-0.114932,0.000000,0.000000,0.000000,-1,0.221671,0.031277,-0.040453,0.041070,-0.013448,-0.014401
"2019-04-16 11:11:20.363 +0000",1555413080.363098,-1.386607,-0.858281,0.754911,-0.642681,0.756720,-0.119732,0.000000,0.000000,0.000000,-1,0.259311,0.115735,0.028601,-0.016849,-0.004461,-0.002552
"2019-04-16 11:11:20.383 +0000",1555413080.383066,-1.377595,-0.857929,0.762416,-0.641837,0.756490,-0.125570,0.000000,0.000000,0.000000,-1,0.227990,0.198426,0.019910,-0.034020,-0.007131,0.008779
"2019-04-16 11:11:20.403 +0000",1555413080.403044,-1.370951,-0.854139,0.766183,-0.643795,0.754005,-0.130400,0.000000,0.000000,0.000000,-1,0.155726,0.248554,-0.083454,-0.049824,-0.006798,0.018156
"2019-04-16 11:11:20.423 +0000",1555413080.423017,-1.364883,-0.850522,0.768314,-0.645657,0.751625,-0.134861,0.000000,0.000000,0.000000,-1,0.073312,0.205084,-0.200501,-0.045414,0.002983,0.021213
"2019-04-16 11:11:20.443 +0000",1555413080.442988,-1.363864,-0.846048,0.766487,-0.648804,0.748666,-0.136208,0.000000,0.000000,0.000000,-1,0.005235,0.128382,-0.188832,-0.042908,0.050376,0.011773
"2019-04-16 11:11:20.463 +0000",1555413080.462962,-1.363342,-0.843245,0.765219,-0.650783,0.746805,-0.136978,0.000000,0.000000,0.000000,-1,-0.016161,0.041595,-0.114325,-0.042378,0.056784,0.010590
"2019-04-16 11:11:20.483 +0000",1555413080.482937,-1.363950,-0.842098,0.765023,-0.651704,0.746042,-0.136759,0.000000,0.000000,0.000000,-1,0.027600,-0.061853,-0.025841,-0.034697,0.052451,0.001505
"2019-04-16 11:11:20.503 +0000",1555413080.502908,-1.364165,-0.841958,0.767559,-0.651836,0.745948,-0.136640,0.000000,0.000000,0.000000,-1,0.119464,-0.128121,0.027600,-0.037525,0.035088,-0.006198
"2019-04-16 11:11:20.523 +0000",1555413080.522878,-1.363074,-0.842020,0.772785,-0.651642,0.745990,-0.137341,0.000000,0.000000,0.000000,-1,0.194211,-0.138376,0.040523,-0.039841,0.033277,0.000516
"2019-04-16 11:11:20.543 +0000",1555413080.542839,-1.360273,-0.841905,0.779065,-0.651338,0.745913,-0.139184,0.000000,0.000000,0.000000,-1,0.202406,-0.060809,0.037234,-0.037673,0.017820,0.008081
"2019-04-16 11:11:20.563 +0000",1555413080.562824,-1.358305,-0.840509,0.782819,-0.652080,0.744983,-0.140685,0.000000,0.000000,0.000000,-1,0.146614,0.032262,0.002953,-0.020161,-0.004932,0.015548
"2019-04-16 11:11:20.583 +0000",1555413080.582773,-1.354752,-0.839526,0.785836,-0.652291,0.744327,-0.143158,0.000000,0.000000,0.000000,-1,0.091123,0.075356,-0.040812,-0.007240,-0.001712,0.018448
"2019-04-16 11:11:20.603 +0000",1555413080.602755,-1.352134,-0.838171,0.787854,-0.652898,0.743421,-0.145084,0.000000,0.000000,0.000000,-1,0.080715,0.033811,-0.053528,-0.001170,0.018725,0.021182
"2019-04-16 11:11:20.623 +0000",1555413080.622746,-1.352539,-0.838004,0.788825,-0.653077,0.743310,-0.144846,0.000000,0.000000,0.000000,-1,0.099117,-0.040392,-0.036364,-0.000136,0.022025,0.021220
"2019-04-16 11:11:20.643 +0000",1555413080.642704,-1.351961,-0.837293,0.791726,-0.653510,0.742833,-0.145338,0.000000,0.000000,0.000000,-1,0.099170,-0.099672,0.001999,-0.007241,0.025935,0.020384
"2019-04-16 11:11:20.663 +0000",1555413080.662691,-1.354489,-0.837866,0.792890,-0.653459,0.743217,-0.143595,0.000000,0.000000,0.000000,-1,0.072523,-0.144268,0.026467,-0.015929,0.022286,0.017954
"2019-04-16 11:11:20.683 +0000",1555413080.682663,-1.357909,-0.838395,0.793525,-0.653562,0.743571,-0.141276,0.000000,0.000000,0.000000,-1,0.044818,-0.166663,0.031760,-0.016955,0.018285,0.014261
"2019-04-16 11:11:20.703 +0000",1555413080.702635,-1.361503,-0.838551,0.793854,-0.653952,0.743675,-0.138902,0.000000,0.000000,0.000000,-1,0.038454,-0.152988,0.012588,-0.022500,0.023003,0.009492
"2019-04-16 11:11:20.723 +0000",1555413080.722608,-1.364302,-0.838629,0.794150,-0.654281,0.743727,-0.137059,0.000000,0.000000,0.000000,-1,0.040461,-0.109504,-0.001294,-0.009567,0.014543,0.001485
"2019-04-16 11:11:20.743 +0000",1555413080.742570,-1.365315,-0.838428,0.795298,-0.654567,0.743593,-0.136426,0.000000,0.000000,0.000000,-1,0.052060,-0.076532,-0.002383,-0.008733,0.010725,0.001936
"2019-04-16 11:11:20.763 +0000",1555413080.762554,-1.365674,-0.838310,0.796862,-0.654702,0.743514,-0.136209,0.000000,0.000000,0.000000,-1,0.074387,-0.061542,0.002956,-0.003578,0.009477,0.007883
"2019-04-16 11:11:20.783 +0000",1555413080.782528,-1.366003,-0.839050,0.798816,-0.654208,0.744008,-0.135882,0.000000,0.000000,0.000000,-1,0.089275,-0.080490,0.027434,0.005205,0.004344,0.008533
"2019-04-16 11:11:20.803 +0000",1555413080.802500,-1.367514,-0.840798,0.800642,-0.653137,0.745176,-0.134631,0.000000,0.000000,0.000000,-1,0.090448,-0.134534,0.051977,0.005477,0.008975,0.009280
"2019-04-16 11:11:20.822 +0000",1555413080.822473,-1.368922,-0.842000,0.803546,-0.652448,0.745977,-0.133532,0.000000,0.000000,0.000000,-1,0.103442,-0.191763,0.068038,0.004545,0.007304,0.007677
"2019-04-16 11:11:20.842 +0000",1555413080.842448,-1.370919,-0.843502,0.806811,-0.651614,0.746976,-0.132006,0.000000,0.000000,0.000000,-1,0.122720,-0.204431,0.069162,-0.002423,0.012515,0.005663
"2019-04-16 11:11:20.862 +0000",1555413080.862419,-1.372127,-0.845178,0.809925,-0.650545,0.748090,-0.130971,0.000000,0.000000,0.000000,-1,0.099959,-0.121725,0.057303,0.011003,0.000690,0.006963
"2019-04-16 11:11:20.882 +0000",1555413080.882387,-1.371826,-0.846662,0.811756,-0.649417,0.749074,-0.130947,0.000000,0.000000,0.000000,-1,0.019185,-0.010383,0.078241,0.013522,-0.000126,0.006359
"2019-04-16 11:11:20.902 +0000",1555413080.902347,-1.371579,-0.848975,0.811627,-0.647684,0.750604,-0.130765,0.000000,0.000000,0.000000,-1,-0.046468,0.019424,0.136538,0.020731,-0.001656,0.004254
"2019-04-16 11:11:20.922 +0000",1555413080.922338,-1.371767,-0.852945,0.811801,-0.644783,0.753221,-0.130052,0.000000,0.000000,0.000000,-1,-0.027241,-0.061941,0.201553,0.011726,-0.003221,-0.004714
"2019-04-16 11:11:20.942 +0000",1555413080.942292,-1.372712,-0.856281,0.813885,-0.642438,0.755411,-0.128948,0.000000,0.000000,0.000000,-1,0.045805,-0.176253,0.225255,-0.020663,-0.002527,-0.006504
"2019-04-16 11:11:20.962 +0000",1555413080.962272,-1.374055,-0.858473,0.817668,-0.640985,0.756846,-0.127761,0.000000,0.000000,0.000000,-1,0.088847,-0.222907,0.210516,-0.042258,0.000357,-0.003617
"2019-04-16 11:11:20.982 +0000",1555413080.982255,-1.375826,-0.860933,0.820882,-0.639382,0.758451,-0.126264,0.000000,0.000000,0.000000,-1,0.056834,-0.192391,0.180632,-0.043082,0.001101,-0.004946
"2019-04-16 11:11:21.002 +0000",1555413081.002229,-1.378081,-0.862854,0.822280,-0.638234,0.759702,-0.124543,0.000000,0.000000,0.000000,-1,0.000256,-0.143996,0.135788,-0.038692,-0.000547,-0.007247
"2019-04-16 11:11:21.022 +0000",1555413081.022202,-1.380404,-0.863300,0.822538,-0.638189,0.759992,-0.122996,0.000000,0.000000,0.000000,-1,-0.020835,-0.132693,0.081498,-0.034724,0.004871,-0.009069
"2019-04-16 11:11:21.042 +0000",1555413081.042152,-1.383386,-0.863862,0.822616,-0.638133,0.760357,-0.121012,0.000000,0.000000,0.000000,-1,-0.002180,-0.171152,0.029496,-0.030675,0.015766,-0.010045
"2019-04-16 11:11:21.062 +0000",1555413081.062147,-1.386303,-0.863414,0.823252,-0.638818,0.760065,-0.119213,0.000000,0.000000,0.000000,-1,0.010919,-0.178758,-0.010869,-0.019385,0.014288,-0.010471
"2019-04-16 11:11:21.082 +0000",1555413081.082120,-1.388661,-0.863096,0.823646,-0.639335,0.759859,-0.117750,0.000000,0.000000,0.000000,-1,-0.005191,-0.126913,-0.037555,-0.006310,0.022749,-0.010210
"2019-04-16 11:11:21.102 +0000",1555413081.102092,-1.390336,-0.864105,0.823649,-0.638777,0.760514,-0.116542,0.000000,0.000000,0.000000,-1,-0.030967,-0.101499,-0.034444,0.009764,0.023040,-0.008443
"2019-04-16 11:11:21.122 +0000",1555413081.122066,-1.392695,-0.864437,0.822844,-0.638802,0.760730,-0.114990,0.000000,0.000000,0.000000,-1,-0.035372,-0.100336,-0.013187,0.014656,0.020337,-0.010819
"2019-04-16 11:11:21.142 +0000",1555413081.142039,-1.394386,-0.865060,0.822083,-0.638528,0.761134,-0.113826,0.000000,0.000000,0.000000,-1,-0.043233,-0.034435,-0.001603,0.017175,0.008214,-0.012303
"2019-04-16 11:11:21.162 +0000",1555413081.162011,-1.394603,-0.865823,0.820650,-0.637981,0.761629,-0.113586,0.000000,0.000000,0.000000,-1,-0.080054,0.057903,0.008820,0.021175,0.003905,-0.013169
"2019-04-16 11:11:21.182 +0000",1555413081.181981,-1.395328,-0.866945,0.817975,-0.637221,0.762356,-0.112974,0.000000,0.000000,0.000000,-1,-0.097462,0.054953,0.064074,0.019790,0.004795,-0.013888
"2019-04-16 11:11:21.202 +0000",1555413081.201940,-1.395807,-0.869025,0.817071,-0.635713,0.763700,-0.112392,0.000000,0.000000,0.000000,-1,-0.048194,-0.056025,0.131316,-0.006469,-0.004712,-0.022053
"2019-04-16 11:11:21.222 +0000",1555413081.221929,-1.395816,-0.870087,0.819412,-0.634915,0.764385,-0.112245,0.000000,0.000000,0.000000,-1,0.056895,-0.150105,0.140163,-0.030109,-0.016368,-0.020766
"2019-04-16 11:11:21.242 +0000",1555413081.241874,-1.395857,-0.870684,0.823535,-0.634470,0.764769,-0.112140,0.000000,0.000000,0.000000,-1,0.124553,-0.169204,0.095667,-0.043569,-0.019362,-0.015973
"2019-04-16 11:11:21.262 +0000",1555413081.261877,-1.395682,-0.871439,0.827204,-0.633881,0.765256,-0.112151,0.000000,0.000000,0.000000,-1,0.090415,-0.103804,0.035964,-0.048492,-0.021848,-0.009615
"2019-04-16 11:11:21.282 +0000",1555413081.281847,-1.395789,-0.870193,0.828235,-0.634832,0.764453,-0.112249,0.000000,0.000000,0.000000,-1,0.004763,-0.002425,-0.012208,-0.034770,-0.021243,-0.002269
"2019-04-16 11:11:21.302 +0000",1555413081.301808,-1.396088,-0.869715,0.826866,-0.635225,0.764145,-0.112122,0.000000,0.000000,0.000000,-1,-0.059422,0.050290,-0.038994,-0.020079,-0.014039,-0.007797
"2019-04-16 11:11:21.322 +0000",1555413081.321791,-1.396996,-0.869084,0.824905,-0.635802,0.763738,-0.111629,0.000000,0.000000,0.000000,-1,-0.044246,0.007838,-0.042089,-0.012407,0.011592,-0.012822
"2019-04-16 11:11:21.342 +0000",1555413081.341769,-1.397839,-0.868371,0.824958,-0.636432,0.763277,-0.111186,0.000000,0.000000,0.000000,-1,0.019199,-0.094891,-0.030114,-0.018170,0.021711,-0.013997
"2019-04-16 11:11:21.362 +0000",1555413081.361713,-1.399833,-0.867774,0.826201,-0.637101,0.762892,-0.109995,0.000000,0.000000,0.000000,-1,0.054779,-0.173323,-0.022484,-0.021698,0.026888,-0.014410
"2019-04-16 11:11:21.382 +0000",1555413081.381696,-1.401511,-0.866829,0.828234,-0.637995,0.762280,-0.109047,0.000000,0.000000,0.000000,-1,0.047428,-0.171349,-0.044827,-0.019125,0.023959,-0.013542
"2019-04-16 11:11:21.402 +0000",1555413081.401684,-1.402595,-0.865818,0.829507,-0.638872,0.761626,-0.108484,0.000000,0.000000,0.000000,-1,0.021641,-0.084578,-0.088594,-0.009535,0.029131,-0.008108
"2019-04-16 11:11:21.422 +0000",1555413081.421648,-1.402789,-0.864254,0.829383,-0.640067,0.760611,-0.108559,0.000000,0.000000,0.000000,-1,-0.002343,0.039523,-0.106898,0.002478,0.026696,-0.006126
"2019-04-16 11:11:21.442 +0000",1555413081.441618,-1.401290,-0.862546,0.828140,-0.641183,0.759501,-0.109738,0.000000,0.000000,0.000000,-1,-0.043727,0.167011,-0.076340,0.030038,0.018621,-0.007618
"2019-04-16 11:11:21.462 +0000",1555413081.461604,-1.398393,-0.863278,0.826400,-0.640315,0.759977,-0.111499,0.000000,0.000000,0.000000,-1,-0.073125,0.202312,-0.011591,0.042552,0.013552,-0.005627
"2019-04-16 11:11:21.482 +0000",1555413081.481572,-1.396298,-0.864390,0.824905,-0.639247,0.760699,-0.112694,0.000000,0.000000,0.000000,-1,-0.039106,0.119039,0.082159,0.032039,0.016126,-0.010811
"2019-04-16 11:11:21.502 +0000",1555413081.501533,-1.394533,-0.867131,0.826386,-0.636992,0.762476,-0.113456,0.000000,0.000000,0.000000,-1,0.055104,-0.029912,0.166560,-0.008196,-0.001245,-0.002145
"2019-04-16 11:11:21.522 +0000",1555413081.521510,-1.393122,-0.870329,0.830655,-0.634428,0.764541,-0.113923,0.000000,0.000000,0.000000,-1,0.128096,-0.118794,0.178534,-0.020464,-0.010772,0.005051
"2019-04-16 11:11:21.541 +0000",1555413081.541476,-1.391804,-0.872965,0.835487,-0.632291,0.766238,-0.114400,0.000000,0.000000,0.000000,-1,0.118649,-0.108408,0.142352,-0.042101,-0.015124,0.006886
"2019-04-16 11:11:21.561 +0000",1555413081.561469,-1.391760,-0.873517,0.837635,-0.631870,0.766592,-0.114352,0.000000,0.000000,0.000000,-1,0.039630,-0.035771,0.079351,-0.046398,-0.009009,0.007999
"2019-04-16 11:11:21.581 +0000",1555413081.581440,-1.391484,-0.874403,0.837863,-0.631171,0.767160,-0.114405,0.000000,0.000000,0.000000,-1,-0.018011,0.022135,0.025992,-0.038492,-0.003351,0.000743
"2019-04-16 11:11:21.601 +0000",1555413081.601390,-1.391253,-0.874617,0.837356,-0.630982,0.767298,-0.114522,0.000000,0.000000,0.000000,-1,-0.011486,0.028399,0.001543,-0.028441,0.003607,-0.005046
"2019-04-16 11:11:21.621 +0000",1555413081.621363,-1.390857,-0.873923,0.837761,-0.631461,0.766852,-0.114867,0.000000,0.000000,0.000000,-1,0.025128,-0.017206,-0.011077,-0.016046,0.003884,-0.007142
"2019-04-16 11:11:21.641 +0000",1555413081.641350,-1.390848,-0.873414,0.839009,-0.631844,0.766526,-0.114942,0.000000,0.000000,0.000000,-1,0.049964,-0.063892,-0.018399,-0.017433,0.013153,-0.005541
"2019-04-16 11:11:21.661 +0000",1555413081.661308,-1.391398,-0.872644,0.840481,-0.632487,0.766031,-0.114700,0.000000,0.000000,0.000000,-1,0.055293,-0.078668,-0.004548,-0.023061,0.009253,0.000031
"2019-04-16 11:11:21.681 +0000",1555413081.681281,-1.392133,-0.871058,0.841505,-0.633766,0.765011,-0.114451,0.000000,0.000000,0.000000,-1,0.037135,-0.062877,-0.017374,-0.022896,-0.006191,-0.000845
"2019-04-16 11:11:21.701 +0000",1555413081.701272,-1.393886,-0.868128,0.841091,-0.636170,0.763120,-0.113734,0.000000,0.000000,0.000000,-1,0.022353,-0.031370,-0.071684,-0.022110,-0.002668,0.004618
"2019-04-16 11:11:21.721 +0000",1555413081.721226,-1.394425,-0.865706,0.840609,-0.638048,0.761553,-0.113715,0.000000,0.000000,0.000000,-1,-0.002163,0.016079,-0.118585,-0.016722,0.001615,0.003012
"2019-04-16 11:11:21.741 +0000",1555413081.741198,-1.394466,-0.863092,0.839248,-0.640011,0.759857,-0.114037,0.000000,0.000000,0.000000,-1,-0.033268,0.072130,-0.142121,0.002483,0.006257,-0.001914
"2019-04-16 11:11:21.761 +0000",1555413081.761198,-1.392562,-0.861742,0.838109,-0.640801,0.758978,-0.115438,0.000000,0.000000,0.000000,-1,-0.047476,0.130547,-0.134786,0.022317,0.004236,-0.009669
"2019-04-16 11:11:21.781 +0000",1555413081.781151,-1.390506,-0.860257,0.836760,-0.641671,0.758010,-0.116957,0.000000,0.000000,0.000000,-1,-0.030644,0.142490,-0.100744,0.030861,0.005188,-0.008577
"2019-04-16 11:11:21.801 +0000",1555413081.801116,-1.387874,-0.859832,0.836875,-0.641678,0.757733,-0.118704,0.000000,0.000000,0.000000,-1,0.025957,0.092993,-0.060185,0.021286,0.032581,-0.010232
"2019-04-16 11:11:21.821 +0000",1555413081.821115,-1.384385,-0.859349,0.838944,-0.641619,0.757418,-0.121010,0.000000,0.000000,0.000000,-1,0.094269,0.102833,-0.058995,0.009707,0.043135,-0.004310
"2019-04-16 11:11:21.841 +0000",1555413081.841063,-1.378944,-0.858564,0.841300,-0.641534,0.756905,-0.124613,0.000000,0.000000,0.000000,-1,0.072389,0.241779,-0.083694,0.014673,0.036842,0.003351
"2019-04-16 11:11:21.861 +0000",1555413081.861034,-1.372345,-0.856810,0.841032,-0.641999,0.755757,-0.129105,0.000000,0.000000,0.000000,-1,-0.031960,0.390116,-0.079871,0.032655,0.064952,0.005585
"2019-04-16 11:11:21.881 +0000",1555413081.881033,-1.365465,-0.857957,0.838674,-0.640247,0.756508,-0.133342,0.000000,0.000000,0.000000,-1,-0.079545,0.441231,-0.023685,0.033069,0.082237,0.006206
"2019-04-16 11:11:21.901 +0000",1555413081.900981,-1.357627,-0.859324,0.837581,-0.638170,0.757401,-0.138137,0.000000,0.000000,0.000000,-1,-0.026888,0.432616,0.109327,0.027254,0.079406,0.007781
"2019-04-16 11:11:21.921 +0000",1555413081.920955,-1.347142,-0.862668,0.838602,-0.634214,0.759580,-0.144258,0.000000,0.000000,0.000000,-1,0.023696,0.547681,0.132650,-0.005266,0.060168,0.003679
"2019-04-16 11:11:21.941 +0000",1555413081.940930,-1.332154,-0.864462,0.839965,-0.630655,0.760746,-0.153425,0.000000,0.000000,0.000000,-1,0.008930,0.793817,0.083347,-0.000067,0.041301,0.026411
"2019-04-16 11:11:21.961 +0000",1555413081.960925,-1.315272,-0.866453,0.839417,-0.626509,0.762037,-0.163666,0.000000,0.000000,0.000000,-1,-0.071736,0.878619,0.107512,0.017286,0.040591,0.035507
"2019-04-16 11:11:21.981 +0000",1555413081.980891,-1.300691,-0.870399,0.837921,-0.621153,0.764586,-0.171980,0.000000,0.000000,0.000000,-1,-0.080040,0.711245,0.200242,0.019423,0.042527,0.038938
"2019-04-16 11:11:22.001 +0000",1555413082.000863,-1.291478,-0.877113,0.837836,-0.614594,0.768896,-0.176276,0.000000,0.000000,0.000000,-1,-0.010541,0.347678,0.299805,-0.000335,0.052317,0.029562
"2019-04-16 11:11:22.021 +0000",1555413082.020812,-1.287485,-0.884485,0.841317,-0.608426,0.773589,-0.177139,0.000000,0.000000,0.000000,-1,0.069941,-0.058427,0.383503,-0.008319,0.035829,0.024291
"2019-04-16 11:11:22.041 +0000",1555413082.040787,-1.288131,-0.891751,0.846566,-0.603126,0.778173,-0.175173,0.000000,0.000000,0.000000,-1,0.121039,-0.248383,0.384953,-0.014153,0.005503,0.018313
"2019-04-16 11:11:22.061 +0000",1555413082.060788,-1.289114,-0.897930,0.852377,-0.598668,0.782039,-0.173240,0.000000,0.000000,0.000000,-1,0.086015,-0.249793,0.347673,-0.016109,-0.001720,-0.000572
"2019-04-16 11:11:22.081 +0000",1555413082.080744,-1.287677,-0.904354,0.857664,-0.593583,0.786026,-0.172694,0.000000,0.000000,0.000000,-1,0.062475,-0.042616,0.367516,-0.021255,-0.010498,-0.002706
"2019-04-16 11:11:22.101 +0000",1555413082.100707,-1.280125,-0.911214,0.863068,-0.587081,0.790248,-0.175622,0.000000,0.000000,0.000000,-1,0.042411,0.288003,0.422263,-0.014771,-0.011333,-0.005240
"2019-04-16 11:11:22.121 +0000",1555413082.120707,-1.267811,-0.919495,0.867594,-0.578608,0.795296,-0.180879,0.000000,0.000000,0.000000,-1,-0.012124,0.497187,0.443104,-0.010350,-0.010567,0.003358
"2019-04-16 11:11:22.141 +0000",1555413082.140676,-1.255361,-0.928207,0.870769,-0.569703,0.800547,-0.185912,0.000000,0.000000,0.000000,-1,-0.053647,0.468337,0.443064,-0.009322,-0.015787,0.010649
"2019-04-16 11:11:22.161 +0000",1555413082.160638,-1.246431,-0.936869,0.873166,-0.561427,0.805707,-0.188775,0.000000,0.000000,0.000000,-1,-0.063411,0.278124,0.441202,-0.006689,-0.012327,0.008294
"2019-04-16 11:11:22.181 +0000",1555413082.180612,-1.240555,-0.945653,0.876017,-0.553591,0.810879,-0.189768,0.000000,0.000000,0.000000,-1,-0.060616,0.141085,0.440350,-0.025236,-0.014660,-0.005316
"2019-04-16 11:11:22.201 +0000",1555413082.200583,-1.235713,-0.952912,0.878868,-0.547093,0.815106,-0.190506,0.000000,0.000000,0.000000,-1,-0.048585,0.119721,0.410631,-0.033367,-0.019253,-0.005646
"2019-04-16 11:11:22.221 +0000",1555413082.220571,-1.230807,-0.959053,0.882276,-0.541421,0.818648,-0.191514,0.000000,0.000000,0.000000,-1,-0.032464,0.103833,0.407488,-0.045477,-0.026626,-0.017317
"2019-04-16 11:11:22.241 +0000",1555413082.240515,-1.224705,-0.961436,0.886873,-0.538407,0.820014,-0.194152,0.000000,0.000000,0.000000,-1,-0.018633,0.113470,0.410659,-0.049896,-0.033866,-0.017792
"2019-04-16 11:11:22.261 +0000",1555413082.260518,-1.218691,-0.966902,0.890726,-0.533014,0.823130,-0.195838,0.000000,0.000000,0.000000,-1,-0.036927,0.166409,0.391394,-0.060172,-0.041682,-0.019784
"2019-04-16 11:11:22.280 +0000",1555413082.280490,-1.211840,-0.969751,0.893458,-0.529462,0.824745,-0.198660,0.000000,0.000000,0.000000,-1,-0.070253,0.265903,0.348627,-0.060061,-0.041710,-0.024683
"2019-04-16 11:11:22.300 +0000",1555413082.300449,-1.204249,-0.972333,0.894550,-0.525949,0.826202,-0.201910,0.000000,0.000000,0.000000,-1,-0.099184,0.362128,0.287803,-0.061728,-0.031982,-0.024332
"2019-04-16 11:11:22.320 +0000",1555413082.320434,-1.196929,-0.976126,0.894784,-0.521536,0.828333,-0.204608,0.000000,0.000000,0.000000,-1,-0.089022,0.327821,0.224076,-0.054118,-0.022379,-0.026288
"2019-04-16 11:11:22.340 +0000",1555413082.340409,-1.190952,-0.977194,0.896131,-0.519482,0.828931,-0.207394,0.000000,0.000000,0.000000,-1,-0.016351,0.167391,0.169162,-0.040424,-0.017728,-0.019855
"2019-04-16 11:11:22.360 +0000",1555413082.360355,-1.188099,-0.977818,0.899114,-0.518408,0.829280,-0.208682,0.000000,0.000000,0.000000,-1,0.048145,-0.083319,0.123940,-0.026453,-0.009684,-0.013944
"2019-04-16 11:11:22.380 +0000",1555413082.380331,-1.189504,-0.978511,0.903375,-0.518167,0.829667,-0.207739,0.000000,0.000000,0.000000,-1,0.101907,-0.343546,0.094664,-0.017005,-0.001298,-0.010385
"2019-04-16 11:11:22.400 +0000",1555413082.400313,-1.193846,-0.979056,0.908451,-0.518644,0.829971,-0.205321,0.000000,0.000000,0.000000,-1,0.122895,-0.454100,0.067230,-0.012866,0.017304,-0.017488
"2019-04-16 11:11:22.420 +0000",1555413082.420299,-1.197020,-0.979316,0.912944,-0.519091,0.830116,-0.203595,0.000000,0.000000,0.000000,-1,0.082427,-0.245024,0.058331,-0.014981,0.021980,-0.017810
"2019-04-16 11:11:22.440 +0000",1555413082.440254,-1.195203,-0.980506,0.915138,-0.517802,0.830779,-0.204175,0.000000,0.000000,0.000000,-1,0.002353,0.147934,0.094794,-0.030614,0.047914,-0.005175
"2019-04-16 11:11:22.460 +0000",1555413082.460245,-1.188497,-0.983146,0.915116,-0.514384,0.832246,-0.206824,0.000000,0.000000,0.000000,-1,-0.072878,0.419808,0.132510,-0.022649,0.036345,-0.000772
"2019-04-16 11:11:22.480 +0000",1555413082.480218,-1.180864,-0.985847,0.913915,-0.510709,0.833740,-0.209889,0.000000,0.000000,0.000000,-1,-0.076989,0.416469,0.108054,-0.030810,0.024735,-0.002773
"2019-04-16 11:11:22.500 +0000",1555413082.500190,-1.175291,-0.987500,0.912646,-0.508260,0.834651,-0.212201,0.000000,0.000000,0.000000,-1,-0.054485,0.270604,0.033896,-0.024318,0.013279,-0.003024
"2019-04-16 11:11:22.520 +0000",1555413082.520166,-1.173269,-0.987198,0.911566,-0.508061,0.834485,-0.213326,0.000000,0.000000,0.000000,-1,-0.009286,0.068531,-0.039071,-0.012568,0.006701,-0.007133
"2019-04-16 11:11:22.540 +0000",1555413082.540112,-1.173087,-0.985614,0.912224,-0.509240,0.833612,-0.213930,0.000000,0.000000,0.000000,-1,0.058871,-0.071604,-0.070620,-0.003379,0.008506,-0.007018
"2019-04-16 11:11:22.560 +0000",1555413082.560109,-1.172410,-0.983663,0.914871,-0.510594,0.832532,-0.214905,0.000000,0.000000,0.000000,-1,0.094273,-0.089579,-0.081153,0.008458,0.000750,-0.007354
"2019-04-16 11:11:22.580 +0000",1555413082.580082,-1.171094,-0.981816,0.917420,-0.511726,0.831507,-0.216175,0.000000,0.000000,0.000000,-1,0.084433,-0.031234,-0.089762,0.016640,-0.005992,-0.001751
"2019-04-16 11:11:22.600 +0000",1555413082.600054,-1.170320,-0.979478,0.918389,-0.513347,0.830207,-0.217328,0.000000,0.000000,0.000000,-1,0.062939,0.012166,-0.102627,0.029766,-0.005698,0.003446
"2019-04-16 11:11:22.620 +0000",1555413082.620028,-1.169524,-0.977076,0.918667,-0.515009,0.828865,-0.218515,0.000000,0.000000,0.000000,-1,0.047901,0.037567,-0.109074,0.030328,-0.000969,0.006006
"2019-04-16 11:11:22.640 +0000",1555413082.640000,-1.168337,-0.975847,0.918689,-0.515686,0.828177,-0.219525,0.000000,0.000000,0.000000,-1,0.028451,0.059906,-0.090004,0.032791,0.005991,0.008694
"2019-04-16 11:11:22.660 +0000",1555413082.659971,-1.168161,-0.974415,0.918001,-0.516738,0.827374,-0.220080,0.000000,0.000000,0.000000,-1,-0.000325,0.015307,-0.065543,0.041365,0.006290,0.007892
"2019-04-16 11:11:22.680 +0000",1555413082.679932,-1.168607,-0.975296,0.918022,-0.516165,0.827868,-0.219564,0.000000,0.000000,0.000000,-1,-0.017863,-0.095332,-0.081346,0.037603,0.010908,-0.005610
"2019-04-16 11:11:22.700 +0000",1555413082.699895,-1.169742,-0.975720,0.918897,-0.516090,0.828106,-0.218841,0.000000,0.000000,0.000000,-1,-0.003622,-0.155882,-0.091845,0.034187,0.029270,-0.023468
"2019-04-16 11:11:22.720 +0000",1555413082.719891,-1.171740,-0.975187,0.919784,-0.516933,0.827807,-0.217981,0.000000,0.000000,0.000000,-1,0.026234,-0.169457,-0.071557,0.035854,0.032438,-0.025595
"2019-04-16 11:11:22.740 +0000",1555413082.739848,-1.172599,-0.974820,0.922067,-0.517401,0.827601,-0.217655,0.000000,0.000000,0.000000,-1,0.055934,-0.159620,-0.043863,0.036825,0.029272,-0.026486
"2019-04-16 11:11:22.760 +0000",1555413082.759837,-1.170220,-0.974961,0.926252,-0.516773,0.827680,-0.218839,0.000000,0.000000,0.000000,-1,0.067028,-0.048961,-0.021671,0.025517,-0.005964,-0.015124
"2019-04-16 11:11:22.780 +0000",1555413082.779810,-1.167220,-0.974280,0.928346,-0.516633,0.827298,-0.220610,0.000000,0.000000,0.000000,-1,0.035394,0.103829,-0.033655,0.020417,-0.014981,-0.002809
"2019-04-16 11:11:22.800 +0000",1555413082.799784,-1.164012,-0.973605,0.928207,-0.516436,0.826918,-0.222487,0.000000,0.000000,0.000000,-1,-0.019454,0.180106,-0.032815,0.016359,-0.022109,-0.000581
"2019-04-16 11:11:22.820 +0000",1555413082.819756,-1.161754,-0.973255,0.926839,-0.516197,0.826721,-0.223768,0.000000,0.000000,0.000000,-1,-0.034306,0.148192,-0.026448,-0.001091,-0.032349,0.003278
"2019-04-16 11:11:22.840 +0000",1555413082.839724,-1.161481,-0.972755,0.925162,-0.516515,0.826440,-0.224073,0.000000,0.000000,0.000000,-1,-0.033615,0.036500,-0.052859,-0.025111,-0.011132,0.006864
"2019-04-16 11:11:22.860 +0000",1555413082.859700,-1.165155,-0.970940,0.922227,-0.518712,0.825417,-0.222766,0.000000,0.000000,0.000000,-1,-0.037117,-0.093265,-0.078193,-0.045832,-0.004128,-0.000394
"2019-04-16 11:11:22.880 +0000",1555413082.879674,-1.169789,-0.969269,0.919655,-0.521008,0.824473,-0.220897,0.000000,0.000000,0.000000,-1,-0.032385,-0.129631,-0.125971,-0.057788,-0.001169,-0.001377
"2019-04-16 11:11:22.900 +0000",1555413082.899646,-1.174660,-0.966737,0.916048,-0.524003,0.823037,-0.219162,0.000000,0.000000,0.000000,-1,-0.056977,-0.067303,-0.171829,-0.054733,-0.001976,-0.001785
"2019-04-16 11:11:22.920 +0000",1555413082.919592,-1.179343,-0.963797,0.910515,-0.527258,0.821363,-0.217628,0.000000,0.000000,0.000000,-1,-0.109589,0.027928,-0.202908,-0.050058,0.000994,-0.001992
"2019-04-16 11:11:22.940 +0000",1555413082.939593,-1.184011,-0.961213,0.903598,-0.530231,0.819887,-0.215964,0.000000,0.000000,0.000000,-1,-0.145045,0.047015,-0.183871,-0.042782,-0.005678,-0.000573
"2019-04-16 11:11:22.960 +0000",1555413082.959564,-1.189957,-0.959525,0.896862,-0.532790,0.818919,-0.213322,0.000000,0.000000,0.000000,-1,-0.142624,-0.082277,-0.128389,-0.055787,-0.001735,-0.020092
"2019-04-16 11:11:22.980 +0000",1555413082.979538,-1.198469,-0.956548,0.891781,-0.536855,0.817207,-0.209665,0.000000,0.000000,0.000000,-1,-0.091531,-0.303948,-0.099259,-0.068949,0.005608,-0.027563
"2019-04-16 11:11:23.000 +0000",1555413082.999509,-1.209662,-0.954470,0.888658,-0.540756,0.816007,-0.204243,0.000000,0.000000,0.000000,-1,-0.018748,-0.487757,-0.155186,-0.128159,0.020434,-0.031277
"2019-04-16 11:11:23.019 +0000",1555413083.019485,-1.221007,-0.950038,0.886398,-0.546430,0.813438,-0.199332,0.000000,0.000000,0.000000,-1,0.027760,-0.442620,-0.286992,-0.126910,0.015420,-0.030725
"2019-04-16 11:11:23.039 +0000",1555413083.039431,-1.230988,-0.940771,0.881650,-0.555476,0.808013,-0.196373,0.000000,0.000000,0.000000,-1,-0.010783,-0.188846,-0.474572,-0.122182,0.011735,-0.019432
"2019-04-16 11:11:23.059 +0000",1555413083.059430,-1.237119,-0.929887,0.873398,-0.564946,0.801552,-0.195832,0.000000,0.000000,0.000000,-1,-0.075372,0.142413,-0.655933,-0.088588,0.039344,0.000626
"2019-04-16 11:11:23.079 +0000",1555413083.079402,-1.240437,-0.917514,0.862203,-0.574930,0.794093,-0.197159,0.000000,0.000000,0.000000,-1,-0.139156,0.351225,-0.695710,-0.039755,0.046483,0.017059
"2019-04-16 11:11:23.099 +0000",1555413083.099375,-1.241542,-0.905523,0.849758,-0.584116,0.786748,-0.199588,0.000000,0.000000,0.000000,-1,-0.178289,0.482847,-0.687479,0.011698,0.034022,0.021411
"2019-04-16 11:11:23.119 +0000",1555413083.119348,-1.241504,-0.895761,0.836876,-0.591349,0.780685,-0.202084,0.000000,0.000000,0.000000,-1,-0.186054,0.507403,-0.659881,0.047999,0.040437,0.023984
"2019-04-16 11:11:23.139 +0000",1555413083.139299,-1.242225,-0.885181,0.825388,-0.599279,0.774029,-0.204312,0.000000,0.000000,0.000000,-1,-0.154673,0.329465,-0.585131,0.066366,0.048938,0.020993
"2019-04-16 11:11:23.159 +0000",1555413083.159293,-1.244692,-0.878415,0.817619,-0.604728,0.769728,-0.204506,0.000000,0.000000,0.000000,-1,-0.051639,0.074521,-0.463332,0.079856,0.041933,0.018287
"2019-04-16 11:11:23.179 +0000",1555413083.179266,-1.248443,-0.870913,0.814521,-0.610951,0.764918,-0.204059,0.000000,0.000000,0.000000,-1,0.070463,-0.142122,-0.344754,0.078678,0.028616,0.012424
