timestamp,timeIntervalSince1970,attitude.roll,attitude.pitch,attitude.yaw,gravity.x,gravity.y,gravity.z,magneticField.x,magneticField.y,magneticField.z,magneticField.accuracy,rotationRate.x,rotationRate.y,rotationRate.z,userAcceleration.x,userAcceleration.y,userAcceleration.z
"2019-04-05 12:10:28.106 +0000",1554466228.106401,0.383491,0.767286,-0.273083,0.269320,-0.694184,-0.667514,0.000000,0.000000,0.000000,-1,0.131945,-0.616274,0.049930,-0.021456,0.007081,0.025516
"2019-04-05 12:10:28.126 +0000",1554466228.126450,0.368373,0.767229,-0.270401,0.259212,-0.694143,-0.671546,0.000000,0.000000,0.000000,-1,-0.150543,-0.634155,0.111294,-0.011531,0.012671,0.017997
"2019-04-05 12:10:28.147 +0000",1554466228.146531,0.356192,0.761779,-0.263476,0.252328,-0.690210,-0.678189,0.000000,0.000000,0.000000,-1,-0.451359,-0.171358,0.142668,-0.043588,0.015512,-0.011172
"2019-04-05 12:10:28.167 +0000",1554466228.166580,0.352679,0.752042,-0.255234,0.252253,-0.683132,-0.685346,0.000000,0.000000,0.000000,-1,-0.590061,0.241360,0.085178,-0.079020,0.013484,-0.037951
"2019-04-05 12:10:28.187 +0000",1554466228.186630,0.355143,0.741895,-0.249387,0.256338,-0.675686,-0.691187,0.000000,0.000000,0.000000,-1,-0.505824,0.338088,-0.002171,-0.110663,0.018612,-0.027807
"2019-04-05 12:10:28.207 +0000",1554466228.206711,0.358973,0.733908,-0.245578,0.260872,-0.669777,-0.695230,0.000000,0.000000,0.000000,-1,-0.377901,0.294394,-0.007891,-0.119774,0.019249,-0.019949
"2019-04-05 12:10:28.227 +0000",1554466228.226760,0.361528,0.728013,-0.242731,0.264039,-0.665388,-0.698243,0.000000,0.000000,0.000000,-1,-0.271267,0.157132,0.005444,-0.088776,0.011594,-0.010055
"2019-04-05 12:10:28.247 +0000",1554466228.246840,0.358973,0.723908,-0.239768,0.263212,-0.662318,-0.701466,0.000000,0.000000,0.000000,-1,-0.219981,-0.162998,0.037762,-0.074125,0.022959,0.014424
"2019-04-05 12:10:28.267 +0000",1554466228.266890,0.262978,0.727253,-0.180449,0.194189,-0.664820,-0.721321,0.000000,0.000000,0.000000,-1,-0.241036,-0.565996,-0.022517,-0.024786,0.004160,0.058068
"2019-04-05 12:10:28.287 +0000",1554466228.286970,0.216241,0.724914,-0.160102,0.160610,-0.663071,-0.731123,0.000000,0.000000,0.000000,-1,-0.321739,-0.845570,-0.179320,-0.033474,0.025894,0.077437
"2019-04-05 12:10:28.307 +0000",1554466228.307019,0.207870,0.717072,-0.167802,0.155553,-0.657180,-0.737507,0.000000,0.000000,0.000000,-1,-0.555134,-0.819867,-0.206375,-0.100530,0.047973,0.087025
"2019-04-05 12:10:28.327 +0000",1554466228.327099,0.202558,0.706314,-0.172412,0.153046,-0.649034,-0.745206,0.000000,0.000000,0.000000,-1,-0.889069,-0.678252,0.064083,-0.072007,0.052324,0.103681
"2019-04-05 12:10:28.347 +0000",1554466228.347149,0.177594,0.685799,-0.156551,0.136721,-0.633292,-0.761741,0.000000,0.000000,0.000000,-1,-1.235909,-0.816365,0.589619,-0.043719,0.064124,0.094352
"2019-04-05 12:10:28.367 +0000",1554466228.367228,0.143454,0.663514,-0.133214,0.112631,-0.615889,-0.779741,0.000000,0.000000,0.000000,-1,-1.134629,-0.801545,0.553192,-0.206610,-0.004030,0.105149
"2019-04-05 12:10:28.387 +0000",1554466228.387277,0.155694,0.651498,-0.154012,0.123304,-0.606378,-0.785558,0.000000,0.000000,0.000000,-1,-0.108596,-0.044626,-1.628611,-0.210279,-0.110861,-0.298869
"2019-04-05 12:10:28.407 +0000",1554466228.407327,0.186231,0.651265,-0.208332,0.147258,-0.606193,-0.781566,0.000000,0.000000,0.000000,-1,0.580535,-0.174737,-2.191673,0.050923,0.114692,-0.051152
"2019-04-05 12:10:28.427 +0000",1554466228.427409,0.198575,0.661159,-0.251363,0.155703,-0.614032,-0.773770,0.000000,0.000000,0.000000,-1,0.882582,-0.966392,-1.158897,-0.312747,0.076374,0.074887
"2019-04-05 12:10:28.447 +0000",1554466228.447457,0.175352,0.672082,-0.251563,0.136515,-0.622617,-0.770527,0.000000,0.000000,0.000000,-1,-0.027494,-1.075760,0.914084,-0.347651,-0.169772,-0.093715
"2019-04-05 12:10:28.468 +0000",1554466228.467536,0.135730,0.660199,-0.217734,0.106880,-0.613274,-0.782606,0.000000,0.000000,0.000000,-1,-1.015861,-0.489106,0.997435,0.120918,0.035729,0.061659
"2019-04-05 12:10:28.488 +0000",1554466228.487586,0.127426,0.641480,-0.194021,0.101819,-0.598382,-0.794715,0.000000,0.000000,0.000000,-1,-1.021584,0.668988,0.813150,-0.068326,0.035531,0.098411
"2019-04-05 12:10:28.508 +0000",1554466228.507667,0.135996,0.627582,-0.168457,0.109743,-0.587190,-0.801976,0.000000,0.000000,0.000000,-1,-0.714134,1.633240,0.897120,-0.163133,-0.020263,0.068592
"2019-04-05 12:10:28.528 +0000",1554466228.527702,0.169205,0.620133,-0.145680,0.137043,-0.581143,-0.802179,0.000000,0.000000,0.000000,-1,-0.326614,2.680422,0.803226,-0.173756,0.036298,0.128931
"2019-04-05 12:10:28.548 +0000",1554466228.547782,0.218910,0.623274,-0.128992,0.176333,-0.583696,-0.792594,0.000000,0.000000,0.000000,-1,0.143408,3.174614,0.549512,-0.033037,0.023912,0.082053
"2019-04-05 12:10:28.568 +0000",1554466228.567832,0.275770,0.627656,-0.121364,0.220392,-0.587249,-0.778823,0.000000,0.000000,0.000000,-1,0.085225,2.914201,0.244689,-0.009042,-0.006241,-0.070969
"2019-04-05 12:10:28.588 +0000",1554466228.587911,0.322083,0.626072,-0.117206,0.256506,-0.585966,-0.768667,0.000000,0.000000,0.000000,-1,-0.294616,2.084030,0.011007,-0.068685,-0.051958,-0.067881
"2019-04-05 12:10:28.608 +0000",1554466228.607961,0.322433,0.612089,-0.106427,0.259346,-0.574578,-0.776273,0.000000,0.000000,0.000000,-1,-0.777480,-0.400833,0.245295,-0.164101,-0.128181,-0.120593
"2019-04-05 12:10:28.628 +0000",1554466228.628041,0.294331,0.600699,-0.100420,0.239315,-0.565219,-0.789465,0.000000,0.000000,0.000000,-1,-0.522951,-1.537723,-0.057586,0.094471,-0.085935,0.149359
"2019-04-05 12:10:28.648 +0000",1554466228.648091,0.255662,0.588114,-0.097892,0.210398,-0.554793,-0.804946,0.000000,0.000000,0.000000,-1,-0.705985,-1.972500,-0.122839,0.032812,-0.117281,0.053740
"2019-04-05 12:10:28.668 +0000",1554466228.668140,0.218606,0.575881,-0.098806,0.181891,-0.544574,-0.818752,0.000000,0.000000,0.000000,-1,-0.508856,-1.632328,-0.249439,0.003747,-0.058240,0.222820
"2019-04-05 12:10:28.688 +0000",1554466228.688221,0.197963,0.568279,-0.105416,0.165761,-0.538182,-0.826367,0.000000,0.000000,0.000000,-1,-0.190337,-0.978533,-0.422640,-0.022237,-0.029216,0.209928
"2019-04-05 12:10:28.708 +0000",1554466228.708271,0.189941,0.565125,-0.115972,0.159446,-0.535521,-0.829333,0.000000,0.000000,0.000000,-1,-0.088262,-0.367138,-0.486772,-0.009925,-0.047975,0.083880
"2019-04-05 12:10:28.728 +0000",1554466228.728349,0.203296,0.558187,-0.120511,0.171254,-0.529650,-0.830749,0.000000,0.000000,0.000000,-1,-0.382273,0.761261,-0.132700,0.030055,-0.147596,0.139632
"2019-04-05 12:10:28.748 +0000",1554466228.748399,0.201158,0.550852,-0.122900,0.170249,-0.523414,-0.834897,0.000000,0.000000,0.000000,-1,-0.370562,-0.986932,-0.312537,0.226861,-0.012139,-0.300296
"2019-04-05 12:10:28.768 +0000",1554466228.768481,0.177595,0.542853,-0.131155,0.151266,-0.516581,-0.842771,0.000000,0.000000,0.000000,-1,-0.251918,-1.393206,-0.450895,0.164835,-0.035238,-0.123690
"2019-04-05 12:10:28.789 +0000",1554466228.788529,0.165075,0.540332,-0.142189,0.140916,-0.514420,-0.845881,0.000000,0.000000,0.000000,-1,0.050441,-0.505464,-0.567215,0.093139,0.008363,0.142786
"2019-04-05 12:10:28.809 +0000",1554466228.808609,0.173249,0.541683,-0.161513,0.147706,-0.515579,-0.844015,0.000000,0.000000,0.000000,-1,0.293497,0.146313,-0.946789,0.200119,0.118331,0.237646
"2019-04-05 12:10:28.829 +0000",1554466228.828659,0.199702,0.547823,-0.185962,0.169347,-0.520830,-0.836694,0.000000,0.000000,0.000000,-1,0.576489,1.131869,-0.929798,0.136531,0.138064,0.374887
"2019-04-05 12:10:28.849 +0000",1554466228.848739,0.252892,0.560137,-0.206174,0.211969,-0.531303,-0.820236,0.000000,0.000000,0.000000,-1,0.919581,2.704286,-0.555245,0.147772,0.160834,0.386596
"2019-04-05 12:10:28.869 +0000",1554466228.868789,0.329277,0.580242,-0.224962,0.270435,-0.548226,-0.791399,0.000000,0.000000,0.000000,-1,1.290027,3.548341,-0.527009,0.249020,0.374566,0.215593
"2019-04-05 12:10:28.889 +0000",1554466228.888838,0.420195,0.600671,-0.257486,0.336532,-0.565196,-0.753193,0.000000,0.000000,0.000000,-1,1.495248,3.623846,-1.152385,0.313691,0.662013,0.114811
"2019-04-05 12:10:28.909 +0000",1554466228.908919,0.522384,0.611135,-0.307094,0.408636,-0.573798,-0.709769,0.000000,0.000000,0.000000,-1,1.246412,3.798592,-1.798813,0.227655,0.732306,0.198539
"2019-04-05 12:10:28.929 +0000",1554466228.928970,0.637108,0.605229,-0.358230,0.489207,-0.568951,-0.661039,0.000000,0.000000,0.000000,-1,0.646114,4.581739,-1.933292,0.064123,0.652233,0.277509
"2019-04-05 12:10:28.949 +0000",1554466228.949048,0.759777,0.581799,-0.399809,0.575442,-0.549528,-0.605711,0.000000,0.000000,0.000000,-1,-0.026361,5.059780,-2.212929,0.082075,0.724028,0.135725
"2019-04-05 12:10:28.969 +0000",1554466228.969097,0.878017,0.541197,-0.437573,0.659511,-0.515162,-0.547406,0.000000,0.000000,0.000000,-1,-0.246232,4.744263,-2.803857,0.026830,0.865672,-0.039386
"2019-04-05 12:10:28.989 +0000",1554466228.989178,0.991918,0.487537,-0.479923,0.739549,-0.468452,-0.483344,0.000000,0.000000,0.000000,-1,-0.001432,4.664498,-3.496683,-0.031053,0.943564,-0.065225
"2019-04-05 12:10:29.009 +0000",1554466229.009228,1.111793,0.420856,-0.524929,0.818266,-0.408541,-0.404394,0.000000,0.000000,0.000000,-1,0.130005,5.202634,-4.109353,-0.021330,0.892199,-0.113154
"2019-04-05 12:10:29.029 +0000",1554466229.029307,1.231088,0.339460,-0.561922,0.889048,-0.332978,-0.314197,0.000000,0.000000,0.000000,-1,-0.117264,5.127055,-4.578355,0.128302,0.810685,-0.431256
"2019-04-05 12:10:29.049 +0000",1554466229.049358,1.326987,0.242894,-0.583088,0.941940,-0.240513,-0.234315,0.000000,0.000000,0.000000,-1,-0.557379,3.973733,-5.126546,0.232514,0.780277,-0.718001
"2019-04-05 12:10:29.069 +0000",1554466229.069437,1.392692,0.132056,-0.592853,0.975612,-0.131672,-0.175622,0.000000,0.000000,0.000000,-1,-0.707556,2.834030,-5.722287,0.260991,0.710194,-0.777518
"2019-04-05 12:10:29.089 +0000",1554466229.089487,1.446178,0.010588,-0.598179,0.992190,-0.010588,-0.124289,0.000000,0.000000,0.000000,-1,-0.604656,2.594805,-6.187186,0.330778,0.592116,-0.754754
"2019-04-05 12:10:29.110 +0000",1554466229.109536,1.494073,-0.115846,-0.599853,0.990375,0.115587,-0.076135,0.000000,0.000000,0.000000,-1,-0.492437,2.148114,-6.274491,0.600369,0.419173,-0.984916
"2019-04-05 12:10:29.130 +0000",1554466229.129617,1.520807,-0.237906,-0.599552,0.970620,0.235668,-0.048561,0.000000,0.000000,0.000000,-1,-0.323776,0.811193,-5.872658,0.786155,0.142506,-1.163857
"2019-04-05 12:10:29.150 +0000",1554466229.149666,1.520695,-0.346483,-0.602491,0.939393,0.339592,-0.047104,0.000000,0.000000,0.000000,-1,0.055496,-0.361143,-5.137801,0.828948,-0.065559,-1.094848
"2019-04-05 12:10:29.170 +0000",1554466229.169745,1.499230,-0.441380,-0.617301,0.901849,0.427188,-0.064652,0.000000,0.000000,0.000000,-1,0.578490,-0.936985,-4.539608,0.784141,-0.150485,-0.832168
"2019-04-05 12:10:29.190 +0000",1554466229.189795,1.464421,-0.524010,-0.641545,0.860926,0.500356,-0.091928,0.000000,0.000000,0.000000,-1,0.717773,-1.338126,-4.004035,0.744360,-0.274999,-0.651968
"2019-04-05 12:10:29.210 +0000",1554466229.209876,1.419666,-0.594162,-0.669614,0.819173,0.559814,-0.124753,0.000000,0.000000,0.000000,-1,0.770511,-1.469118,-3.386853,0.732051,-0.396561,-0.423510
"2019-04-05 12:10:29.230 +0000",1554466229.229925,1.379056,-0.651043,-0.705487,0.780875,0.606016,-0.151588,0.000000,0.000000,0.000000,-1,1.082893,-0.623021,-2.848463,0.678979,-0.501097,-0.159112
"2019-04-05 12:10:29.250 +0000",1554466229.250006,1.345129,-0.694567,-0.752167,0.748850,0.640052,-0.171920,0.000000,0.000000,0.000000,-1,1.441221,-0.132150,-2.249055,0.744161,-0.597313,-0.086580
"2019-04-05 12:10:29.270 +0000",1554466229.270055,1.304848,-0.720681,-0.789039,0.724942,0.659896,-0.197475,0.000000,0.000000,0.000000,-1,0.715939,-1.211228,-1.169498,0.836658,-0.864547,-0.077015
"2019-04-05 12:10:29.290 +0000",1554466229.290135,1.262321,-0.726394,-0.796758,0.712287,0.664178,-0.226968,0.000000,0.000000,0.000000,-1,-0.111000,-2.101022,0.222610,0.976632,-1.077920,0.240137
"2019-04-05 12:10:29.310 +0000",1554466229.310184,1.241034,-0.704678,-0.774676,0.720773,0.647789,-0.246691,0.000000,0.000000,0.000000,-1,-0.831221,-1.752113,1.923264,0.833564,-1.132240,0.595995
"2019-04-05 12:10:29.330 +0000",1554466229.330235,1.238080,-0.672647,-0.694565,0.739279,0.623059,-0.255467,0.000000,0.000000,0.000000,-1,-3.721442,-3.606821,2.636343,0.814523,-0.904065,0.646321
"2019-04-05 12:10:29.350 +0000",1554466229.350315,1.234334,-0.661969,-0.556485,0.744555,0.614671,-0.260416,0.000000,0.000000,0.000000,-1,-5.020772,-4.383053,2.085633,0.632017,-0.343370,0.852625
"2019-04-05 12:10:29.370 +0000",1554466229.370364,1.243508,-0.662537,-0.439571,0.746582,0.615119,-0.253463,0.000000,0.000000,0.000000,-1,-3.768685,-2.373971,1.304514,0.240540,-0.055411,1.019683
"2019-04-05 12:10:29.390 +0000",1554466229.390444,1.272313,-0.645114,-0.366436,0.763700,0.601290,-0.234972,0.000000,0.000000,0.000000,-1,-1.879749,0.428703,1.688009,-0.279844,-0.276476,1.382067
"2019-04-05 12:10:29.410 +0000",1554466229.410494,1.337442,-0.622558,-0.334406,0.790370,0.583115,-0.187859,0.000000,0.000000,0.000000,-1,-0.430295,3.341423,1.325354,-0.163982,-0.201386,1.282768
"2019-04-05 12:10:29.431 +0000",1554466229.430573,1.429784,-0.594191,-0.327156,0.820377,0.559839,-0.116456,0.000000,0.000000,0.000000,-1,0.051644,4.784060,1.471481,-0.049732,-0.360238,0.794007
"2019-04-05 12:10:29.451 +0000",1554466229.450624,1.520584,-0.562488,-0.317147,0.844864,0.533293,-0.042458,0.000000,0.000000,0.000000,-1,-0.606764,3.626429,1.795840,0.201431,-0.420469,0.133644
"2019-04-05 12:10:29.471 +0000",1554466229.470704,1.580171,-0.511718,-0.284445,0.871866,0.489676,0.008174,0.000000,0.000000,0.000000,-1,-1.795279,1.361956,3.079970,0.401617,-0.731207,-0.024440
"2019-04-05 12:10:29.491 +0000",1554466229.490754,1.618344,-0.438443,-0.232290,0.904390,0.424530,0.043034,0.000000,0.000000,0.000000,-1,-2.800484,0.335296,3.753591,0.439116,-0.408646,0.108287
"2019-04-05 12:10:29.511 +0000",1554466229.510833,1.638075,-0.360781,-0.164420,0.933504,0.353005,0.062900,0.000000,0.000000,0.000000,-1,-3.534986,-0.733843,3.391544,0.170316,-0.144448,0.094495
"2019-04-05 12:10:29.531 +0000",1554466229.530899,1.639048,-0.310776,-0.099203,0.949879,0.305798,0.064932,0.000000,0.000000,0.000000,-1,-2.846784,-0.746662,1.568051,0.047511,0.297855,0.085596
"2019-04-05 12:10:29.551 +0000",1554466229.550948,1.670363,-0.301345,-0.064306,0.950208,0.296805,0.094923,0.000000,0.000000,0.000000,-1,-0.827674,2.166028,-0.380345,-0.078077,0.700799,0.286761
"2019-04-05 12:10:29.571 +0000",1554466229.571029,1.731808,-0.326207,-0.078001,0.935012,0.320453,0.151863,0.000000,0.000000,0.000000,-1,1.725331,3.588291,-1.518166,0.129930,0.784299,0.122384
"2019-04-05 12:10:29.591 +0000",1554466229.591079,1.782928,-0.377803,-0.123166,0.908642,0.368879,0.195696,0.000000,0.000000,0.000000,-1,2.849926,3.027278,-2.485538,0.257282,0.910632,0.035230
"2019-04-05 12:10:29.611 +0000",1554466229.611159,1.811291,-0.441626,-0.160818,0.878039,0.427410,0.215331,0.000000,0.000000,0.000000,-1,1.859725,1.576546,-2.748594,0.176573,0.701344,-0.025588
"2019-04-05 12:10:29.631 +0000",1554466229.631208,1.822101,-0.493895,-0.157165,0.852835,0.474059,0.218950,0.000000,0.000000,0.000000,-1,-0.299001,-0.327543,-2.370689,-0.040335,0.336641,-0.320741
"2019-04-05 12:10:29.651 +0000",1554466229.651288,1.808483,-0.525795,-0.120218,0.840607,0.501901,0.203651,0.000000,0.000000,0.000000,-1,-1.592840,-2.120744,-1.511362,-0.028077,0.133384,-0.406913
"2019-04-05 12:10:29.671 +0000",1554466229.671337,1.782596,-0.536314,-0.070874,0.840389,0.510971,0.180704,0.000000,0.000000,0.000000,-1,-2.079234,-2.857506,-0.752286,0.038655,0.212463,-0.566568
"2019-04-05 12:10:29.691 +0000",1554466229.691418,1.744558,-0.534414,-0.014319,0.847607,0.509337,0.148782,0.000000,0.000000,0.000000,-1,-2.614479,-3.605886,-0.162400,0.109042,0.356599,-0.642709
"2019-04-05 12:10:29.711 +0000",1554466229.711468,1.726514,-0.535277,0.058481,0.849719,0.510080,0.133396,0.000000,0.000000,0.000000,-1,-3.310794,-1.892099,-0.666600,0.018094,0.229544,-0.059269
"2019-04-05 12:10:29.732 +0000",1554466229.731547,1.741167,-0.542692,0.145024,0.843922,0.516443,0.145187,0.000000,0.000000,0.000000,-1,-3.625801,-1.516318,-1.321028,-0.329533,-0.219263,-0.423203
"2019-04-05 12:10:29.752 +0000",1554466229.751598,1.769427,-0.573254,0.223934,0.823620,0.542369,0.165783,0.000000,0.000000,0.000000,-1,-2.412510,0.210054,-2.599774,-0.319897,0.008565,-0.005596
"2019-04-05 12:10:29.772 +0000",1554466229.771649,1.820489,-0.641478,0.257086,0.776364,0.598380,0.197984,0.000000,0.000000,0.000000,-1,0.704495,2.221140,-4.225619,-0.017910,0.444497,-0.143266
"2019-04-05 12:10:29.792 +0000",1554466229.791727,1.838609,-0.750047,0.236075,0.705573,0.681673,0.193612,0.000000,0.000000,0.000000,-1,2.736756,0.794963,-5.436337,-0.054725,0.047285,-0.497293
"2019-04-05 12:10:29.812 +0000",1554466229.811776,1.796117,-0.887109,0.199791,0.615687,0.775249,0.141123,0.000000,0.000000,0.000000,-1,2.847104,-1.733524,-6.876298,0.030156,-0.315089,-0.389186
"2019-04-05 12:10:29.832 +0000",1554466229.831857,1.710438,-1.048561,0.158921,0.493960,0.866706,0.069429,0.000000,0.000000,0.000000,-1,2.419342,-2.825013,-8.083480,-0.090197,-0.592048,0.000303
"2019-04-05 12:10:29.852 +0000",1554466229.851909,1.686242,-1.212006,0.142514,0.348800,0.936322,0.040447,0.000000,0.000000,0.000000,-1,0.557110,1.484151,-7.813616,-0.095839,-0.940946,0.792729
"2019-04-05 12:10:29.872 +0000",1554466229.871986,1.834131,-1.360386,0.231203,0.201652,0.977945,0.054365,0.000000,0.000000,0.000000,-1,0.087646,3.662224,-7.320982,-0.065971,-0.991480,0.276126
"2019-04-05 12:10:29.892 +0000",1554466229.892036,2.169075,-1.494396,0.508677,0.063049,0.997083,0.042975,0.000000,0.000000,0.000000,-1,1.959100,1.981480,-6.402285,0.077805,-0.845990,-0.090186
"2019-04-05 12:10:29.912 +0000",1554466229.912117,-1.044457,-1.516470,-2.677383,-0.046925,0.998525,-0.027264,0.000000,0.000000,0.000000,-1,3.957606,-3.309732,-4.969578,0.319691,-0.191442,-0.237369
"2019-04-05 12:10:29.932 +0000",1554466229.932166,-1.010244,-1.400521,-2.568391,-0.143514,0.985538,-0.090087,0.000000,0.000000,0.000000,-1,3.126606,-2.824324,-4.466229,0.452184,0.509579,0.263915
"2019-04-05 12:10:29.952 +0000",1554466229.952248,-1.028194,-1.309218,-2.591513,-0.221458,0.965983,-0.133533,0.000000,0.000000,0.000000,-1,1.168820,1.793161,-3.651510,-0.128549,1.426824,-0.081448
"2019-04-05 12:10:29.972 +0000",1554466229.972297,-1.066572,-1.270703,-2.673928,-0.258818,0.955309,-0.142816,0.000000,0.000000,0.000000,-1,-0.270746,1.255640,-1.574763,-0.801302,0.991545,-0.865790
"2019-04-05 12:10:29.992 +0000",1554466229.992346,-1.141116,-1.254515,-2.735389,-0.282758,0.950399,-0.129570,0.000000,0.000000,0.000000,-1,-0.702567,-1.656831,-1.012350,-0.438586,-0.319188,-0.389687
"2019-04-05 12:10:30.012 +0000",1554466230.012426,-1.219257,-1.244499,-2.803956,-0.300931,0.947236,-0.110374,0.000000,0.000000,0.000000,-1,-0.634511,0.234838,-0.736636,-0.371081,-0.343064,0.545707
"2019-04-05 12:10:30.032 +0000",1554466230.032475,-1.211568,-1.235435,-2.817220,-0.308099,0.944291,-0.115698,0.000000,0.000000,0.000000,-1,0.316420,1.087961,-0.356340,-0.242071,-0.066514,0.531576
"2019-04-05 12:10:30.053 +0000",1554466230.052556,-1.172641,-1.228717,-2.781529,-0.309204,0.942059,-0.130058,0.000000,0.000000,0.000000,-1,0.771798,-0.342761,0.073361,-0.170654,-0.036633,0.158042
"2019-04-05 12:10:30.073 +0000",1554466230.072605,-1.150284,-1.227679,-2.738765,-0.307112,0.941710,-0.137337,0.000000,0.000000,0.000000,-1,0.572613,-0.975385,0.270790,0.056837,-0.018767,-0.030846
"2019-04-05 12:10:30.093 +0000",1554466230.092685,-1.156196,-1.225785,-2.726126,-0.309551,0.941072,-0.136237,0.000000,0.000000,0.000000,-1,0.051760,-0.728174,-0.172533,0.766018,0.105727,-0.181497
"2019-04-05 12:10:30.113 +0000",1554466230.112736,-1.140967,-1.221005,-2.708886,-0.311526,0.939444,-0.142808,0.000000,0.000000,0.000000,-1,0.636185,0.280506,0.019426,0.342731,0.343072,0.303575
"2019-04-05 12:10:30.133 +0000",1554466230.132815,-1.089017,-1.221005,-2.661427,-0.303691,0.939444,-0.158792,0.000000,0.000000,0.000000,-1,0.659101,0.285674,0.547483,0.175380,0.266732,0.164865
"2019-04-05 12:10:30.153 +0000",1554466230.152865,-1.049121,-1.230147,-2.620841,-0.289658,0.942538,-0.166492,0.000000,0.000000,0.000000,-1,0.217746,0.012647,0.800448,0.054123,0.355207,-0.028973
"2019-04-05 12:10:30.173 +0000",1554466230.172945,-1.025422,-1.244060,-2.596283,-0.274393,0.947095,-0.166490,0.000000,0.000000,0.000000,-1,-0.139314,0.077786,0.786548,-0.024344,0.415988,-0.083815
"2019-04-05 12:10:30.193 +0000",1554466230.192994,-1.022421,-1.259567,-2.592850,-0.261326,0.951958,-0.159637,0.000000,0.000000,0.000000,-1,-0.499333,-0.135659,0.674212,0.082203,0.485847,-0.119294
"2019-04-05 12:10:30.213 +0000",1554466230.213044,-1.044537,-1.281808,-2.609350,-0.246420,0.958533,-0.143146,0.000000,0.000000,0.000000,-1,-0.963062,-0.394840,0.912350,0.099478,0.454553,-0.099972
"2019-04-05 12:10:30.233 +0000",1554466230.233123,-1.106893,-1.312235,-2.664045,-0.228664,0.966759,-0.114405,0.000000,0.000000,0.000000,-1,-1.637728,-0.555996,1.010643,0.023006,0.293846,-0.053167
"2019-04-05 12:10:30.253 +0000",1554466230.253173,-1.251475,-1.346402,-2.795065,-0.211265,0.974929,-0.069852,0.000000,0.000000,0.000000,-1,-2.375991,-1.086062,0.943416,-0.070672,0.093308,0.046826
"2019-04-05 12:10:30.273 +0000",1554466230.273253,-1.515300,-1.374831,-3.038312,-0.194411,0.980860,-0.010800,0.000000,0.000000,0.000000,-1,-2.901253,-1.365333,0.908038,-0.202471,-0.027430,0.192487
"2019-04-05 12:10:30.293 +0000",1554466230.293303,-1.857467,-1.385152,2.924556,-0.177044,0.982818,0.052191,0.000000,0.000000,0.000000,-1,-2.868045,-1.392968,0.753521,-0.391270,0.023652,0.223734
"2019-04-05 12:10:30.313 +0000",1554466230.313383,-2.118273,-1.369907,2.694488,-0.170371,0.979890,0.103865,0.000000,0.000000,0.000000,-1,-1.891497,-2.079342,-0.249902,-0.495919,0.213775,0.076280
"2019-04-05 12:10:30.333 +0000",1554466230.333433,-2.233533,-1.343870,2.628480,-0.177354,0.974363,0.138424,0.000000,0.000000,0.000000,-1,-1.081812,-2.624291,-0.724554,-0.420547,-0.026456,-0.010006
"2019-04-05 12:10:30.354 +0000",1554466230.353513,-2.309913,-1.323510,2.596334,-0.180901,0.969580,0.164886,0.000000,0.000000,0.000000,-1,-0.890713,-1.839733,-0.372296,-0.292838,-0.215506,0.054352
"2019-04-05 12:10:30.374 +0000",1554466230.373562,-2.371389,-1.310347,2.552917,-0.179301,0.966274,0.184834,0.000000,0.000000,0.000000,-1,-0.850247,-0.485098,0.050544,-0.255986,-0.063671,0.075816
"2019-04-05 12:10:30.394 +0000",1554466230.393642,-2.429591,-1.299617,2.493669,-0.175009,0.963456,0.202788,0.000000,0.000000,0.000000,-1,-0.954201,0.091272,0.335032,-0.184015,0.166747,-0.020995
"2019-04-05 12:10:30.414 +0000",1554466230.413692,-2.511292,-1.293122,2.405772,-0.161561,0.961695,0.221445,0.000000,0.000000,0.000000,-1,-1.003913,0.123043,1.003862,-0.096602,0.245488,-0.143900
"2019-04-05 12:10:30.434 +0000",1554466230.433741,-2.631376,-1.292879,2.278330,-0.133983,0.961629,0.239408,0.000000,0.000000,0.000000,-1,-0.915169,0.228070,1.734229,0.029201,0.179149,-0.199156
"2019-04-05 12:10:30.454 +0000",1554466230.453821,-2.765101,-1.293145,2.123428,-0.100774,0.961702,0.254897,0.000000,0.000000,0.000000,-1,-0.855004,1.064879,1.901642,0.137791,-0.136827,-0.201278
"2019-04-05 12:10:30.474 +0000",1554466230.473871,-2.866852,-1.289282,1.985777,-0.075368,0.960636,0.267387,0.000000,0.000000,0.000000,-1,-0.752764,1.828400,1.597147,0.202947,-0.400501,-0.252006
"2019-04-05 12:10:30.494 +0000",1554466230.493952,-2.911975,-1.280692,1.888995,-0.065106,0.958214,0.278540,0.000000,0.000000,0.000000,-1,-0.761023,2.627187,0.930981,0.193844,-0.436867,-0.275900
"2019-04-05 12:10:30.514 +0000",1554466230.513969,-2.900163,-1.266276,1.847502,-0.071687,0.953991,0.291137,0.000000,0.000000,0.000000,-1,-0.902945,2.448844,0.126088,0.144014,-0.506359,-0.292312
"2019-04-05 12:10:30.534 +0000",1554466230.534048,-2.855396,-1.246839,1.849004,-0.089863,0.947983,0.305369,0.000000,0.000000,0.000000,-1,-0.899989,2.011936,-0.479451,0.046406,-0.617676,-0.191798
"2019-04-05 12:10:30.554 +0000",1554466230.554098,-2.794376,-1.230141,1.873977,-0.113689,0.942536,0.314164,0.000000,0.000000,0.000000,-1,-0.464808,1.766018,-0.693915,-0.125508,-0.661210,-0.035950
"2019-04-05 12:10:30.574 +0000",1554466230.574177,-2.729985,-1.225210,1.910465,-0.135527,0.940877,0.310454,0.000000,0.000000,0.000000,-1,0.299532,1.274134,-0.613637,-0.219393,-0.648900,0.067094
"2019-04-05 12:10:30.594 +0000",1554466230.594228,-2.670874,-1.235216,1.955019,-0.149353,0.944219,0.293500,0.000000,0.000000,0.000000,-1,0.995542,0.672727,-0.360893,-0.196914,-0.510961,0.163028
"2019-04-05 12:10:30.614 +0000",1554466230.614307,-2.618286,-1.252311,1.997523,-0.156484,0.949711,0.271221,0.000000,0.000000,0.000000,-1,1.005979,0.593962,-0.100199,-0.115565,-0.220219,0.298908
"2019-04-05 12:10:30.634 +0000",1554466230.634357,-2.590625,-1.261087,2.016597,-0.159556,0.952422,0.259678,0.000000,0.000000,0.000000,-1,0.184380,0.241518,-0.052981,-0.100744,0.246186,0.325344
"2019-04-05 12:10:30.654 +0000",1554466230.654407,-2.607658,-1.253315,2.014186,-0.158872,0.950025,0.268722,0.000000,0.000000,0.000000,-1,-0.642823,-1.386964,-0.159176,-0.167879,0.934085,0.227753
"2019-04-05 12:10:30.674 +0000",1554466230.674487,-2.673534,-1.234432,1.974848,-0.148906,0.943961,0.294557,0.000000,0.000000,0.000000,-1,-1.425847,-0.965401,0.362041,-0.187840,1.432474,0.376570
"2019-04-05 12:10:30.695 +0000",1554466230.694538,-2.739152,-1.211928,1.911720,-0.137558,0.936295,0.323154,0.000000,0.000000,0.000000,-1,-1.319867,-0.013768,0.485888,-0.101319,0.179443,0.446179
"2019-04-05 12:10:30.715 +0000",1554466230.714616,-2.774201,-1.203058,1.870434,-0.129128,0.933143,0.335514,0.000000,0.000000,0.000000,-1,-0.245678,0.305516,0.458211,-0.001549,-0.662010,0.381131
"2019-04-05 12:10:30.735 +0000",1554466230.734667,-2.752343,-1.206782,1.883265,-0.135110,0.934475,0.329394,0.000000,0.000000,0.000000,-1,0.448061,0.505184,-0.614290,0.114617,-0.361584,0.078413
"2019-04-05 12:10:30.755 +0000",1554466230.754747,-2.673349,-1.206136,1.963670,-0.160955,0.934245,0.318244,0.000000,0.000000,0.000000,-1,0.678501,-0.083862,-1.613549,0.098119,-0.089000,-0.106513
"2019-04-05 12:10:30.775 +0000",1554466230.774796,-2.572079,-1.213390,2.090099,-0.188644,0.936807,0.294626,0.000000,0.000000,0.000000,-1,1.924147,-1.312977,-1.798752,-0.241104,0.158880,-0.131082
"2019-04-05 12:10:30.795 +0000",1554466230.794875,-2.460098,-1.227080,2.249166,-0.212286,0.941509,0.261714,0.000000,0.000000,0.000000,-1,2.070504,-2.035141,-1.781218,-0.537683,0.385624,-0.384578
"2019-04-05 12:10:30.815 +0000",1554466230.814925,-2.367270,-1.236080,2.377323,-0.229697,0.944504,0.234842,0.000000,0.000000,0.000000,-1,1.602275,-0.949275,-0.912521,-0.734643,0.219147,-0.344797
"2019-04-05 12:10:30.835 +0000",1554466230.835006,-2.310330,-1.254090,2.449913,-0.230084,0.950266,0.209891,0.000000,0.000000,0.000000,-1,1.370678,-0.451715,0.223931,-0.703250,-0.152125,-0.399786
"2019-04-05 12:10:30.855 +0000",1554466230.855055,-2.276037,-1.278316,2.490297,-0.219548,0.957532,0.186899,0.000000,0.000000,0.000000,-1,1.210269,-0.123099,0.599692,-0.313594,-0.292416,-0.338464
"2019-04-05 12:10:30.875 +0000",1554466230.875105,-2.239382,-1.302971,2.534278,-0.207658,0.964349,0.164041,0.000000,0.000000,0.000000,-1,1.285110,-0.419821,0.511677,-0.137328,-0.203866,-0.362206
"2019-04-05 12:10:30.895 +0000",1554466230.895185,-2.188180,-1.324860,2.597620,-0.198520,0.969910,0.140942,0.000000,0.000000,0.000000,-1,1.283231,-0.501649,0.300722,-0.098477,-0.050644,-0.407376
"2019-04-05 12:10:30.915 +0000",1554466230.915235,-2.123060,-1.340704,2.673445,-0.194163,0.973645,0.119648,0.000000,0.000000,0.000000,-1,1.095753,-0.366414,0.131071,-0.060369,0.005160,-0.408512
"2019-04-05 12:10:30.935 +0000",1554466230.935315,-2.055730,-1.352790,2.746495,-0.191347,0.976331,0.100820,0.000000,0.000000,0.000000,-1,0.976277,-0.104722,0.108403,0.005541,-0.022336,-0.378210
"2019-04-05 12:10:30.955 +0000",1554466230.955364,-1.990599,-1.361706,2.812901,-0.189545,0.978220,0.084601,0.000000,0.000000,0.000000,-1,0.674566,0.103934,0.094616,0.098527,-0.127176,-0.192587
"2019-04-05 12:10:30.975 +0000",1554466230.975445,-1.944038,-1.367041,2.853068,-0.188415,0.979313,0.073783,0.000000,0.000000,0.000000,-1,0.424008,0.394443,0.046773,0.119888,-0.247975,0.187280
"2019-04-05 12:10:30.995 +0000",1554466230.995494,-1.870562,-1.368186,2.923739,-0.192251,0.979545,0.059421,0.000000,0.000000,0.000000,-1,0.953188,0.051725,-0.328869,0.026373,-0.275596,0.238583
"2019-04-05 12:10:31.016 +0000",1554466231.015574,-1.740788,-1.367322,3.060715,-0.199157,0.979370,0.034185,0.000000,0.000000,0.000000,-1,1.461694,-0.245352,-0.301912,-0.006134,-0.314087,0.056422
"2019-04-05 12:10:31.036 +0000",1554466231.035624,-1.601098,-1.365032,-3.077822,-0.204220,0.978905,0.006190,0.000000,0.000000,0.000000,-1,1.378426,-0.024144,-0.253406,0.145566,-0.124398,-0.066386
"2019-04-05 12:10:31.056 +0000",1554466231.055704,-1.483895,-1.361237,-2.954808,-0.207243,0.978123,-0.018055,0.000000,0.000000,0.000000,-1,1.253669,-0.295266,-0.058724,0.159849,0.046856,0.007954
"2019-04-05 12:10:31.076 +0000",1554466231.075752,-1.374008,-1.358781,-2.832350,-0.206368,0.977609,-0.041143,0.000000,0.000000,0.000000,-1,1.269644,-0.596261,0.102547,0.155312,0.181235,0.126150
"2019-04-05 12:10:31.096 +0000",1554466231.095803,-1.284301,-1.355644,-2.729257,-0.204793,0.976944,-0.060332,0.000000,0.000000,0.000000,-1,0.973297,-0.467365,0.094996,0.118794,0.079178,0.084899
"2019-04-05 12:10:31.116 +0000",1554466231.115883,-1.222277,-1.351081,-2.663112,-0.204847,0.975959,-0.074431,0.000000,0.000000,0.000000,-1,0.620406,0.075273,-0.062882,0.122388,-0.026024,0.033614
"2019-04-05 12:10:31.136 +0000",1554466231.135932,-1.186625,-1.343818,-2.629870,-0.208629,0.974351,-0.084340,0.000000,0.000000,0.000000,-1,0.393621,0.104216,-0.306088,0.140682,-0.046693,0.015797
"2019-04-05 12:10:31.156 +0000",1554466231.156012,-1.177297,-1.333176,-2.616626,-0.217398,0.971901,-0.090253,0.000000,0.000000,0.000000,-1,0.322600,-0.318920,-0.482332,0.144049,-0.053368,0.131665
"2019-04-05 12:10:31.176 +0000",1554466231.176063,-1.179868,-1.321884,-2.612655,-0.227762,0.969181,-0.093870,0.000000,0.000000,0.000000,-1,0.206430,-0.265656,-0.509632,0.073312,-0.030170,0.182432
"2019-04-05 12:10:31.196 +0000",1554466231.196143,-1.189307,-1.310817,-2.620292,-0.238579,0.966395,-0.095704,0.000000,0.000000,0.000000,-1,0.083796,-0.022031,-0.564265,0.009361,0.016912,0.107315
"2019-04-05 12:10:31.216 +0000",1554466231.216192,-1.196900,-1.301523,-2.630027,-0.247649,0.963964,-0.097166,0.000000,0.000000,0.000000,-1,0.033457,0.158745,-0.407307,0.068206,0.123514,0.040601
"2019-04-05 12:10:31.236 +0000",1554466231.236273,-1.222371,-1.313756,-2.659589,-0.238942,0.967147,-0.086794,0.000000,0.000000,0.000000,-1,0.084394,0.240544,-0.227352,0.283253,0.147401,0.090167
"2019-04-05 12:10:31.256 +0000",1554466231.256322,-1.284363,-1.328378,-2.718706,-0.230269,0.970760,-0.067822,0.000000,0.000000,0.000000,-1,0.123859,-0.164685,-0.055674,0.316542,0.160908,0.178860
"2019-04-05 12:10:31.276 +0000",1554466231.276402,-1.287054,-1.328881,-2.716641,-0.229982,0.970881,-0.067065,0.000000,0.000000,0.000000,-1,-0.031815,-0.276256,0.068028,0.317705,0.324056,0.165423
"2019-04-05 12:10:31.296 +0000",1554466231.296452,-1.303540,-1.333866,-2.726463,-0.226385,0.972063,-0.061986,0.000000,0.000000,0.000000,-1,-0.286741,-0.378214,0.319762,0.227026,0.445829,-0.016613
"2019-04-05 12:10:31.317 +0000",1554466231.316501,-1.341444,-1.346409,-2.759244,-0.216681,0.974931,-0.050586,0.000000,0.000000,0.000000,-1,-0.678254,-0.257833,0.626528,0.118063,0.382369,-0.236386
"2019-04-05 12:10:31.337 +0000",1554466231.336581,-1.435755,-1.366643,-2.847741,-0.200891,0.979233,-0.027295,0.000000,0.000000,0.000000,-1,-1.409586,-0.505137,0.946276,0.044015,0.256103,-0.251072
"2019-04-05 12:10:31.357 +0000",1554466231.356630,-1.648496,-1.388910,-3.053515,-0.180338,0.983504,0.014040,0.000000,0.000000,0.000000,-1,-2.328452,-0.474707,1.082780,0.002131,0.075395,-0.006930
"2019-04-05 12:10:31.377 +0000",1554466231.376711,-1.964008,-1.398432,2.915889,-0.158421,0.985182,0.065715,0.000000,0.000000,0.000000,-1,-2.577947,-0.265028,1.077382,-0.281337,-0.012861,0.150288
"2019-04-05 12:10:31.397 +0000",1554466231.396761,-2.248682,-1.390041,2.633457,-0.140023,0.983708,0.112742,0.000000,0.000000,0.000000,-1,-2.101068,-0.465213,0.708508,-0.533576,0.236018,0.125386
"2019-04-05 12:10:31.417 +0000",1554466231.416840,-2.400467,-1.371375,2.501284,-0.133741,0.980181,0.146141,0.000000,0.000000,0.000000,-1,-1.196970,-1.516319,-0.136727,-0.619402,0.424009,-0.081245
"2019-04-05 12:10:31.437 +0000",1554466231.436890,-2.488513,-1.356766,2.451350,-0.129062,0.977183,0.168691,0.000000,0.000000,0.000000,-1,-0.815389,-2.108986,0.131723,-0.545606,0.168081,-0.145376
"2019-04-05 12:10:31.457 +0000",1554466231.456970,-2.620285,-1.349687,2.353141,-0.109220,0.975655,0.190179,0.000000,0.000000,0.000000,-1,-0.924166,-1.475323,0.947623,-0.330737,0.076896,-0.020807
"2019-04-05 12:10:31.477 +0000",1554466231.477021,-2.755002,-1.338124,2.234582,-0.086935,0.973054,0.213561,0.000000,0.000000,0.000000,-1,-1.229299,-0.675396,0.863543,-0.172205,0.200652,-0.005614
"2019-04-05 12:10:31.497 +0000",1554466231.497100,-2.850283,-1.315968,2.140268,-0.072398,0.967707,0.241457,0.000000,0.000000,0.000000,-1,-1.492690,0.085193,0.623840,-0.107304,0.200964,-0.028520
"2019-04-05 12:10:31.517 +0000",1554466231.517161,-2.917311,-1.291864,2.060622,-0.061235,0.961350,0.268432,0.000000,0.000000,0.000000,-1,-1.333381,0.743260,0.855641,-0.040099,0.075149,-0.080032
"2019-04-05 12:10:31.537 +0000",1554466231.537213,-2.987151,-1.276492,1.960412,-0.044621,0.957004,0.286620,0.000000,0.000000,0.000000,-1,-0.794084,1.640212,1.468085,0.031743,-0.072025,-0.170379
"2019-04-05 12:10:31.557 +0000",1554466231.557291,-3.056521,-1.271478,1.845797,-0.025055,0.955538,0.293802,0.000000,0.000000,0.000000,-1,-0.256274,2.135311,1.636901,0.099167,-0.183855,-0.306039
"2019-04-05 12:10:31.577 +0000",1554466231.577340,-3.105944,-1.272021,1.747338,-0.010491,0.955698,0.294162,0.000000,0.000000,0.000000,-1,0.011529,2.289395,1.271300,0.112054,-0.356912,-0.390842
"2019-04-05 12:10:31.597 +0000",1554466231.597420,-3.110188,-1.272135,1.690774,-0.009239,0.955731,0.294095,0.000000,0.000000,0.000000,-1,-0.068865,2.551236,0.535167,0.088432,-0.438184,-0.449185
"2019-04-05 12:10:31.617 +0000",1554466231.617471,-3.067622,-1.264661,1.681624,-0.022273,0.953505,0.300551,0.000000,0.000000,0.000000,-1,-0.640537,2.484828,-0.090648,0.030009,-0.560164,-0.466277
"2019-04-05 12:10:31.638 +0000",1554466231.637551,-3.013664,-1.242534,1.691561,-0.041131,0.946604,0.319763,0.000000,0.000000,0.000000,-1,-1.308320,2.066414,-0.351636,-0.109336,-0.620707,-0.384765
"2019-04-05 12:10:31.658 +0000",1554466231.657600,-2.961857,-1.210448,1.705600,-0.063034,0.935774,0.346920,0.000000,0.000000,0.000000,-1,-1.632027,1.901884,-0.564062,-0.221649,-0.607237,-0.223812
"2019-04-05 12:10:31.678 +0000",1554466231.677680,-2.909498,-1.180833,1.721299,-0.087442,0.924923,0.369961,0.000000,0.000000,0.000000,-1,-1.083165,1.833400,-0.508058,-0.303427,-0.506008,0.042423
"2019-04-05 12:10:31.698 +0000",1554466231.697730,-2.876086,-1.177040,1.732656,-0.100672,0.923474,0.370216,0.000000,0.000000,0.000000,-1,0.460341,0.593285,-0.125459,-0.267523,-0.418500,0.216316
"2019-04-05 12:10:31.718 +0000",1554466231.717810,-2.859200,-1.195970,1.748905,-0.102018,0.930571,0.351610,0.000000,0.000000,0.000000,-1,1.150191,-0.089951,-0.065559,-0.059771,-0.153640,0.338957
"2019-04-05 12:10:31.738 +0000",1554466231.737860,-2.831851,-1.209107,1.787119,-0.107859,0.935300,0.337016,0.000000,0.000000,0.000000,-1,0.400837,-0.615596,-0.767330,-0.101842,0.271578,0.300466
"2019-04-05 12:10:31.758 +0000",1554466231.757910,-2.827023,-1.189964,1.808941,-0.115005,0.928356,0.353454,0.000000,0.000000,0.000000,-1,-1.407124,-0.796197,-0.303168,-0.196305,0.799077,0.271775
"2019-04-05 12:10:31.778 +0000",1554466231.777989,-2.884788,-1.168487,1.753560,-0.099449,0.920159,0.378705,0.000000,0.000000,0.000000,-1,-0.985793,0.014514,1.080284,-0.114143,0.890311,0.496616
"2019-04-05 12:10:31.798 +0000",1554466231.798038,-2.921250,-1.168240,1.702612,-0.085627,0.920063,0.382299,0.000000,0.000000,0.000000,-1,0.133116,0.670894,0.927447,0.134440,-0.117923,0.370493
"2019-04-05 12:10:31.818 +0000",1554466231.818119,-2.935542,-1.183031,1.674804,-0.077362,0.925756,0.370122,0.000000,0.000000,0.000000,-1,0.815847,0.482293,0.399436,0.216674,-0.331076,0.115459
"2019-04-05 12:10:31.838 +0000",1554466231.838169,-2.898272,-1.198673,1.707556,-0.087599,0.931557,0.352883,0.000000,0.000000,0.000000,-1,0.899395,0.208210,-0.944942,0.276335,-0.043755,-0.146447
"2019-04-05 12:10:31.858 +0000",1554466231.858248,-2.812761,-1.211958,1.803651,-0.113411,0.936306,0.332369,0.000000,0.000000,0.000000,-1,1.387547,-0.602297,-1.624749,0.062874,0.357182,-0.302370
"2019-04-05 12:10:31.878 +0000",1554466231.878298,-2.716142,-1.225906,1.940453,-0.139541,0.941112,0.307952,0.000000,0.000000,0.000000,-1,1.297123,-2.087676,-2.116901,-0.353699,0.685215,-0.566513
"2019-04-05 12:10:31.898 +0000",1554466231.898378,-2.645295,-1.220565,2.039811,-0.163382,0.939293,0.301718,0.000000,0.000000,0.000000,-1,0.107835,-0.056998,-1.137210,-0.639215,0.453819,-0.210287
"2019-04-05 12:10:31.918 +0000",1554466231.918428,-2.604663,-1.217464,2.069113,-0.176992,0.938225,0.297333,0.000000,0.000000,0.000000,-1,0.235458,0.742348,-0.199167,-0.634959,-0.182472,-0.303773
"2019-04-05 12:10:31.939 +0000",1554466231.938509,-2.577296,-1.228896,2.085056,-0.179313,0.942119,0.283297,0.000000,0.000000,0.000000,-1,0.921520,0.671563,0.145033,-0.212212,-0.588817,-0.249560
"2019-04-05 12:10:31.959 +0000",1554466231.958557,-2.510011,-1.250400,2.138615,-0.185949,0.949111,0.254188,0.000000,0.000000,0.000000,-1,1.622234,0.727526,-0.369819,0.004918,-0.578520,-0.289741
"2019-04-05 12:10:31.979 +0000",1554466231.978607,-2.391488,-1.270840,2.261364,-0.201432,0.955349,0.216177,0.000000,0.000000,0.000000,-1,2.127435,-0.310590,-0.931882,-0.097152,-0.123776,-0.478063
"2019-04-05 12:10:31.999 +0000",1554466231.998687,-2.262172,-1.288665,2.409504,-0.214472,0.960464,0.177508,0.000000,0.000000,0.000000,-1,2.059117,-0.732789,-0.614097,-0.308828,0.170044,-0.605426
"2019-04-05 12:10:32.019 +0000",1554466232.018736,-2.167223,-1.305390,2.521060,-0.217014,0.964986,0.147332,0.000000,0.000000,0.000000,-1,1.480776,-0.451753,-0.073407,-0.302807,0.076487,-0.591744
"2019-04-05 12:10:32.039 +0000",1554466232.038816,-2.096291,-1.315232,2.596623,-0.218682,0.967521,0.126810,0.000000,0.000000,0.000000,-1,0.776181,0.049643,-0.198539,-0.175025,-0.056281,-0.496576
"2019-04-05 12:10:32.059 +0000",1554466232.058867,-2.081919,-1.306402,2.606444,-0.227924,0.965251,0.127828,0.000000,0.000000,0.000000,-1,-0.662493,0.518714,-0.580621,-0.152309,-0.103282,-0.269505
"2019-04-05 12:10:32.079 +0000",1554466232.078946,-2.088535,-1.287439,2.573967,-0.242937,0.960122,0.138368,0.000000,0.000000,0.000000,-1,-0.704585,1.484302,-0.536236,-0.264555,-0.094537,0.286467
"2019-04-05 12:10:32.099 +0000",1554466232.098996,-2.061794,-1.286623,2.582656,-0.247240,0.959894,0.132192,0.000000,0.000000,0.000000,-1,0.676519,0.305893,0.216338,-0.257200,-0.090448,0.305979
"2019-04-05 12:10:32.119 +0000",1554466232.119076,-1.985607,-1.310490,2.673922,-0.235548,0.966311,0.103726,0.000000,0.000000,0.000000,-1,2.070739,-0.926684,0.669596,0.069395,-0.014132,0.137012
"2019-04-05 12:10:32.139 +0000",1554466232.139126,-1.847701,-1.338288,2.831075,-0.221639,0.973092,0.062991,0.000000,0.000000,0.000000,-1,2.219744,-0.362112,0.594617,0.238393,-0.152062,-0.171374
"2019-04-05 12:10:32.159 +0000",1554466232.159206,-1.696826,-1.349575,2.981251,-0.217679,0.975630,0.027580,0.000000,0.000000,0.000000,-1,1.356749,0.322463,-0.045125,0.317411,-0.230635,-0.378792
"2019-04-05 12:10:32.179 +0000",1554466232.179256,-1.609770,-1.343175,3.074384,-0.225488,0.974206,0.008793,0.000000,0.000000,0.000000,-1,0.881185,-0.452284,-0.504193,0.245538,-0.115701,-0.163532
"2019-04-05 12:10:32.199 +0000",1554466232.199305,-1.538440,-1.331237,-3.127037,-0.237150,0.971443,-0.007676,0.000000,0.000000,0.000000,-1,0.961093,-0.278995,-0.563714,0.149656,-0.029151,0.246781
"2019-04-05 12:10:32.219 +0000",1554466232.219385,-1.457674,-1.318205,-3.040909,-0.248317,0.968268,-0.028211,0.000000,0.000000,0.000000,-1,1.134764,-0.133434,-0.583058,0.102489,-0.080756,0.249082
"2019-04-05 12:10:32.239 +0000",1554466232.239435,-1.390023,-1.301702,-2.966552,-0.261526,0.964012,-0.047799,0.000000,0.000000,0.000000,-1,0.883405,-0.274654,-0.680633,0.115377,-0.077049,-0.002998
"2019-04-05 12:10:32.260 +0000",1554466232.259515,-1.370009,-1.287280,-2.939901,-0.274113,0.960078,-0.055790,0.000000,0.000000,0.000000,-1,0.256576,-0.245503,-0.553378,0.087086,0.009771,-0.115200
"2019-04-05 12:10:32.280 +0000",1554466232.279564,-1.378359,-1.277962,-2.947943,-0.283339,0.957430,-0.055208,0.000000,0.000000,0.000000,-1,-0.192434,0.080197,-0.405818,0.197279,0.088087,0.042070
"2019-04-05 12:10:32.300 +0000",1554466232.299645,-1.392520,-1.270768,-2.965795,-0.290863,0.955328,-0.052410,0.000000,0.000000,0.000000,-1,-0.142363,0.170554,-0.429209,0.267593,0.164118,0.167645
"2019-04-05 12:10:32.320 +0000",1554466232.319695,-1.394023,-1.262231,-2.973043,-0.298959,0.952770,-0.053406,0.000000,0.000000,0.000000,-1,-0.033799,0.329966,-0.362123,0.311304,0.173908,0.153656
"2019-04-05 12:10:32.340 +0000",1554466232.339774,-1.391815,-1.258556,-2.978495,-0.302284,0.951648,-0.054688,0.000000,0.000000,0.000000,-1,-0.057562,0.356493,-0.059634,0.378395,0.159787,0.041200
"2019-04-05 12:10:32.360 +0000",1554466232.359824,-1.391764,-1.262322,-2.981879,-0.298752,0.952798,-0.054065,0.000000,0.000000,0.000000,-1,-0.165401,0.001305,0.311604,0.353882,0.374457,0.070972
"2019-04-05 12:10:32.380 +0000",1554466232.379904,-1.413628,-1.274020,-3.000234,-0.288834,0.956284,-0.045773,0.000000,0.000000,0.000000,-1,-0.543979,-0.236698,0.650716,0.176285,0.567291,-0.095417
"2019-04-05 12:10:32.400 +0000",1554466232.399955,-1.466544,-1.293985,-3.052354,-0.271805,0.961932,-0.028439,0.000000,0.000000,0.000000,-1,-1.075159,-0.172591,1.033328,0.050644,0.496427,-0.194278
"2019-04-05 12:10:32.420 +0000",1554466232.420004,-1.581184,-1.320121,3.119427,-0.248043,0.968745,0.002577,0.000000,0.000000,0.000000,-1,-1.798993,-0.493275,1.352928,0.034802,0.302755,-0.135893
"2019-04-05 12:10:32.440 +0000",1554466232.440084,-1.789991,-1.343100,2.917576,-0.220331,0.974189,0.049084,0.000000,0.000000,0.000000,-1,-2.516240,-0.653322,1.400223,-0.076270,0.093804,0.012623
"2019-04-05 12:10:32.460 +0000",1554466232.460134,-2.074381,-1.347704,2.636726,-0.193779,0.975218,0.106765,0.000000,0.000000,0.000000,-1,-2.971265,-0.485989,1.248331,-0.336342,0.124697,0.086930
"2019-04-05 12:10:32.480 +0000",1554466232.480214,-2.310200,-1.328865,2.410284,-0.177015,0.970877,0.161437,0.000000,0.000000,0.000000,-1,-2.333737,-1.071097,0.291716,-0.560076,0.476846,-0.004501
"2019-04-05 12:10:32.500 +0000",1554466232.500263,-2.397677,-1.298089,2.356374,-0.182388,0.963045,0.198185,0.000000,0.000000,0.000000,-1,-1.215044,-2.082921,-0.943678,-0.621246,0.335646,-0.109577
"2019-04-05 12:10:32.520 +0000",1554466232.520320,-2.445395,-1.272342,2.351131,-0.188570,0.955792,0.225614,0.000000,0.000000,0.000000,-1,-1.031213,-1.940683,-0.463694,-0.395231,-0.075604,-0.049573
"2019-04-05 12:10:32.540 +0000",1554466232.540371,-2.522340,-1.256705,2.294235,-0.179323,0.951078,0.251582,0.000000,0.000000,0.000000,-1,-1.224688,-0.657263,0.527106,-0.297102,-0.026883,0.064489
"2019-04-05 12:10:32.560 +0000",1554466232.560450,-2.594229,-1.241562,2.219890,-0.168266,0.946290,0.276080,0.000000,0.000000,0.000000,-1,-1.280555,0.200939,0.544720,-0.228142,0.105620,0.028500
"2019-04-05 12:10:32.581 +0000",1554466232.580500,-2.643960,-1.225990,2.159174,-0.161349,0.941141,0.297016,0.000000,0.000000,0.000000,-1,-1.064300,0.481524,0.506341,-0.205091,0.140173,-0.054554
"2019-04-05 12:10:32.601 +0000",1554466232.600580,-2.686637,-1.219438,2.099203,-0.151236,0.938906,0.309162,0.000000,0.000000,0.000000,-1,-0.612002,0.796888,1.012575,-0.094736,-0.051546,-0.189609
"2019-04-05 12:10:32.621 +0000",1554466232.620630,-2.752117,-1.223305,2.006392,-0.129303,0.940230,0.315033,0.000000,0.000000,0.000000,-1,-0.421191,1.283584,1.800851,0.043136,-0.260283,-0.271668
"2019-04-05 12:10:32.641 +0000",1554466232.640679,-2.832088,-1.231327,1.887097,-0.101422,0.942932,0.317161,0.000000,0.000000,0.000000,-1,-0.276822,1.802335,2.120818,0.169965,-0.372329,-0.334296
"2019-04-05 12:10:32.661 +0000",1554466232.660760,-2.900097,-1.237212,1.767785,-0.078306,0.944875,0.317927,0.000000,0.000000,0.000000,-1,-0.249117,2.474465,1.791860,0.240400,-0.411992,-0.392710
"2019-04-05 12:10:32.681 +0000",1554466232.680809,-2.918956,-1.238133,1.688327,-0.072105,0.945176,0.318499,0.000000,0.000000,0.000000,-1,-0.343378,2.960720,0.955006,0.294135,-0.491074,-0.395067
"2019-04-05 12:10:32.701 +0000",1554466232.700889,-2.883562,-1.230314,1.658216,-0.085214,0.942594,0.322884,0.000000,0.000000,0.000000,-1,-0.569650,3.259929,0.063851,0.332665,-0.556516,-0.354683
"2019-04-05 12:10:32.721 +0000",1554466232.720938,-2.808241,-1.217234,1.675349,-0.113293,0.938145,0.327178,0.000000,0.000000,0.000000,-1,-0.561031,2.627410,-0.778415,0.244763,-0.468190,-0.358718
"2019-04-05 12:10:32.741 +0000",1554466232.741019,-2.715360,-1.199417,1.731085,-0.150038,0.931828,0.330429,0.000000,0.000000,0.000000,-1,-0.361622,1.674629,-1.473721,0.031568,-0.364506,-0.253006
"2019-04-05 12:10:32.761 +0000",1554466232.761068,-2.621050,-1.184734,1.805745,-0.187272,0.926399,0.326667,0.000000,0.000000,0.000000,-1,0.148171,1.016005,-1.488924,-0.249236,-0.307747,-0.062003
"2019-04-05 12:10:32.781 +0000",1554466232.781149,-2.551416,-1.178975,1.866214,-0.212513,0.924215,0.317272,0.000000,0.000000,0.000000,-1,0.378020,0.471213,-0.854809,-0.507214,-0.236334,0.103718
"2019-04-05 12:10:32.801 +0000",1554466232.801198,-2.533188,-1.169221,1.881910,-0.223403,0.920446,0.320729,0.000000,0.000000,0.000000,-1,-0.845777,-0.051194,-0.328821,-0.733445,0.362467,0.227748
"2019-04-05 12:10:32.821 +0000",1554466232.821278,-2.596177,-1.137606,1.822998,-0.217763,0.907631,0.358862,0.000000,0.000000,0.000000,-1,-2.423820,-0.615977,0.620675,-0.824580,0.986000,0.483652
"2019-04-05 12:10:32.841 +0000",1554466232.841328,-2.702593,-1.118609,1.713353,-0.185710,0.899494,0.395499,0.000000,0.000000,0.000000,-1,-1.370181,-0.117282,1.867845,-0.176259,0.618924,0.803033
"2019-04-05 12:10:32.861 +0000",1554466232.861377,-2.762711,-1.126059,1.637618,-0.159129,0.902723,0.399706,0.000000,0.000000,0.000000,-1,0.233782,0.619592,1.557423,0.292705,-0.307142,0.583266
"2019-04-05 12:10:32.881 +0000",1554466232.881458,-2.786017,-1.150717,1.597395,-0.141978,0.913057,0.382318,0.000000,0.000000,0.000000,-1,1.120117,0.535073,0.939648,0.430537,-0.516649,0.151358
"2019-04-05 12:10:32.902 +0000",1554466232.901508,-2.762910,-1.175217,1.618751,-0.142458,0.922774,0.358038,0.000000,0.000000,0.000000,-1,1.361736,-0.066613,-0.573925,0.538485,-0.425810,-0.255881
"2019-04-05 12:10:32.922 +0000",1554466232.921587,-2.673476,-1.189845,1.727628,-0.167759,0.928312,0.331802,0.000000,0.000000,0.000000,-1,1.727120,-0.940623,-2.085091,0.415043,0.026446,-0.436111
"2019-04-05 12:10:32.942 +0000",1554466232.941638,-2.532374,-1.207843,1.919382,-0.203160,0.934852,0.291162,0.000000,0.000000,0.000000,-1,2.841170,-2.478987,-2.678299,-0.299800,0.699089,-0.640115
"2019-04-05 12:10:32.962 +0000",1554466232.961717,-2.429507,-1.203707,2.073378,-0.234508,0.933376,0.271685,0.000000,0.000000,0.000000,-1,0.462817,-1.105653,-1.731926,-0.908833,0.833088,-0.608508
"2019-04-05 12:10:32.982 +0000",1554466232.981766,-2.399692,-1.187468,2.089365,-0.252712,0.927425,0.275712,0.000000,0.000000,0.000000,-1,-0.582165,1.217227,-0.256985,-0.981968,0.230900,-0.308320
"2019-04-05 12:10:33.002 +0000",1554466233.001847,-2.406139,-1.185266,2.054307,-0.252300,0.926599,0.278850,0.000000,0.000000,0.000000,-1,-0.412676,1.356162,0.711739,-0.355671,-0.476388,-0.168483
"2019-04-05 12:10:33.022 +0000",1554466233.021897,-2.401525,-1.196503,2.028689,-0.246547,0.930766,0.269977,0.000000,0.000000,0.000000,-1,0.457193,1.260901,0.577373,-0.102544,-0.518718,-0.072712
"2019-04-05 12:10:33.042 +0000",1554466233.041976,-2.352793,-1.213944,2.069914,-0.247849,0.937001,0.246168,0.000000,0.000000,0.000000,-1,1.520151,-0.031737,-0.200540,-0.105499,-0.157887,-0.277052
"2019-04-05 12:10:33.062 +0000",1554466233.062026,-2.281567,-1.234950,2.166367,-0.249765,0.944132,0.215015,0.000000,0.000000,0.000000,-1,2.057093,-1.494286,-0.318369,-0.230765,0.076575,-0.453113
"2019-04-05 12:10:33.082 +0000",1554466233.082075,-2.219770,-1.258864,2.273616,-0.244504,0.951742,0.185477,0.000000,0.000000,0.000000,-1,2.049654,-2.129204,-0.023468,-0.222278,0.069788,-0.449302
"2019-04-05 12:10:33.102 +0000",1554466233.102156,-2.141359,-1.284526,2.389953,-0.237643,0.959304,0.152511,0.000000,0.000000,0.000000,-1,2.202523,-1.091462,0.064211,-0.121884,-0.111861,-0.309371
"2019-04-05 12:10:33.122 +0000",1554466233.122205,-2.017184,-1.300627,2.515543,-0.240738,0.963726,0.115219,0.000000,0.000000,0.000000,-1,1.513389,0.924293,-0.310645,-0.026932,-0.263469,-0.167801
"2019-04-05 12:10:33.142 +0000",1554466233.142285,-1.937996,-1.297619,2.566885,-0.251803,0.962919,0.096855,0.000000,0.000000,0.000000,-1,0.095585,1.618705,-0.359124,0.006045,-0.363813,-0.153618
"2019-04-05 12:10:33.162 +0000",1554466233.162335,-1.898857,-1.297015,2.580409,-0.255952,0.962755,0.087116,0.000000,0.000000,0.000000,-1,0.365073,0.993106,0.110782,0.078675,-0.336962,0.019772
"2019-04-05 12:10:33.182 +0000",1554466233.182415,-1.806911,-1.302825,2.662505,-0.257427,0.964310,0.061938,0.000000,0.000000,0.000000,-1,1.547598,0.501007,-0.202870,0.352336,-0.077652,0.136244
"2019-04-05 12:10:33.202 +0000",1554466233.202464,-1.670284,-1.301572,2.800645,-0.264666,0.963977,0.026418,0.000000,0.000000,0.000000,-1,1.713163,-0.085033,-0.276711,0.251818,-0.060444,-0.060796
"2019-04-05 12:10:33.223 +0000",1554466233.222544,-1.577206,-1.299086,2.903106,-0.268370,0.963313,0.001720,0.000000,0.000000,0.000000,-1,1.145165,-0.360044,-0.209761,0.075606,-0.028941,-0.066814
"2019-04-05 12:10:33.243 +0000",1554466233.242595,-1.506349,-1.291496,2.984527,-0.275108,0.961248,-0.017754,0.000000,0.000000,0.000000,-1,1.084576,-0.391864,-0.355534,-0.009240,-0.017172,0.140389
"2019-04-05 12:10:33.263 +0000",1554466233.262673,-1.438237,-1.282982,3.065980,-0.281364,0.958867,-0.037517,0.000000,0.000000,0.000000,-1,1.203979,-0.609969,-0.280618,0.034828,0.061016,0.094997
"2019-04-05 12:10:33.283 +0000",1554466233.282723,-1.380543,-1.272340,3.138394,-0.288737,0.955792,-0.055606,0.000000,0.000000,0.000000,-1,0.930121,-0.500207,-0.386215,0.193079,0.066059,-0.057035
"2019-04-05 12:10:33.303 +0000",1554466233.302774,-1.353790,-1.258896,-3.107694,-0.299668,0.951752,-0.066070,0.000000,0.000000,0.000000,-1,0.534948,-0.483898,-0.631152,0.289491,0.015472,-0.106552
"2019-04-05 12:10:33.323 +0000",1554466233.322854,-1.349868,-1.245778,-3.089182,-0.311562,0.947645,-0.069975,0.000000,0.000000,0.000000,-1,0.296167,-0.767693,-0.446855,0.209435,0.071612,0.047179
"2019-04-05 12:10:33.343 +0000",1554466233.342904,-1.354509,-1.237150,-3.080626,-0.319859,0.944854,-0.070281,0.000000,0.000000,0.000000,-1,0.218220,-0.518804,-0.427059,0.171650,0.024857,0.169448
"2019-04-05 12:10:33.363 +0000",1554466233.362984,-1.350881,-1.226151,-3.068957,-0.329724,0.941195,-0.073703,0.000000,0.000000,0.000000,-1,0.295917,-0.292357,-0.433245,0.142468,0.096646,0.112247
"2019-04-05 12:10:33.383 +0000",1554466233.383033,-1.320456,-1.232017,-3.036496,-0.321976,0.943161,-0.082331,0.000000,0.000000,0.000000,-1,0.153822,-0.061549,-0.204633,0.281128,0.196258,0.035242
"2019-04-05 12:10:33.403 +0000",1554466233.403113,-1.320855,-1.229169,-3.036803,-0.324609,0.942211,-0.082866,0.000000,0.000000,0.000000,-1,-0.101065,-0.026302,-0.060196,0.355707,0.384495,0.072353
"2019-04-05 12:10:33.423 +0000",1554466233.423163,-1.334522,-1.231945,-3.048130,-0.323167,0.943137,-0.077810,0.000000,0.000000,0.000000,-1,-0.284538,-0.208068,0.186961,0.256959,0.557992,0.030370
"2019-04-05 12:10:33.443 +0000",1554466233.443243,-1.359069,-1.241571,-3.069217,-0.316088,0.946293,-0.067943,0.000000,0.000000,0.000000,-1,-0.669645,-0.204678,0.540354,0.145236,0.447918,-0.152409
"2019-04-05 12:10:33.463 +0000",1554466233.463293,-1.426619,-1.261434,-3.134183,-0.301291,0.952528,-0.043743,0.000000,0.000000,0.000000,-1,-1.499139,-0.400886,0.944550,0.042090,0.377413,-0.269688
"2019-04-05 12:10:33.483 +0000",1554466233.483342,-1.563609,-1.285999,3.018722,-0.280954,0.959719,-0.002019,0.000000,0.000000,0.000000,-1,-2.297449,-0.734244,1.140805,-0.055335,0.267241,-0.101817
"2019-04-05 12:10:33.503 +0000",1554466233.503422,-1.770230,-1.305516,2.816112,-0.256980,0.965019,0.051941,0.000000,0.000000,0.000000,-1,-2.803998,-0.385099,1.262996,-0.285317,-0.003425,0.203049
"2019-04-05 12:10:33.523 +0000",1554466233.523484,-2.001650,-1.309283,2.582586,-0.234910,0.966000,0.107978,0.000000,0.000000,0.000000,-1,-2.717278,-0.452069,0.905978,-0.577498,0.258365,0.216317
"2019-04-05 12:10:33.544 +0000",1554466233.543563,-2.144357,-1.287152,2.466949,-0.235068,0.960042,0.151855,0.000000,0.000000,0.000000,-1,-1.348079,-2.360360,-0.990680,-0.716912,0.494258,-0.072464
"2019-04-05 12:10:33.564 +0000",1554466233.563612,-2.196487,-1.250556,2.478166,-0.255157,0.949160,0.184360,0.000000,0.000000,0.000000,-1,-0.833152,-3.412277,-1.679495,-0.494767,-0.039538,-0.113788
"2019-04-05 12:10:33.584 +0000",1554466233.583693,-2.270995,-1.228576,2.456640,-0.256620,0.942012,0.216235,0.000000,0.000000,0.000000,-1,-1.053097,-1.967402,0.120850,-0.453448,-0.395885,0.105771
"2019-04-05 12:10:33.604 +0000",1554466233.603742,-2.373319,-1.223250,2.367046,-0.236673,0.940211,0.244921,0.000000,0.000000,0.000000,-1,-1.465174,-0.447742,1.108351,-0.198004,-0.132441,0.069334
"2019-04-05 12:10:33.624 +0000",1554466233.623822,-2.478535,-1.214833,2.256288,-0.214506,0.937311,0.274650,0.000000,0.000000,0.000000,-1,-1.550728,0.048920,1.150959,-0.188326,0.159781,0.011392
"2019-04-05 12:10:33.644 +0000",1554466233.643873,-2.565334,-1.207432,2.161211,-0.193663,0.934706,0.298019,0.000000,0.000000,0.000000,-1,-1.109606,0.148532,1.217110,-0.116426,0.251283,-0.075424
"2019-04-05 12:10:33.664 +0000",1554466233.663952,-2.650267,-1.207248,2.060297,-0.167764,0.934641,0.313524,0.000000,0.000000,0.000000,-1,-0.850420,0.717110,1.800931,0.033456,-0.035166,-0.218660
"2019-04-05 12:10:33.684 +0000",1554466233.684002,-2.748023,-1.211701,1.931101,-0.134767,0.936215,0.324555,0.000000,0.000000,0.000000,-1,-0.743613,1.330478,2.333038,0.147645,-0.228558,-0.310578
"2019-04-05 12:10:33.704 +0000",1554466233.704051,-2.844064,-1.214936,1.793049,-0.102134,0.937347,0.333086,0.000000,0.000000,0.000000,-1,-0.621184,1.836594,2.217564,0.197364,-0.354583,-0.406283
"2019-04-05 12:10:33.724 +0000",1554466233.724132,-2.905610,-1.212687,1.680074,-0.081946,0.936561,0.340786,0.000000,0.000000,0.000000,-1,-0.728558,2.429130,1.651369,0.227363,-0.437324,-0.472942
"2019-04-05 12:10:33.744 +0000",1554466233.744182,-2.916912,-1.198430,1.610135,-0.081056,0.931469,0.354672,0.000000,0.000000,0.000000,-1,-1.144452,2.808269,0.630931,0.261034,-0.502285,-0.455258
"2019-04-05 12:10:33.764 +0000",1554466233.764261,-2.875809,-1.172392,1.592128,-0.101899,0.921681,0.374322,0.000000,0.000000,0.000000,-1,-1.462232,2.847018,-0.280680,0.211305,-0.563313,-0.328622
"2019-04-05 12:10:33.784 +0000",1554466233.784310,-2.806215,-1.141854,1.609070,-0.136885,0.909406,0.392733,0.000000,0.000000,0.000000,-1,-1.222622,2.646049,-1.051430,0.105269,-0.566267,-0.163439
"2019-04-05 12:10:33.804 +0000",1554466233.804393,-2.714098,-1.118126,1.655644,-0.181328,0.899283,0.398004,0.000000,0.000000,0.000000,-1,-0.402470,2.291417,-1.431014,-0.043236,-0.598257,0.054831
"2019-04-05 12:10:33.824 +0000",1554466233.824441,-2.626475,-1.114508,1.716058,-0.217063,0.897694,0.383439,0.000000,0.000000,0.000000,-1,0.991783,1.213060,-1.087154,-0.217553,-0.540394,0.249877
"2019-04-05 12:10:33.845 +0000",1554466233.844521,-2.546280,-1.135657,1.790985,-0.236382,0.906811,0.349017,0.000000,0.000000,0.000000,-1,1.980804,0.371054,-0.631136,-0.279015,-0.347607,0.427640
"2019-04-05 12:10:33.865 +0000",1554466233.864570,-2.484618,-1.153935,1.864322,-0.247275,0.914364,0.320608,0.000000,0.000000,0.000000,-1,1.137554,-0.918164,-0.846364,-0.391428,0.246982,0.362711
"2019-04-05 12:10:33.885 +0000",1554466233.884650,-2.508422,-1.138323,1.887272,-0.247990,0.907932,0.337870,0.000000,0.000000,0.000000,-1,-1.168362,-2.617971,-0.460280,-0.746410,1.426724,0.250158
"2019-04-05 12:10:33.905 +0000",1554466233.904700,-2.584406,-1.123581,1.815906,-0.228681,0.901655,0.367042,0.000000,0.000000,0.000000,-1,-1.329722,0.736690,1.485937,-0.458804,1.180239,0.754082
"2019-04-05 12:10:33.925 +0000",1554466233.924750,-2.628259,-1.127590,1.742640,-0.210593,0.903381,0.373562,0.000000,0.000000,0.000000,-1,-0.302559,1.151695,1.541594,0.103186,-0.312927,0.360828
"2019-04-05 12:10:33.945 +0000",1554466233.944831,-2.650868,-1.136712,1.694114,-0.198202,0.907256,0.370943,0.000000,0.000000,0.000000,-1,-0.042507,0.840151,0.633249,0.300741,-0.319686,-0.005617
"2019-04-05 12:10:33.965 +0000",1554466233.964879,-2.624730,-1.131352,1.715532,-0.210229,0.904988,0.369859,0.000000,0.000000,0.000000,-1,0.010723,0.124873,-1.080222,0.423501,0.100368,-0.244325
"2019-04-05 12:10:33.985 +0000",1554466233.984959,-2.561250,-1.130398,1.791855,-0.233741,0.904582,0.356499,0.000000,0.000000,0.000000,-1,1.424765,-0.633224,-1.500326,0.022285,0.231832,-0.266167
"2019-04-05 12:10:34.005 +0000",1554466234.005009,-2.480452,-1.145178,1.900305,-0.253515,0.910783,0.325882,0.000000,0.000000,0.000000,-1,1.940561,-0.895252,-1.322134,-0.324168,0.137556,-0.507370
"2019-04-05 12:10:34.025 +0000",1554466234.025089,-2.405970,-1.155062,1.994917,-0.271007,0.914820,0.299424,0.000000,0.000000,0.000000,-1,1.437944,-0.315407,-0.983408,-0.529072,0.019125,-0.434281
"2019-04-05 12:10:34.045 +0000",1554466234.045139,-2.348105,-1.169442,2.055298,-0.278463,0.920533,0.273994,0.000000,0.000000,0.000000,-1,1.282036,0.298018,0.082785,-0.623972,-0.109513,-0.470756
"2019-04-05 12:10:34.065 +0000",1554466234.065219,-2.307547,-1.193602,2.086514,-0.272789,0.929702,0.247460,0.000000,0.000000,0.000000,-1,1.288806,0.676458,0.583854,-0.392738,-0.091811,-0.495507
"2019-04-05 12:10:34.085 +0000",1554466234.085269,-2.257347,-1.218879,2.125534,-0.266598,0.938714,0.218491,0.000000,0.000000,0.000000,-1,1.314538,0.647762,0.445324,-0.159931,-0.164040,-0.433823
"2019-04-05 12:10:34.105 +0000",1554466234.105348,-2.199202,-1.236891,2.172545,-0.265121,0.944770,0.192657,0.000000,0.000000,0.000000,-1,1.059082,0.702277,0.084050,-0.041184,-0.165931,-0.369476
"2019-04-05 12:10:34.125 +0000",1554466234.125398,-2.130406,-1.244845,2.233349,-0.271361,0.947346,0.169982,0.000000,0.000000,0.000000,-1,1.017018,0.442949,-0.353903,-0.006090,-0.088643,-0.356444
"2019-04-05 12:10:34.145 +0000",1554466234.145447,-2.051553,-1.246471,2.309260,-0.282541,0.947866,0.147366,0.000000,0.000000,0.000000,-1,1.103671,0.306833,-0.609893,-0.068167,-0.117101,-0.285763
"2019-04-05 12:10:34.166 +0000",1554466234.165528,-1.971559,-1.241311,2.384509,-0.297914,0.946209,0.126224,0.000000,0.000000,0.000000,-1,0.815993,0.454902,-0.769690,-0.253295,-0.184750,-0.053943
"2019-04-05 12:10:34.186 +0000",1554466234.185577,-1.911637,-1.233664,2.443155,-0.311747,0.943707,0.110572,0.000000,0.000000,0.000000,-1,0.794700,0.005049,-0.568126,-0.418660,-0.254071,0.130166
"2019-04-05 12:10:34.206 +0000",1554466234.205658,-1.854448,-1.240995,2.513432,-0.310907,0.946107,0.090633,0.000000,0.000000,0.000000,-1,1.458061,-0.744334,0.434009,-0.409582,-0.242509,0.102497
"2019-04-05 12:10:34.226 +0000",1554466234.225708,-1.763014,-1.263081,2.624308,-0.297297,0.953028,0.057860,0.000000,0.000000,0.000000,-1,2.138662,-0.403561,0.704413,0.109981,-0.022120,-0.064269
"2019-04-05 12:10:34.246 +0000",1554466234.245787,-1.629200,-1.281662,2.758310,-0.284629,0.958491,0.016642,0.000000,0.000000,0.000000,-1,1.815298,0.570770,0.647302,0.409201,-0.103709,-0.198817
"2019-04-05 12:10:34.266 +0000",1554466234.265837,-1.528537,-1.290030,2.861327,-0.276836,0.960843,-0.011706,0.000000,0.000000,0.000000,-1,1.271555,-0.360257,0.233914,0.423808,0.050021,-0.250989
"2019-04-05 12:10:34.286 +0000",1554466234.285918,-1.458772,-1.289825,2.947023,-0.275542,0.960787,-0.030997,0.000000,0.000000,0.000000,-1,1.075774,-0.661008,0.059261,0.246001,-0.075228,0.059150
"2019-04-05 12:10:34.306 +0000",1554466234.305967,-1.397205,-1.284820,3.021170,-0.277847,0.959387,-0.048722,0.000000,0.000000,0.000000,-1,1.081216,-0.351496,-0.207458,0.164581,-0.080252,0.196015
"2019-04-05 12:10:34.326 +0000",1554466234.326046,-1.332832,-1.271530,3.090647,-0.286505,0.955553,-0.069495,0.000000,0.000000,0.000000,-1,1.017439,0.031467,-0.569701,0.231542,-0.059435,0.128775
"2019-04-05 12:10:34.346 +0000",1554466234.346096,-1.289417,-1.251975,3.132100,-0.301114,0.949606,-0.087037,0.000000,0.000000,0.000000,-1,0.723477,0.232745,-0.866738,0.141904,-0.026556,0.034333
"2019-04-05 12:10:34.366 +0000",1554466234.366146,-1.270777,-1.232483,-3.132642,-0.317065,0.943316,-0.098086,0.000000,0.000000,0.000000,-1,0.435800,-0.098840,-0.788875,0.085772,0.069410,0.063739
"2019-04-05 12:10:34.386 +0000",1554466234.386226,-1.266925,-1.216141,-3.124422,-0.331352,0.937766,-0.103906,0.000000,0.000000,0.000000,-1,0.364340,-0.177501,-0.698333,0.172477,0.068780,0.147577
"2019-04-05 12:10:34.406 +0000",1554466234.406275,-1.259651,-1.201321,-3.118107,-0.343782,0.932517,-0.110557,0.000000,0.000000,0.000000,-1,0.222319,0.216045,-0.623822,0.064454,0.149179,0.128471
"2019-04-05 12:10:34.426 +0000",1554466234.426356,-1.256349,-1.190085,-3.122231,-0.353357,0.928401,-0.114925,0.000000,0.000000,0.000000,-1,0.045183,0.355447,-0.479397,0.024942,0.179967,0.055278
"2019-04-05 12:10:34.446 +0000",1554466234.446405,-1.259340,-1.189175,-3.127234,-0.354503,0.928062,-0.114126,0.000000,0.000000,0.000000,-1,0.066431,-0.079571,-0.194865,0.183193,0.229363,0.093405
"2019-04-05 12:10:34.466 +0000",1554466234.466485,-1.263178,-1.189740,-3.125310,-0.354438,0.928272,-0.112606,0.000000,0.000000,0.000000,-1,-0.043548,-0.367756,0.150942,0.162742,0.396129,0.124706
"2019-04-05 12:10:34.487 +0000",1554466234.486535,-1.277157,-1.198595,-3.131551,-0.348095,0.931529,-0.105257,0.000000,0.000000,0.000000,-1,-0.434049,-0.403729,0.589458,0.075832,0.597890,-0.069334
"2019-04-05 12:10:34.507 +0000",1554466234.506615,-1.310337,-1.221361,3.123208,-0.330813,0.939566,-0.088166,0.000000,0.000000,0.000000,-1,-1.033618,-0.322599,1.141563,0.071002,0.515588,-0.241073
"2019-04-05 12:10:34.527 +0000",1554466234.526644,-1.381722,-1.253929,3.059217,-0.306031,0.950216,-0.058562,0.000000,0.000000,0.000000,-1,-1.625275,-0.746540,1.493659,0.078736,0.155710,-0.126649
"2019-04-05 12:10:34.547 +0000",1554466234.546723,-1.518332,-1.288538,2.938651,-0.278133,0.960429,-0.014606,0.000000,0.000000,0.000000,-1,-2.193023,-1.233132,1.416499,-0.068867,-0.062449,0.120578
"2019-04-05 12:10:34.567 +0000",1554466234.566774,-1.731151,-1.312754,2.741521,-0.251904,0.966891,0.040744,0.000000,0.000000,0.000000,-1,-2.746183,-1.028522,1.327737,-0.279361,-0.103107,0.366590
"2019-04-05 12:10:34.587 +0000",1554466234.586823,-1.963876,-1.318006,2.522453,-0.231022,0.968218,0.095795,0.000000,0.000000,0.000000,-1,-2.341542,-1.158400,0.687661,-0.480862,0.344404,0.279327
"2019-04-05 12:10:34.607 +0000",1554466234.606903,-2.113652,-1.302043,2.407196,-0.227347,0.964103,0.137162,0.000000,0.000000,0.000000,-1,-1.344362,-2.426447,-0.407334,-0.533044,0.361688,-0.085023
"2019-04-05 12:10:34.627 +0000",1554466234.626951,-2.214338,-1.281488,2.362420,-0.228216,0.958442,0.171176,0.000000,0.000000,0.000000,-1,-1.017968,-2.926487,-0.418607,-0.372233,0.006707,-0.140720
"2019-04-05 12:10:34.647 +0000",1554466234.647032,-2.312639,-1.266274,2.307628,-0.221040,0.953990,0.202578,0.000000,0.000000,0.000000,-1,-1.245120,-1.700364,0.172903,-0.276518,-0.021098,0.003874
"2019-04-05 12:10:34.667 +0000",1554466234.667082,-2.405403,-1.248178,2.220539,-0.212883,0.948408,0.234938,0.000000,0.000000,0.000000,-1,-1.774869,0.210923,0.334090,-0.207969,0.100527,0.008623
"2019-04-05 12:10:34.687 +0000",1554466234.687162,-2.469322,-1.220231,2.132877,-0.213869,0.939179,0.268694,0.000000,0.000000,0.000000,-1,-2.081060,1.133159,0.182084,-0.246351,0.297012,-0.090365
"2019-04-05 12:10:34.707 +0000",1554466234.707213,-2.528698,-1.195266,2.048170,-0.210973,0.930313,0.300003,0.000000,0.000000,0.000000,-1,-1.740388,0.765889,0.747026,-0.128902,0.156128,-0.245117
"2019-04-05 12:10:34.727 +0000",1554466234.727292,-2.617919,-1.184049,1.944415,-0.188609,0.926141,0.326624,0.000000,0.000000,0.000000,-1,-1.442616,0.195448,1.681181,-0.023977,-0.003304,-0.365122
"2019-04-05 12:10:34.747 +0000",1554466234.747342,-2.726336,-1.176907,1.815238,-0.154824,0.923424,0.351158,0.000000,0.000000,0.000000,-1,-1.425299,0.872705,2.144416,0.026085,-0.081383,-0.367774
"2019-04-05 12:10:34.767 +0000",1554466234.767391,-2.807429,-1.165915,1.695811,-0.129191,0.919149,0.372113,0.000000,0.000000,0.000000,-1,-1.334765,1.709623,1.785778,0.073390,-0.241201,-0.453763
"2019-04-05 12:10:34.787 +0000",1554466234.787472,-2.841093,-1.147985,1.614326,-0.121453,0.911939,0.391931,0.000000,0.000000,0.000000,-1,-1.427899,2.156541,0.907327,0.118752,-0.461225,-0.485254
"2019-04-05 12:10:34.808 +0000",1554466234.807521,-2.834200,-1.118451,1.575356,-0.132246,0.899424,0.416581,0.000000,0.000000,0.000000,-1,-1.828869,2.108129,0.096919,-0.005068,-0.690287,-0.361650
"2019-04-05 12:10:34.828 +0000",1554466234.827601,-2.807586,-1.081938,1.551362,-0.153953,0.882870,0.443659,0.000000,0.000000,0.000000,-1,-1.833206,2.545226,-0.047107,-0.302743,-0.717144,-0.129526
"2019-04-05 12:10:34.848 +0000",1554466234.847651,-2.780640,-1.058488,1.527635,-0.173116,0.871615,0.458597,0.000000,0.000000,0.000000,-1,-0.884784,2.082907,0.318111,-0.399607,-0.627505,0.050940
"2019-04-05 12:10:34.868 +0000",1554466234.867731,-2.762076,-1.060217,1.514810,-0.181041,0.872461,0.453904,0.000000,0.000000,0.000000,-1,0.498093,1.129080,0.252296,-0.022084,-0.523645,0.225509
"2019-04-05 12:10:34.888 +0000",1554466234.887780,-2.733825,-1.082037,1.529406,-0.186194,0.882916,0.431026,0.000000,0.000000,0.000000,-1,1.305286,0.640409,0.108880,0.272025,-0.416485,0.374638
"2019-04-05 12:10:34.908 +0000",1554466234.907861,-2.718280,-1.100654,1.542615,-0.186086,0.891504,0.413019,0.000000,0.000000,0.000000,-1,0.679157,-0.341686,0.041645,0.222891,-0.120477,0.267385
"2019-04-05 12:10:34.928 +0000",1554466234.927910,-2.741267,-1.101328,1.548371,-0.176310,0.891809,0.416633,0.000000,0.000000,0.000000,-1,-0.328133,-1.895577,-0.134241,0.099192,0.020789,0.356118
"2019-04-05 12:10:34.948 +0000",1554466234.947990,-2.783069,-1.087803,1.544948,-0.162962,0.885609,0.434893,0.000000,0.000000,0.000000,-1,-0.630890,-1.681598,-0.169311,0.250303,0.416210,0.753080
"2019-04-05 12:10:34.968 +0000",1554466234.968040,-2.773622,-1.086665,1.564027,-0.167426,0.885080,0.434274,0.000000,0.000000,0.000000,-1,0.671023,0.385875,-0.713018,0.327780,0.704200,0.831839
"2019-04-05 12:10:34.988 +0000",1554466234.988089,-2.695667,-1.101557,1.632385,-0.195030,0.891913,0.407979,0.000000,0.000000,0.000000,-1,1.365058,1.146895,-1.295825,-0.100868,0.068491,0.054500
"2019-04-05 12:10:35.008 +0000",1554466235.008170,-2.607590,-1.099726,1.705901,-0.230992,0.891083,0.390647,0.000000,0.000000,0.000000,-1,0.226203,0.805412,-1.604480,-0.245708,0.250839,-0.458396
"2019-04-05 12:10:35.028 +0000",1554466235.028220,-2.551933,-1.076478,1.766326,-0.263815,0.880292,0.394306,0.000000,0.000000,0.000000,-1,-0.395446,-0.109629,-1.921820,-0.448526,0.581332,-0.293903
"2019-04-05 12:10:35.048 +0000",1554466235.048299,-2.510700,-1.050887,1.820503,-0.293040,0.867864,0.401160,0.000000,0.000000,0.000000,-1,-0.060000,-0.392849,-1.502586,-0.608876,0.431788,-0.224402
"2019-04-05 12:10:35.068 +0000",1554466235.068349,-2.483553,-1.054518,1.860344,-0.301892,0.869663,0.390562,0.000000,0.000000,0.000000,-1,1.253994,-0.436677,-0.285764,-0.461185,-0.152347,-0.164457
"2019-04-05 12:10:35.088 +0000",1554466235.088429,-2.442885,-1.084428,1.918675,-0.300651,0.884036,0.357882,0.000000,0.000000,0.000000,-1,2.462465,-0.512066,-0.108975,-0.278253,-0.482578,-0.223330
"2019-04-05 12:10:35.108 +0000",1554466235.108479,-2.359708,-1.127686,2.014955,-0.302099,0.903422,0.304229,0.000000,0.000000,0.000000,-1,3.321236,0.105138,-0.157951,-0.093394,-0.600276,-0.351333
"2019-04-05 12:10:35.129 +0000",1554466235.128560,-2.223817,-1.172195,2.155311,-0.308263,0.921605,0.235816,0.000000,0.000000,0.000000,-1,3.707986,0.494068,-0.218925,-0.042429,-0.508565,-0.465903
"2019-04-05 12:10:35.149 +0000",1554466235.148609,-2.072174,-1.208532,2.314372,-0.310763,0.935097,0.170327,0.000000,0.000000,0.000000,-1,3.114403,-0.163798,0.045458,-0.324674,0.120293,-0.770089
"2019-04-05 12:10:35.169 +0000",1554466235.168688,-1.982097,-1.231500,2.436706,-0.305055,0.942989,0.133058,0.000000,0.000000,0.000000,-1,1.968388,-1.900556,0.132585,-0.272124,0.359074,-1.017458
"2019-04-05 12:10:35.189 +0000",1554466235.188738,-1.946113,-1.243785,2.520151,-0.298843,0.947006,0.117742,0.000000,0.000000,0.000000,-1,1.205534,-2.045624,-0.049962,-0.047577,0.088913,-0.671178
"2019-04-05 12:10:35.209 +0000",1554466235.208786,-1.935398,-1.242318,2.557790,-0.301385,0.946534,0.115028,0.000000,0.000000,0.000000,-1,-0.016309,-0.515457,-0.370037,0.102013,-0.051271,-0.276649
"2019-04-05 12:10:35.229 +0000",1554466235.228868,-1.936198,-1.228756,2.529770,-0.313255,0.942072,0.119846,0.000000,0.000000,0.000000,-1,-0.907593,2.360668,-0.459663,0.200126,-0.043833,0.289029
"2019-04-05 12:10:35.249 +0000",1554466235.248917,-1.906170,-1.217006,2.501319,-0.327142,0.938066,0.114022,0.000000,0.000000,0.000000,-1,-0.338606,2.435715,-0.350221,0.088998,-0.054552,0.425467
"2019-04-05 12:10:35.269 +0000",1554466235.268998,-1.853034,-1.214968,2.546941,-0.334573,0.937358,0.097019,0.000000,0.000000,0.000000,-1,1.344602,-0.597334,-0.221323,-0.115684,-0.148540,0.240490
"2019-04-05 12:10:35.289 +0000",1554466235.289047,-1.778589,-1.226961,2.654910,-0.329837,0.941469,0.069542,0.000000,0.000000,0.000000,-1,2.103337,-1.511506,0.344811,-0.051511,-0.136644,0.012642
"2019-04-05 12:10:35.309 +0000",1554466235.309127,-1.685999,-1.241654,2.770326,-0.321077,0.946320,0.037153,0.000000,0.000000,0.000000,-1,1.787140,-0.109713,0.367221,0.147493,-0.116791,-0.180998
"2019-04-05 12:10:35.329 +0000",1554466235.329176,-1.590627,-1.244429,2.851787,-0.320530,0.947213,0.006357,0.000000,0.000000,0.000000,-1,1.030248,1.230862,-0.123639,0.309391,-0.192315,-0.224893
"2019-04-05 12:10:35.349 +0000",1554466235.349257,-1.515333,-1.240036,2.915498,-0.324252,0.945796,-0.018003,0.000000,0.000000,0.000000,-1,1.104310,0.314172,-0.188249,0.274631,-0.039835,0.062070
"2019-04-05 12:10:35.369 +0000",1554466235.369307,-1.444647,-1.234106,2.996198,-0.327729,0.943853,-0.041563,0.000000,0.000000,0.000000,-1,1.424433,-0.533608,-0.149009,0.183945,-0.001135,0.283873
"2019-04-05 12:10:35.389 +0000",1554466235.389386,-1.377342,-1.225044,3.080117,-0.332572,0.940821,-0.065152,0.000000,0.000000,0.000000,-1,1.373413,-0.551615,-0.278810,0.173377,-0.052698,0.164792
"2019-04-05 12:10:35.409 +0000",1554466235.409437,-1.331251,-1.212666,3.135850,-0.340504,0.936554,-0.083163,0.000000,0.000000,0.000000,-1,0.789316,-0.151299,-0.436360,0.109486,-0.049957,-0.054517
"2019-04-05 12:10:35.429 +0000",1554466235.429487,-1.321239,-1.201678,-3.133150,-0.349606,0.932646,-0.089104,0.000000,0.000000,0.000000,-1,0.143489,-0.253966,-0.429603,-0.028308,0.025652,-0.104377
"2019-04-05 12:10:35.450 +0000",1554466235.449566,-1.339485,-1.195665,3.139206,-0.356626,0.930459,-0.083995,0.000000,0.000000,0.000000,-1,-0.244459,-0.499351,-0.307685,0.074049,0.122199,0.081920
"2019-04-05 12:10:35.470 +0000",1554466235.469615,-1.361209,-1.187230,3.124673,-0.366031,0.927336,-0.077859,0.000000,0.000000,0.000000,-1,-0.086605,-0.265463,-0.540845,0.270633,0.229219,0.215661
"2019-04-05 12:10:35.490 +0000",1554466235.489696,-1.363741,-1.177479,3.120384,-0.375059,0.923643,-0.078787,0.000000,0.000000,0.000000,-1,0.037698,0.201236,-0.379564,0.420225,0.274828,0.117346
"2019-04-05 12:10:35.510 +0000",1554466235.509746,-1.354827,-1.176146,3.124350,-0.375544,0.923131,-0.082391,0.000000,0.000000,0.000000,-1,0.077641,0.285086,0.135813,0.526606,0.303218,0.010110
"2019-04-05 12:10:35.530 +0000",1554466235.529807,-1.348321,-1.182406,3.127625,-0.369355,0.925520,-0.083555,0.000000,0.000000,0.000000,-1,-0.112231,0.068227,0.404219,0.518953,0.517717,-0.019518
"2019-04-05 12:10:35.550 +0000",1554466235.549857,-1.357814,-1.194091,3.116971,-0.359537,0.929882,-0.077754,0.000000,0.000000,0.000000,-1,-0.450256,-0.041106,0.627400,0.277872,0.532475,-0.134068
"2019-04-05 12:10:35.570 +0000",1554466235.569937,-1.394303,-1.213549,3.075032,-0.344253,0.936863,-0.061397,0.000000,0.000000,0.000000,-1,-1.274502,0.173186,0.907728,0.049865,0.416179,-0.160542
"2019-04-05 12:10:35.590 +0000",1554466235.589987,-1.484971,-1.237813,2.977573,-0.325648,0.945072,-0.028018,0.000000,0.000000,0.000000,-1,-2.078128,-0.028287,1.025438,-0.062734,0.288815,-0.073118
"2019-04-05 12:10:35.610 +0000",1554466235.610068,-1.630556,-1.259432,2.825800,-0.305797,0.951917,0.018296,0.000000,0.000000,0.000000,-1,-2.635521,-0.096994,1.042680,-0.218144,-0.012616,0.076400
"2019-04-05 12:10:35.630 +0000",1554466235.630117,-1.830764,-1.270788,2.621981,-0.285583,0.955334,0.075961,0.000000,0.000000,0.000000,-1,-3.028561,-0.506100,1.008874,-0.394975,-0.035397,0.153363
"2019-04-05 12:10:35.650 +0000",1554466235.650166,-2.023245,-1.262674,2.445333,-0.272740,0.952905,0.132573,0.000000,0.000000,0.000000,-1,-2.239401,-1.717670,0.075272,-0.565303,0.396552,0.068629
"2019-04-05 12:10:35.670 +0000",1554466235.670247,-2.114672,-1.234384,2.403125,-0.282459,0.943945,0.170806,0.000000,0.000000,0.000000,-1,-0.706885,-2.870116,-1.383930,-0.551159,0.297556,-0.051329
"2019-04-05 12:10:35.690 +0000",1554466235.690295,-2.152481,-1.209786,2.420294,-0.295116,0.935540,0.194062,0.000000,0.000000,0.000000,-1,-0.474465,-2.315374,-0.672300,-0.458226,-0.134515,-0.006455
"2019-04-05 12:10:35.710 +0000",1554466235.710376,-2.224906,-1.207094,2.367168,-0.282296,0.934586,0.216439,0.000000,0.000000,0.000000,-1,-1.065318,-0.465019,0.938030,-0.334723,-0.104966,0.119574
"2019-04-05 12:10:35.730 +0000",1554466235.730425,-2.311426,-1.206988,2.268896,-0.262610,0.934548,0.240090,0.000000,0.000000,0.000000,-1,-1.510449,0.500829,1.150585,-0.199227,0.145469,0.054633
"2019-04-05 12:10:35.751 +0000",1554466235.750505,-2.399660,-1.201185,2.165998,-0.244092,0.932468,0.266290,0.000000,0.000000,0.000000,-1,-1.420698,0.196648,1.077426,-0.154681,0.225369,-0.070550
"2019-04-05 12:10:35.771 +0000",1554466235.770556,-2.484380,-1.200426,2.076057,-0.221115,0.932193,0.286550,0.000000,0.000000,0.000000,-1,-0.893309,-0.078184,1.393982,-0.046325,0.053601,-0.194951
"2019-04-05 12:10:35.791 +0000",1554466235.790635,-2.567952,-1.210463,1.977083,-0.191336,0.935779,0.296132,0.000000,0.000000,0.000000,-1,-0.481841,0.862485,1.918449,0.011740,-0.092945,-0.210225
"2019-04-05 12:10:35.811 +0000",1554466235.810684,-2.642153,-1.226976,1.864463,-0.161433,0.941474,0.295894,0.000000,0.000000,0.000000,-1,-0.249217,1.957553,2.156157,0.104197,-0.264014,-0.302333
"2019-04-05 12:10:35.831 +0000",1554466235.830734,-2.701501,-1.240165,1.750303,-0.138295,0.945838,0.293687,0.000000,0.000000,0.000000,-1,-0.305682,2.605292,1.811395,0.190480,-0.399665,-0.432496
"2019-04-05 12:10:35.851 +0000",1554466235.850815,-2.732748,-1.242199,1.660478,-0.128288,0.946496,0.296099,0.000000,0.000000,0.000000,-1,-0.727018,2.649394,1.071473,0.225684,-0.489892,-0.513476
"2019-04-05 12:10:35.871 +0000",1554466235.870864,-2.731565,-1.224747,1.608937,-0.135203,0.940720,0.311051,0.000000,0.000000,0.000000,-1,-1.373832,2.360896,0.027018,0.232340,-0.582505,-0.458512
"2019-04-05 12:10:35.891 +0000",1554466235.890944,-2.694759,-1.190359,1.601044,-0.160447,0.928503,0.334852,0.000000,0.000000,0.000000,-1,-1.741549,2.102996,-0.891377,0.162598,-0.618124,-0.269591
"2019-04-05 12:10:35.911 +0000",1554466235.910994,-2.637732,-1.150470,1.616372,-0.197006,0.912956,0.357332,0.000000,0.000000,0.000000,-1,-1.459807,2.114577,-1.268974,-0.094192,-0.650398,-0.002580
"2019-04-05 12:10:35.931 +0000",1554466235.931075,-2.579123,-1.123410,1.643463,-0.230692,0.901581,0.365948,0.000000,0.000000,0.000000,-1,-0.459949,1.298132,-1.004590,-0.377905,-0.551437,0.211887
"2019-04-05 12:10:35.951 +0000",1554466235.951125,-2.542030,-1.125638,1.673618,-0.242971,0.902542,0.355483,0.000000,0.000000,0.000000,-1,0.953052,0.100536,-0.165886,-0.515925,-0.515015,0.391069
"2019-04-05 12:10:35.971 +0000",1554466235.971205,-2.505918,-1.144185,1.707036,-0.245665,0.910373,0.332951,0.000000,0.000000,0.000000,-1,1.120108,0.437482,-0.060305,-0.256548,-0.206561,0.450710
"2019-04-05 12:10:35.991 +0000",1554466235.991253,-2.475003,-1.151809,1.744137,-0.251541,0.913501,0.319734,0.000000,0.000000,0.000000,-1,0.408200,-0.761371,-0.569568,-0.185089,0.135663,0.325377
"2019-04-05 12:10:36.011 +0000",1554466236.011333,-2.510573,-1.139123,1.752248,-0.246829,0.908267,0.337808,0.000000,0.000000,0.000000,-1,-0.810332,-2.815019,-0.281580,-0.103803,0.735425,0.337302
"2019-04-05 12:10:36.031 +0000",1554466236.031383,-2.571612,-1.130838,1.721611,-0.229815,0.904770,0.358559,0.000000,0.000000,0.000000,-1,-0.428616,-0.514313,0.539209,0.071093,1.026291,0.886635
"2019-04-05 12:10:36.051 +0000",1554466236.051433,-2.563691,-1.138735,1.720301,-0.228738,0.908104,0.350732,0.000000,0.000000,0.000000,-1,0.683918,0.692957,0.112651,0.270074,0.223075,0.463156
"2019-04-05 12:10:36.072 +0000",1554466236.071514,-2.518854,-1.146953,1.756321,-0.239867,0.911515,0.334052,0.000000,0.000000,0.000000,-1,0.617785,0.379518,-0.742711,0.281309,0.401366,-0.226310
"2019-04-05 12:10:36.092 +0000",1554466236.091563,-2.485403,-1.141276,1.800003,-0.254058,0.909166,0.329938,0.000000,0.000000,0.000000,-1,0.272096,-0.702726,-0.896000,-0.093552,0.806166,-0.572736
"2019-04-05 12:10:36.112 +0000",1554466236.111643,-2.444758,-1.137670,1.850528,-0.269357,0.907658,0.321855,0.000000,0.000000,0.000000,-1,0.722347,0.198667,-0.766713,-0.382910,0.349071,-0.531129
"2019-04-05 12:10:36.132 +0000",1554466236.131692,-2.401954,-1.142314,1.888765,-0.280039,0.909597,0.306917,0.000000,0.000000,0.000000,-1,0.495918,0.296562,-0.334760,-0.388738,-0.521612,-0.349168
"2019-04-05 12:10:36.152 +0000",1554466236.151772,-2.380177,-1.143639,1.912748,-0.285825,0.910147,0.299873,0.000000,0.000000,0.000000,-1,0.486487,-0.126677,-0.284371,-0.284396,-0.712439,-0.169884
"2019-04-05 12:10:36.172 +0000",1554466236.171822,-2.329468,-1.156614,1.964357,-0.292060,0.915446,0.276852,0.000000,0.000000,0.000000,-1,1.685230,0.414756,-0.280028,-0.249337,-0.573405,-0.085140
"2019-04-05 12:10:36.192 +0000",1554466236.191903,-2.229119,-1.181181,2.067117,-0.300442,0.925055,0.232368,0.000000,0.000000,0.000000,-1,2.598969,-0.024016,-0.414041,-0.298694,-0.321891,-0.277641
"2019-04-05 12:10:36.212 +0000",1554466236.211951,-2.111894,-1.204278,2.207241,-0.307158,0.933581,0.184578,0.000000,0.000000,0.000000,-1,2.733846,-0.976896,-0.525714,-0.431016,0.041838,-0.442665
"2019-04-05 12:10:36.232 +0000",1554466236.232031,-2.000407,-1.218153,2.354091,-0.313979,0.938463,0.143850,0.000000,0.000000,0.000000,-1,2.506050,-1.419084,-0.588739,-0.380799,0.157683,-0.575063
"2019-04-05 12:10:36.252 +0000",1554466236.252081,-1.901798,-1.226257,2.488691,-0.319413,0.941231,0.109764,0.000000,0.000000,0.000000,-1,2.031460,-1.328406,-0.322277,-0.212798,0.092491,-0.568581
"2019-04-05 12:10:36.272 +0000",1554466236.272131,-1.847725,-1.232344,2.569895,-0.319362,0.943270,0.090773,0.000000,0.000000,0.000000,-1,0.899090,-0.946936,-0.016397,-0.035436,0.025084,-0.461500
"2019-04-05 12:10:36.292 +0000",1554466236.292211,-1.838583,-1.234387,2.578726,-0.318320,0.943946,0.087339,0.000000,0.000000,0.000000,-1,-0.197568,0.780809,0.142689,0.119284,-0.044959,0.002443
"2019-04-05 12:10:36.312 +0000",1554466236.312261,-1.817513,-1.239932,2.566134,-0.315009,0.945762,0.079334,0.000000,0.000000,0.000000,-1,0.107496,1.804558,0.450363,0.157050,-0.072624,0.275493
"2019-04-05 12:10:36.332 +0000",1554466236.332341,-1.747721,-1.254566,2.621555,-0.306117,0.950414,0.054732,0.000000,0.000000,0.000000,-1,1.535318,0.121158,0.567357,0.199961,-0.126653,0.209886
"2019-04-05 12:10:36.352 +0000",1554466236.352392,-1.627923,-1.268270,2.754403,-0.297432,0.954587,0.017010,0.000000,0.000000,0.000000,-1,2.195457,-0.249343,0.339336,0.216240,-0.227475,0.040455
"2019-04-05 12:10:36.372 +0000",1554466236.372472,-1.508091,-1.271040,2.869917,-0.294692,0.955408,-0.018503,0.000000,0.000000,0.000000,-1,1.295749,0.708467,0.039813,0.218123,-0.280436,-0.218085
"2019-04-05 12:10:36.393 +0000",1554466236.392520,-1.433842,-1.268786,2.940763,-0.294640,0.954741,-0.040606,0.000000,0.000000,0.000000,-1,1.016887,0.037681,-0.001125,0.124596,-0.126616,0.004885
"2019-04-05 12:10:36.413 +0000",1554466236.412601,-1.368859,-1.263281,3.012311,-0.296527,0.953089,-0.060707,0.000000,0.000000,0.000000,-1,1.114167,-0.206931,-0.172153,0.055941,-0.054239,0.251351
"2019-04-05 12:10:36.433 +0000",1554466236.432650,-1.305331,-1.248750,3.084687,-0.305408,0.948590,-0.083035,0.000000,0.000000,0.000000,-1,1.320361,-0.363301,-0.589252,0.036518,-0.062115,0.204571
"2019-04-05 12:10:36.453 +0000",1554466236.452729,-1.254940,-1.229640,-3.137426,-0.318014,0.942368,-0.103926,0.000000,0.000000,0.000000,-1,1.066683,-0.298240,-0.603410,0.072179,-0.030259,0.013533
"2019-04-05 12:10:36.473 +0000",1554466236.472780,-1.231309,-1.210299,-3.109727,-0.332596,0.935721,-0.117460,0.000000,0.000000,0.000000,-1,0.551045,-0.113810,-0.900988,0.179917,0.009835,-0.123217
"2019-04-05 12:10:36.493 +0000",1554466236.492830,-1.240064,-1.192038,-3.111120,-0.349717,0.929124,-0.120073,0.000000,0.000000,0.000000,-1,0.099188,-0.519731,-0.738732,0.083100,0.106581,-0.018446
"2019-04-05 12:10:36.513 +0000",1554466236.512909,-1.260025,-1.181582,-3.119885,-0.361274,0.925207,-0.116033,0.000000,0.000000,0.000000,-1,0.025425,-0.594179,-0.477820,0.196434,0.137552,0.229162
"2019-04-05 12:10:36.533 +0000",1554466236.532968,-1.266091,-1.170035,-3.118212,-0.372139,0.920764,-0.117038,0.000000,0.000000,0.000000,-1,0.269321,-0.175373,-0.516025,0.282157,0.193143,0.260470
"2019-04-05 12:10:36.553 +0000",1554466236.553049,-1.254343,-1.162223,-3.111197,-0.377562,0.917689,-0.123636,0.000000,0.000000,0.000000,-1,0.198384,0.423301,-0.220934,0.409301,0.214590,0.082528
"2019-04-05 12:10:36.573 +0000",1554466236.573098,-1.245435,-1.161739,-3.106088,-0.376867,0.917496,-0.127136,0.000000,0.000000,0.000000,-1,0.016987,0.020305,0.191928,0.510641,0.294204,0.054718
"2019-04-05 12:10:36.593 +0000",1554466236.593177,-1.245666,-1.170239,-3.102287,-0.369493,0.920844,-0.124554,0.000000,0.000000,0.000000,-1,-0.105802,-0.249796,0.549511,0.420961,0.500680,0.134274
"2019-04-05 12:10:36.613 +0000",1554466236.613227,-1.249031,-1.185428,-3.102058,-0.356598,0.926660,-0.118872,0.000000,0.000000,0.000000,-1,-0.399265,-0.075249,0.831638,0.161225,0.515433,-0.022745
"2019-04-05 12:10:36.633 +0000",1554466236.633307,-1.273975,-1.210365,-3.127643,-0.337245,0.935745,-0.103148,0.000000,0.000000,0.000000,-1,-1.182955,-0.046029,1.148806,-0.057103,0.446412,-0.154649
"2019-04-05 12:10:36.653 +0000",1554466236.653357,-1.358881,-1.241672,3.071216,-0.315971,0.946326,-0.067980,0.000000,0.000000,0.000000,-1,-2.115287,-0.469620,1.121645,-0.124901,0.306482,-0.087629
"2019-04-05 12:10:36.673 +0000",1554466236.673438,-1.514138,-1.269262,2.920794,-0.296493,0.954882,-0.016817,0.000000,0.000000,0.000000,-1,-2.681019,-0.621229,0.992895,-0.266266,0.052854,0.138399
"2019-04-05 12:10:36.693 +0000",1554466236.693487,-1.723913,-1.284421,2.718129,-0.279154,0.959274,0.043080,0.000000,0.000000,0.000000,-1,-2.986575,-1.009108,0.859888,-0.385824,0.022354,0.269832
"2019-04-05 12:10:36.714 +0000",1554466236.713537,-1.933006,-1.279854,2.536932,-0.268224,0.957974,0.101638,0.000000,0.000000,0.000000,-1,-2.076946,-2.324987,-0.055033,-0.580760,0.402316,0.120530
"2019-04-05 12:10:36.734 +0000",1554466236.733616,-2.037027,-1.252932,2.491851,-0.279164,0.949905,0.140485,0.000000,0.000000,0.000000,-1,-0.788814,-3.245479,-1.313049,-0.535747,0.221527,-0.010464
"2019-04-05 12:10:36.754 +0000",1554466236.753666,-2.102903,-1.227171,2.484705,-0.290306,0.941540,0.170918,0.000000,0.000000,0.000000,-1,-0.843191,-2.488475,-0.604607,-0.509086,-0.180675,0.060589
"2019-04-05 12:10:36.774 +0000",1554466236.773748,-2.195882,-1.219793,2.411100,-0.278808,0.939028,0.201192,0.000000,0.000000,0.000000,-1,-1.494711,-0.527445,0.867653,-0.399704,-0.151537,0.164744
"2019-04-05 12:10:36.794 +0000",1554466236.793796,-2.301037,-1.214453,2.295062,-0.259883,0.937179,0.232686,0.000000,0.000000,0.000000,-1,-1.795916,0.442560,1.034073,-0.263173,0.085740,0.074137
"2019-04-05 12:10:36.814 +0000",1554466236.813876,-2.389078,-1.203045,2.195066,-0.245708,0.933138,0.262423,0.000000,0.000000,0.000000,-1,-1.526849,-0.036110,0.786610,-0.213246,0.222959,-0.068209
"2019-04-05 12:10:36.834 +0000",1554466236.833926,-2.474188,-1.198125,2.114687,-0.225350,0.931358,0.285963,0.000000,0.000000,0.000000,-1,-0.899106,-0.667258,1.110808,-0.048958,0.025078,-0.215101
"2019-04-05 12:10:36.854 +0000",1554466236.854006,-2.566618,-1.206243,2.022609,-0.193875,0.934283,0.299186,0.000000,0.000000,0.000000,-1,-0.564508,0.026695,1.890571,0.017804,-0.191287,-0.243033
"2019-04-05 12:10:36.874 +0000",1554466236.874056,-2.662943,-1.220138,1.901909,-0.158206,0.939147,0.304890,0.000000,0.000000,0.000000,-1,-0.409940,1.330211,2.277900,0.104633,-0.289473,-0.286595
"2019-04-05 12:10:36.894 +0000",1554466236.894105,-2.740653,-1.230678,1.779669,-0.130189,0.942715,0.307121,0.000000,0.000000,0.000000,-1,-0.470723,2.052387,1.950316,0.177522,-0.368207,-0.420799
"2019-04-05 12:10:36.914 +0000",1554466236.914186,-2.791850,-1.229125,1.680223,-0.114803,0.942196,0.314755,0.000000,0.000000,0.000000,-1,-0.849425,2.125172,1.194366,0.235576,-0.479824,-0.475689
"2019-04-05 12:10:36.934 +0000",1554466236.934234,-2.797568,-1.209763,1.626751,-0.119133,0.935532,0.332520,0.000000,0.000000,0.000000,-1,-1.463433,2.284339,0.160197,0.282768,-0.626755,-0.354234
"2019-04-05 12:10:36.954 +0000",1554466236.954314,-2.758137,-1.177516,1.616616,-0.143364,0.923657,0.355368,0.000000,0.000000,0.000000,-1,-1.521372,2.584470,-0.668557,0.171364,-0.679379,-0.124518
"2019-04-05 12:10:36.974 +0000",1554466236.974364,-2.687442,-1.152002,1.634235,-0.178392,0.913580,0.365419,0.000000,0.000000,0.000000,-1,-0.632356,2.624253,-0.832547,-0.036025,-0.674734,0.128142
"2019-04-05 12:10:36.994 +0000",1554466236.994445,-2.617011,-1.149982,1.668923,-0.204589,0.912756,0.353555,0.000000,0.000000,0.000000,-1,0.798245,1.385303,-0.519936,-0.160157,-0.608099,0.297522
"2019-04-05 12:10:37.014 +0000",1554466237.014494,-2.560822,-1.171830,1.721446,-0.213127,0.921463,0.324755,0.000000,0.000000,0.000000,-1,1.693927,-0.043590,-0.221228,-0.055763,-0.434463,0.428312
"2019-04-05 12:10:37.035 +0000",1554466237.034575,-2.505658,-1.193246,1.792866,-0.218935,0.929570,0.296561,0.000000,0.000000,0.000000,-1,1.507375,-0.971657,-0.785630,-0.021864,-0.097127,0.453652
"2019-04-05 12:10:37.055 +0000",1554466237.054625,-2.475862,-1.186937,1.867174,-0.231290,0.927226,0.294514,0.000000,0.000000,0.000000,-1,-0.062224,-2.606886,-1.366979,-0.259615,0.610783,0.477962
"2019-04-05 12:10:37.075 +0000",1554466237.074703,-2.512219,-1.170804,1.878994,-0.229208,0.921064,0.314780,0.000000,0.000000,0.000000,-1,-0.454371,-1.225580,0.008856,-0.433145,1.617937,0.839456
"2019-04-05 12:10:37.095 +0000",1554466237.094753,-2.515270,-1.179223,1.858847,-0.223694,0.924310,0.309184,0.000000,0.000000,0.000000,-1,0.469907,1.265109,0.662526,-0.128983,0.284675,0.460149
"2019-04-05 12:10:37.115 +0000",1554466237.114803,-2.507865,-1.197683,1.847539,-0.215835,0.931197,0.293717,0.000000,0.000000,0.000000,-1,0.642996,0.536567,0.595868,0.083938,-0.494933,-0.206696
"2019-04-05 12:10:37.135 +0000",1554466237.134883,-2.482334,-1.206162,1.870137,-0.218418,0.934254,0.281860,0.000000,0.000000,0.000000,-1,0.574034,0.054121,-0.543000,0.309376,-0.293110,-0.251815
"2019-04-05 12:10:37.155 +0000",1554466237.154933,-2.399418,-1.206869,1.967525,-0.240565,0.934506,0.262315,0.000000,0.000000,0.000000,-1,1.645558,-0.718441,-1.623471,0.139171,0.109653,-0.158296
"2019-04-05 12:10:37.175 +0000",1554466237.175014,-2.286869,-1.214244,2.117176,-0.263298,0.937106,0.229107,0.000000,0.000000,0.000000,-1,2.107347,-1.630160,-1.468642,-0.651283,0.629087,-0.378155
"2019-04-05 12:10:37.195 +0000",1554466237.195063,-2.211291,-1.216071,2.215019,-0.278472,0.937742,0.207549,0.000000,0.000000,0.000000,-1,1.001598,-0.224801,-0.585016,-0.956498,0.405489,-0.311538
"2019-04-05 12:10:37.215 +0000",1554466237.215143,-2.170322,-1.228236,2.258914,-0.277299,0.941898,0.189517,0.000000,0.000000,0.000000,-1,0.920583,0.088732,0.338856,-0.559600,-0.299518,-0.290592
"2019-04-05 12:10:37.235 +0000",1554466237.235192,-2.123707,-1.241534,2.301739,-0.275144,0.946281,0.169796,0.000000,0.000000,0.000000,-1,1.030582,0.297157,0.013139,-0.139300,-0.419365,-0.236020
"2019-04-05 12:10:37.255 +0000",1554466237.255273,-2.057771,-1.248715,2.373702,-0.279722,0.948579,0.148115,0.000000,0.000000,0.000000,-1,1.211414,-0.431320,-0.335691,-0.119219,-0.382127,-0.300642
"2019-04-05 12:10:37.275 +0000",1554466237.275322,-1.993228,-1.252053,2.460675,-0.285804,0.949630,0.128467,0.000000,0.000000,0.000000,-1,1.362201,-1.121539,-0.501245,-0.194436,-0.098632,-0.327518
"2019-04-05 12:10:37.295 +0000",1554466237.295402,-1.918052,-1.254285,2.567588,-0.292651,0.950327,0.105917,0.000000,0.000000,0.000000,-1,1.692680,-1.355743,-0.467344,-0.150785,0.047003,-0.294577
"2019-04-05 12:10:37.315 +0000",1554466237.315451,-1.815350,-1.258311,2.695501,-0.298254,0.951572,0.074429,0.000000,0.000000,0.000000,-1,2.102475,-0.580869,-0.319013,-0.043695,0.043346,-0.196865
"2019-04-05 12:10:37.336 +0000",1554466237.335501,-1.686397,-1.262339,2.833762,-0.301540,0.952803,0.035014,0.000000,0.000000,0.000000,-1,1.899421,-0.033136,-0.039652,0.066082,-0.080229,-0.177486
"2019-04-05 12:10:37.356 +0000",1554466237.355581,-1.601608,-1.266934,2.923962,-0.299044,0.954188,0.009217,0.000000,0.000000,0.000000,-1,1.071059,-0.030447,0.199856,0.161654,-0.224040,-0.066834
"2019-04-05 12:10:37.376 +0000",1554466237.375630,-1.541385,-1.270282,2.981864,-0.295861,0.955184,-0.008704,0.000000,0.000000,0.000000,-1,0.772435,0.474905,0.149316,0.190530,-0.307189,0.022620
"2019-04-05 12:10:37.396 +0000",1554466237.395711,-1.464797,-1.269164,3.041781,-0.295390,0.954853,-0.031429,0.000000,0.000000,0.000000,-1,0.934366,1.160745,-0.123523,0.193614,-0.293568,0.052776
"2019-04-05 12:10:37.416 +0000",1554466237.415761,-1.400158,-1.260182,3.090632,-0.301184,0.952146,-0.051898,0.000000,0.000000,0.000000,-1,0.715388,0.496345,-0.366898,0.176153,-0.052305,0.008777
"2019-04-05 12:10:37.436 +0000",1554466237.435841,-1.350771,-1.251524,-3.132307,-0.306289,0.949464,-0.068500,0.000000,0.000000,0.000000,-1,1.196553,-0.837564,-0.193692,-0.017441,0.017608,0.316349
"2019-04-05 12:10:37.456 +0000",1554466237.455890,-1.295493,-1.237638,-3.048935,-0.314697,0.945014,-0.088894,0.000000,0.000000,0.000000,-1,1.536999,-1.272689,-0.433804,-0.055924,-0.040748,0.238018
"2019-04-05 12:10:37.476 +0000",1554466237.475971,-1.240219,-1.221338,-2.969999,-0.323834,0.939558,-0.111130,0.000000,0.000000,0.000000,-1,1.414045,-0.697323,-0.333469,0.046124,-0.022948,0.063675
"2019-04-05 12:10:37.496 +0000",1554466237.496021,-1.191324,-1.206290,-2.911966,-0.331112,0.934300,-0.132048,0.000000,0.000000,0.000000,-1,1.042840,-0.033477,-0.355868,0.295681,0.127696,-0.082476
"2019-04-05 12:10:37.516 +0000",1554466237.516100,-1.166765,-1.191388,-2.884454,-0.340536,0.928884,-0.145597,0.000000,0.000000,0.000000,-1,0.549735,-0.253169,-0.604168,0.407628,0.098841,-0.091235
"2019-04-05 12:10:37.536 +0000",1554466237.536134,-1.175434,-1.177235,-2.880280,-0.353883,0.923549,-0.147689,0.000000,0.000000,0.000000,-1,0.251487,-0.753825,-0.528704,0.287416,0.027012,0.215987
"2019-04-05 12:10:37.556 +0000",1554466237.556184,-1.182531,-1.167748,-2.875892,-0.363016,0.919870,-0.148484,0.000000,0.000000,0.000000,-1,0.276733,-0.392326,-0.375877,0.262537,0.066428,0.357209
"2019-04-05 12:10:37.576 +0000",1554466237.576263,-1.180076,-1.157925,-2.869188,-0.370989,0.915972,-0.152809,0.000000,0.000000,0.000000,-1,0.278702,-0.076499,-0.371070,0.140154,0.109205,0.167809
"2019-04-05 12:10:37.596 +0000",1554466237.596313,-1.178915,-1.152216,-2.868840,-0.375637,0.913667,-0.155234,0.000000,0.000000,0.000000,-1,-0.016768,0.070429,-0.199718,0.121197,0.183867,0.064643
"2019-04-05 12:10:37.616 +0000",1554466237.616393,-1.191442,-1.151851,-2.883065,-0.377862,0.913518,-0.150640,0.000000,0.000000,0.000000,-1,-0.414400,-0.038840,-0.054113,0.186288,0.304072,0.126516
"2019-04-05 12:10:37.636 +0000",1554466237.636443,-1.218008,-1.158178,-2.906492,-0.376299,0.916074,-0.138550,0.000000,0.000000,0.000000,-1,-0.618090,-0.420526,0.259822,0.222673,0.542483,0.221710
"2019-04-05 12:10:37.657 +0000",1554466237.656522,-1.256394,-1.172528,-2.933278,-0.368798,0.921734,-0.119929,0.000000,0.000000,0.000000,-1,-0.843166,-0.845819,0.665301,0.175408,0.568043,0.046320
"2019-04-05 12:10:37.677 +0000",1554466237.676572,-1.321206,-1.196245,-2.980312,-0.354503,0.930672,-0.090365,0.000000,0.000000,0.000000,-1,-1.425270,-1.168742,1.006903,0.102656,0.448799,-0.102476
"2019-04-05 12:10:37.697 +0000",1554466237.696652,-1.429634,-1.225229,-3.067784,-0.335342,0.940884,-0.047655,0.000000,0.000000,0.000000,-1,-1.979556,-1.388496,1.188906,0.009155,0.226673,-0.018172
"2019-04-05 12:10:37.717 +0000",1554466237.716702,-1.580444,-1.252317,3.080200,-0.313086,0.949713,0.003021,0.000000,0.000000,0.000000,-1,-2.492418,-0.930846,1.176082,-0.152124,0.102625,0.226273
"2019-04-05 12:10:37.737 +0000",1554466237.736751,-1.764657,-1.264724,2.906750,-0.295648,0.953524,0.058044,0.000000,0.000000,0.000000,-1,-2.484265,-1.201879,0.618734,-0.512991,0.339322,0.161653
"2019-04-05 12:10:37.757 +0000",1554466237.756832,-1.913894,-1.250859,2.791803,-0.296156,0.949255,0.105794,0.000000,0.000000,0.000000,-1,-1.452820,-2.371003,-0.684861,-0.553362,0.375254,-0.034780
"2019-04-05 12:10:37.777 +0000",1554466237.776882,-2.001958,-1.224845,2.753991,-0.308039,0.940753,0.141706,0.000000,0.000000,0.000000,-1,-1.009182,-2.630771,-0.822709,-0.395315,-0.103366,-0.018217
"2019-04-05 12:10:37.797 +0000",1554466237.796962,-2.104394,-1.214440,2.686713,-0.300346,0.937174,0.177432,0.000000,0.000000,0.000000,-1,-1.459932,-1.401502,0.613696,-0.311898,-0.298655,0.133466
"2019-04-05 12:10:37.817 +0000",1554466237.817011,-2.221336,-1.210220,2.572690,-0.280737,0.935693,0.213656,0.000000,0.000000,0.000000,-1,-1.912913,-0.027349,1.012249,-0.148356,-0.062830,0.131498
"2019-04-05 12:10:37.837 +0000",1554466237.837091,-2.320735,-1.199426,2.460142,-0.265523,0.931831,0.247330,0.000000,0.000000,0.000000,-1,-1.747687,0.306484,0.817576,-0.174189,0.172493,0.043670
"2019-04-05 12:10:37.857 +0000",1554466237.857141,-2.394952,-1.194413,2.378382,-0.249623,0.930000,0.269763,0.000000,0.000000,0.000000,-1,-0.878015,-0.060028,1.015996,-0.096965,0.196358,-0.102344
"2019-04-05 12:10:37.877 +0000",1554466237.877221,-2.468026,-1.206618,2.302473,-0.222164,0.934417,0.278374,0.000000,0.000000,0.000000,-1,-0.228595,-0.043678,1.722448,0.013347,0.012467,-0.259682
"2019-04-05 12:10:37.897 +0000",1554466237.897271,-2.553328,-1.229791,2.197722,-0.185571,0.942419,0.278198,0.000000,0.000000,0.000000,-1,-0.142457,1.183259,2.366414,0.086068,-0.158361,-0.311523
"2019-04-05 12:10:37.917 +0000",1554466237.917351,-2.637982,-1.248865,2.066555,-0.152679,0.948626,0.277095,0.000000,0.000000,0.000000,-1,-0.382582,2.307514,2.126225,0.166687,-0.302310,-0.470149
"2019-04-05 12:10:37.937 +0000",1554466237.937400,-2.693559,-1.253054,1.956045,-0.135329,0.949943,0.281564,0.000000,0.000000,0.000000,-1,-0.819901,2.455854,1.331159,0.254042,-0.444679,-0.581659
"2019-04-05 12:10:37.957 +0000",1554466237.957450,-2.716537,-1.235328,1.881719,-0.135747,0.944256,0.299895,0.000000,0.000000,0.000000,-1,-1.596852,2.295050,0.333037,0.313375,-0.592114,-0.456404
"2019-04-05 12:10:37.978 +0000",1554466237.977530,-2.702582,-1.201559,1.847660,-0.153390,0.932603,0.326660,0.000000,0.000000,0.000000,-1,-1.759190,2.334706,-0.414993,0.197229,-0.674394,-0.127136
"2019-04-05 12:10:37.998 +0000",1554466237.997580,-2.656985,-1.171631,1.846971,-0.181047,0.921386,0.343880,0.000000,0.000000,0.000000,-1,-0.979719,2.211909,-0.729121,-0.074309,-0.709762,0.131782
"2019-04-05 12:10:38.018 +0000",1554466238.017659,-2.595869,-1.164155,1.874649,-0.205282,0.918455,0.338059,0.000000,0.000000,0.000000,-1,0.550956,1.435493,-0.536264,-0.211588,-0.704435,0.355468
"2019-04-05 12:10:38.038 +0000",1554466238.037709,-2.530464,-1.185981,1.928794,-0.215382,0.926868,0.307425,0.000000,0.000000,0.000000,-1,1.879025,0.428417,-0.123971,-0.120128,-0.659839,0.442224
"2019-04-05 12:10:38.058 +0000",1554466238.057790,-2.476162,-1.211079,1.982165,-0.217316,0.935996,0.276891,0.000000,0.000000,0.000000,-1,1.119257,0.097182,-0.089649,-0.108306,-0.090293,0.354930
"2019-04-05 12:10:38.078 +0000",1554466238.077839,-2.494411,-1.190384,1.975586,-0.223860,0.928512,0.296202,0.000000,0.000000,0.000000,-1,-2.371213,-1.155964,-0.534572,-0.322908,0.707993,0.259676
"2019-04-05 12:10:38.098 +0000",1554466238.097919,-2.622555,-1.148834,1.867137,-0.203145,0.912287,0.355593,0.000000,0.000000,0.000000,-1,-2.263311,-0.994857,1.258445,-0.329768,1.498754,0.969999
"2019-04-05 12:10:38.118 +0000",1554466238.117969,-2.651326,-1.148137,1.815654,-0.193131,0.912001,0.361851,0.000000,0.000000,0.000000,-1,0.253418,1.760826,0.560654,0.343613,0.377061,0.895595
"2019-04-05 12:10:38.138 +0000",1554466238.138049,-2.616581,-1.165086,1.820028,-0.197808,0.918822,0.341498,0.000000,0.000000,0.000000,-1,0.960678,1.170195,0.217140,0.364449,-0.527999,-0.056342
"2019-04-05 12:10:38.158 +0000",1554466238.158098,-2.561133,-1.174486,1.860576,-0.211683,0.922491,0.322774,0.000000,0.000000,0.000000,-1,0.688090,0.749571,-0.893429,0.406981,-0.401617,-0.347112
"2019-04-05 12:10:38.178 +0000",1554466238.178149,-2.473052,-1.172747,1.955771,-0.240250,0.921819,0.304160,0.000000,0.000000,0.000000,-1,1.455974,-0.558755,-1.818630,0.192765,0.102748,-0.205451
"2019-04-05 12:10:38.198 +0000",1554466238.198228,-2.355286,-1.175030,2.118209,-0.272833,0.922701,0.272338,0.000000,0.000000,0.000000,-1,2.279200,-2.138344,-2.528304,-0.482797,0.750989,-0.477569
"2019-04-05 12:10:38.218 +0000",1554466238.218278,-2.276285,-1.160201,2.229066,-0.303860,0.916884,0.258802,0.000000,0.000000,0.000000,-1,0.340471,-0.086944,-1.372090,-0.884129,0.695528,-0.301511
"2019-04-05 12:10:38.238 +0000",1554466238.238359,-2.249645,-1.155545,2.249867,-0.313966,0.915015,0.253295,0.000000,0.000000,0.000000,-1,0.251405,0.378531,0.066333,-0.806136,-0.173377,-0.434081
"2019-04-05 12:10:38.258 +0000",1554466238.258409,-2.228443,-1.170445,2.263899,-0.308440,0.920924,0.238220,0.000000,0.000000,0.000000,-1,0.967102,0.554411,0.495004,-0.135347,-0.639140,-0.235916
"2019-04-05 12:10:38.278 +0000",1554466238.278487,-2.161438,-1.189507,2.321132,-0.309059,0.928186,0.207219,0.000000,0.000000,0.000000,-1,1.733998,0.635876,-0.136024,0.112678,-0.588785,-0.206777
"2019-04-05 12:10:38.299 +0000",1554466238.298537,-2.046898,-1.203375,2.442379,-0.319245,0.933257,0.164624,0.000000,0.000000,0.000000,-1,2.493844,-0.293971,-0.671915,-0.003768,-0.186415,-0.331586
"2019-04-05 12:10:38.319 +0000",1554466238.318618,-1.930860,-1.211568,2.584889,-0.328991,0.936168,0.123857,0.000000,0.000000,0.000000,-1,2.341745,-1.171195,-0.544240,-0.223926,0.162068,-0.514223
"2019-04-05 12:10:38.339 +0000",1554466238.338667,-1.847138,-1.217511,2.699769,-0.332837,0.938241,0.094392,0.000000,0.000000,0.000000,-1,1.757288,-1.024089,-0.215650,-0.197437,0.130637,-0.457642
"2019-04-05 12:10:38.359 +0000",1554466238.358746,-1.781378,-1.220770,2.776548,-0.335328,0.939364,0.071677,0.000000,0.000000,0.000000,-1,0.986074,0.153659,-0.158424,-0.096343,-0.011736,-0.328619
"2019-04-05 12:10:38.379 +0000",1554466238.378795,-1.745424,-1.216980,2.793033,-0.341191,0.938057,0.060195,0.000000,0.000000,0.000000,-1,-0.224174,1.533827,-0.275428,0.018818,-0.145485,-0.050322
"2019-04-05 12:10:38.399 +0000",1554466238.398845,-1.732030,-1.207330,2.769013,-0.350886,0.934670,0.057070,0.000000,0.000000,0.000000,-1,-0.440400,1.628676,-0.452532,-0.052160,-0.167855,0.192793
"2019-04-05 12:10:38.419 +0000",1554466238.418927,-1.698545,-1.204370,2.791843,-0.355343,0.933614,0.045643,0.000000,0.000000,0.000000,-1,0.973161,-0.106928,0.094557,-0.174824,-0.157552,0.215068
"2019-04-05 12:10:38.439 +0000",1554466238.438977,-1.620415,-1.216377,2.893305,-0.346599,0.937848,0.017212,0.000000,0.000000,0.000000,-1,2.216942,-1.027818,0.555124,0.096950,-0.052976,0.115799
"2019-04-05 12:10:38.459 +0000",1554466238.459056,-1.507776,-1.225905,3.026149,-0.337404,0.941112,-0.021291,0.000000,0.000000,0.000000,-1,2.038693,-0.208829,0.407942,0.227877,-0.089656,-0.165598
"2019-04-05 12:10:38.479 +0000",1554466238.479105,-1.429014,-1.224525,3.105810,-0.335969,0.940645,-0.047956,0.000000,0.000000,0.000000,-1,1.019116,0.155762,-0.161698,0.289994,-0.203508,-0.311846
"2019-04-05 12:10:38.499 +0000",1554466238.499185,-1.384944,-1.213977,-3.123117,-0.343262,0.937013,-0.064541,0.000000,0.000000,0.000000,-1,1.042116,-0.555604,-0.424925,0.138535,-0.091737,0.155178
"2019-04-05 12:10:38.519 +0000",1554466238.519235,-1.335892,-1.198864,-3.061813,-0.353419,0.931627,-0.084581,0.000000,0.000000,0.000000,-1,1.330936,-0.260161,-0.562478,0.048762,-0.034074,0.433458
"2019-04-05 12:10:38.539 +0000",1554466238.539293,-1.282479,-1.180044,-2.999570,-0.365147,0.924623,-0.108296,0.000000,0.000000,0.000000,-1,1.279805,-0.263306,-0.587910,0.172352,-0.007020,0.234715
"2019-04-05 12:10:38.559 +0000",1554466238.559342,-1.253526,-1.161525,-2.958432,-0.378066,0.917411,-0.124143,0.000000,0.000000,0.000000,-1,0.879310,-0.558607,-0.684317,0.341414,0.037026,-0.031176
"2019-04-05 12:10:38.579 +0000",1554466238.579391,-1.250626,-1.144145,-2.941569,-0.392781,0.910356,-0.130238,0.000000,0.000000,0.000000,-1,0.416758,-0.611436,-0.659831,0.368748,0.122465,-0.028713
"2019-04-05 12:10:38.599 +0000",1554466238.599472,-1.256108,-1.135402,-2.939191,-0.401042,0.906704,-0.130541,0.000000,0.000000,0.000000,-1,0.062327,-0.197603,-0.279177,0.434978,0.190464,0.123873
"2019-04-05 12:10:38.620 +0000",1554466238.619522,-1.255748,-1.131617,-2.942741,-0.404255,0.905101,-0.131748,0.000000,0.000000,0.000000,-1,-0.054250,0.382009,-0.163944,0.493565,0.275853,0.236179
"2019-04-05 12:10:38.640 +0000",1554466238.639601,-1.253259,-1.129938,-2.951060,-0.405369,0.904386,-0.133228,0.000000,0.000000,0.000000,-1,-0.214222,0.517172,-0.128172,0.498738,0.318942,0.183018
"2019-04-05 12:10:38.660 +0000",1554466238.659651,-1.259061,-1.129574,-2.968647,-0.406449,0.904230,-0.130975,0.000000,0.000000,0.000000,-1,-0.447636,0.514155,-0.121206,0.425949,0.390951,0.120461
"2019-04-05 12:10:38.680 +0000",1554466238.679732,-1.273114,-1.134032,-2.996264,-0.404391,0.906125,-0.124067,0.000000,0.000000,0.000000,-1,-0.725033,0.507909,0.172277,0.240558,0.535052,-0.015948
"2019-04-05 12:10:38.700 +0000",1554466238.699781,-1.297315,-1.149945,-3.034491,-0.393340,0.912741,-0.110336,0.000000,0.000000,0.000000,-1,-1.190335,0.538946,0.771871,0.119109,0.546777,-0.184418
"2019-04-05 12:10:38.720 +0000",1554466238.719861,-1.350951,-1.179602,-3.101644,-0.372098,0.924454,-0.083148,0.000000,0.000000,0.000000,-1,-1.963400,0.320347,1.245094,0.053906,0.424087,-0.208966
"2019-04-05 12:10:38.740 +0000",1554466238.739911,-1.457264,-1.213417,3.067358,-0.347548,0.936817,-0.039628,0.000000,0.000000,0.000000,-1,-2.492908,-0.195021,1.310462,-0.056428,0.193036,0.004686
"2019-04-05 12:10:38.760 +0000",1554466238.759990,-1.612857,-1.239692,2.907343,-0.324777,0.945684,0.013668,0.000000,0.000000,0.000000,-1,-2.871074,-0.225532,1.135673,-0.318198,0.034831,0.294315
"2019-04-05 12:10:38.780 +0000",1554466238.780040,-1.790948,-1.247048,2.731352,-0.310419,0.948050,0.069465,0.000000,0.000000,0.000000,-1,-2.492626,-0.934903,0.332808,-0.550604,0.326624,0.240258
"2019-04-05 12:10:38.800 +0000",1554466238.800089,-1.910387,-1.226445,2.644607,-0.318284,0.941295,0.112442,0.000000,0.000000,0.000000,-1,-1.143270,-2.384961,-1.134976,-0.575576,0.365529,-0.026703
"2019-04-05 12:10:38.820 +0000",1554466238.820171,-1.972869,-1.195158,2.640092,-0.337588,0.930274,0.143555,0.000000,0.000000,0.000000,-1,-0.499172,-3.055381,-1.159053,-0.536634,-0.082816,-0.104065
"2019-04-05 12:10:38.840 +0000",1554466238.840220,-2.055581,-1.191984,2.599947,-0.327184,0.929105,0.172330,0.000000,0.000000,0.000000,-1,-0.963412,-1.608254,0.868692,-0.447475,-0.304730,0.082125
"2019-04-05 12:10:38.860 +0000",1554466238.860299,-2.156918,-1.198306,2.505660,-0.303172,0.931424,0.201292,0.000000,0.000000,0.000000,-1,-1.517552,-0.222303,1.169564,-0.112401,-0.051358,0.055406
"2019-04-05 12:10:38.880 +0000",1554466238.880349,-2.248535,-1.194831,2.402273,-0.286004,0.930154,0.230213,0.000000,0.000000,0.000000,-1,-1.604968,0.426513,0.867471,-0.122733,0.173957,-0.027744
"2019-04-05 12:10:38.900 +0000",1554466238.900430,-2.314435,-1.189322,2.315333,-0.273991,0.928117,0.252012,0.000000,0.000000,0.000000,-1,-1.257811,0.901579,0.921737,-0.087109,0.235870,-0.125929
"2019-04-05 12:10:38.920 +0000",1554466238.920479,-2.380508,-1.192503,2.224208,-0.254716,0.929296,0.267413,0.000000,0.000000,0.000000,-1,-1.025058,0.907621,1.573846,0.008347,0.054667,-0.291751
"2019-04-05 12:10:38.941 +0000",1554466238.940560,-2.468880,-1.204090,2.106962,-0.223395,0.933513,0.280408,0.000000,0.000000,0.000000,-1,-0.961880,1.231758,2.182216,0.096396,-0.141292,-0.326017
"2019-04-05 12:10:38.961 +0000",1554466238.960610,-2.560068,-1.213980,1.972568,-0.191850,0.937014,0.291854,0.000000,0.000000,0.000000,-1,-1.002669,1.958109,2.107995,0.214937,-0.328905,-0.414092
"2019-04-05 12:10:38.981 +0000",1554466238.980688,-2.625969,-1.214296,1.854453,-0.172068,0.937124,0.303597,0.000000,0.000000,0.000000,-1,-1.137640,2.379467,1.513886,0.274211,-0.408788,-0.471001
"2019-04-05 12:10:39.001 +0000",1554466239.000738,-2.653173,-1.199823,1.772146,-0.170093,0.931975,0.320109,0.000000,0.000000,0.000000,-1,-1.453282,2.473520,0.568295,0.301365,-0.517516,-0.428737
"2019-04-05 12:10:39.021 +0000",1554466239.020788,-2.641287,-1.172756,1.731419,-0.185922,0.921822,0.340082,0.000000,0.000000,0.000000,-1,-1.575047,2.523798,-0.257543,0.252084,-0.639153,-0.236032
"2019-04-05 12:10:39.041 +0000",1554466239.040868,-2.593980,-1.143503,1.724847,-0.215749,0.910091,0.353788,0.000000,0.000000,0.000000,-1,-1.082203,2.682007,-0.783409,0.039892,-0.657161,-0.009947
"2019-04-05 12:10:39.061 +0000",1554466239.060918,-2.522524,-1.126365,1.749690,-0.249473,0.902855,0.350136,0.000000,0.000000,0.000000,-1,0.029792,2.198411,-0.906284,-0.128991,-0.648842,0.207039
"2019-04-05 12:10:39.081 +0000",1554466239.080998,-2.443515,-1.134951,1.806606,-0.271337,0.906514,0.323403,0.000000,0.000000,0.000000,-1,1.746008,0.795458,-0.494589,-0.264277,-0.616276,0.353248
"2019-04-05 12:10:39.101 +0000",1554466239.101047,-2.358179,-1.165716,1.892052,-0.278095,0.919071,0.279200,0.000000,0.000000,0.000000,-1,2.403519,0.251478,-0.139435,-0.167172,-0.420734,0.394323
"2019-04-05 12:10:39.121 +0000",1554466239.121127,-2.287176,-1.185442,1.969875,-0.283472,0.926665,0.246814,0.000000,0.000000,0.000000,-1,1.076319,-0.463089,-0.561134,-0.198477,0.043916,0.302411
"2019-04-05 12:10:39.141 +0000",1554466239.141176,-2.322931,-1.164919,1.964058,-0.288297,0.918756,0.269728,0.000000,0.000000,0.000000,-1,-1.739909,-2.119920,-0.400488,-0.486117,0.994513,0.211717
"2019-04-05 12:10:39.161 +0000",1554466239.161258,-2.423592,-1.149954,1.883141,-0.268749,0.912745,0.307656,0.000000,0.000000,0.000000,-1,-1.170025,-0.318273,1.147232,-0.322362,1.387197,0.861976
"2019-04-05 12:10:39.181 +0000",1554466239.181307,-2.444398,-1.162146,1.846540,-0.255125,0.917658,0.304625,0.000000,0.000000,0.000000,-1,0.493231,0.911938,0.981265,0.107023,-0.118616,0.565492
"2019-04-05 12:10:39.201 +0000",1554466239.201387,-2.435053,-1.181935,1.842297,-0.246121,0.925341,0.288357,0.000000,0.000000,0.000000,-1,0.700941,0.311123,0.335532,0.265316,-0.152453,-0.018978
"2019-04-05 12:10:39.221 +0000",1554466239.221437,-2.409738,-1.184636,1.878688,-0.251669,0.926362,0.280173,0.000000,0.000000,0.000000,-1,0.554520,-0.835887,-0.814955,0.343832,0.242232,-0.359320
"2019-04-05 12:10:39.241 +0000",1554466239.241485,-2.353579,-1.185083,1.961397,-0.266706,0.926530,0.265314,0.000000,0.000000,0.000000,-1,1.393959,-1.161793,-1.311656,-0.034060,0.567610,-0.370951
"2019-04-05 12:10:39.262 +0000",1554466239.261566,-2.277477,-1.182226,2.061102,-0.288117,0.925452,0.245987,0.000000,0.000000,0.000000,-1,0.979806,-0.305494,-1.114277,-0.390731,0.307504,-0.434250
"2019-04-05 12:10:39.282 +0000",1554466239.281615,-2.236809,-1.180790,2.102242,-0.298925,0.924907,0.234890,0.000000,0.000000,0.000000,-1,0.486371,0.154062,-0.306239,-0.447489,-0.323680,-0.261639
"2019-04-05 12:10:39.302 +0000",1554466239.301696,-2.197392,-1.190659,2.138671,-0.300540,0.928613,0.217565,0.000000,0.000000,0.000000,-1,1.113588,0.437421,0.087706,-0.218366,-0.529550,-0.207479
"2019-04-05 12:10:39.322 +0000",1554466239.321746,-2.114653,-1.205146,2.212370,-0.305948,0.933891,0.185002,0.000000,0.000000,0.000000,-1,1.684069,0.707200,-0.327426,-0.049460,-0.409645,-0.307392
"2019-04-05 12:10:39.342 +0000",1554466239.341825,-2.010215,-1.213220,2.317151,-0.316732,0.936748,0.148887,0.000000,0.000000,0.000000,-1,1.829570,0.065919,-0.559959,-0.141398,-0.147426,-0.377814
"2019-04-05 12:10:39.362 +0000",1554466239.361876,-1.911519,-1.213985,2.425902,-0.329186,0.937015,0.116713,0.000000,0.000000,0.000000,-1,1.713746,-0.292317,-0.728525,-0.200706,0.035214,-0.393523
"2019-04-05 12:10:39.382 +0000",1554466239.381957,-1.833170,-1.211485,2.518914,-0.339573,0.936139,0.091197,0.000000,0.000000,0.000000,-1,1.376800,-0.478222,-0.480992,-0.219158,0.062106,-0.415843
"2019-04-05 12:10:39.402 +0000",1554466239.402007,-1.776145,-1.209834,2.586443,-0.345732,0.935557,0.072011,0.000000,0.000000,0.000000,-1,0.926688,-0.157847,-0.294043,-0.146943,0.017415,-0.306645
"2019-04-05 12:10:39.422 +0000",1554466239.422056,-1.742936,-1.206785,2.613832,-0.350743,0.934476,0.060980,0.000000,0.000000,0.000000,-1,0.122521,0.778525,-0.203087,-0.126582,-0.099485,-0.065573
"2019-04-05 12:10:39.442 +0000",1554466239.442136,-1.724352,-1.201611,2.608337,-0.356589,0.932622,0.055191,0.000000,0.000000,0.000000,-1,-0.109958,1.165792,-0.260388,-0.213998,-0.138737,0.174439
"2019-04-05 12:10:39.462 +0000",1554466239.462186,-1.686623,-1.203126,2.643429,-0.357014,0.933167,0.041537,0.000000,0.000000,0.000000,-1,1.180969,-0.439986,0.290429,-0.346462,-0.175065,0.170636
"2019-04-05 12:10:39.482 +0000",1554466239.482265,-1.600015,-1.220660,2.758788,-0.342858,0.939326,0.010021,0.000000,0.000000,0.000000,-1,2.509800,-1.124889,0.845958,-0.065040,-0.141948,0.150715
"2019-04-05 12:10:39.502 +0000",1554466239.502316,-1.457297,-1.234887,2.922028,-0.327486,0.944111,-0.037330,0.000000,0.000000,0.000000,-1,2.553019,-0.051936,0.789169,0.239626,-0.196369,-0.044106
"2019-04-05 12:10:39.522 +0000",1554466239.522416,-1.346594,-1.239432,3.030545,-0.317171,0.945599,-0.072327,0.000000,0.000000,0.000000,-1,1.181647,0.373519,0.271622,0.352282,-0.203686,-0.348404
"2019-04-05 12:10:39.542 +0000",1554466239.542465,-1.313537,-1.230110,3.078253,-0.323119,0.942525,-0.085009,0.000000,0.000000,0.000000,-1,0.825091,-1.162630,-0.511690,0.334945,-0.043706,-0.044874
"2019-04-05 12:10:39.563 +0000",1554466239.562545,-1.288025,-1.213086,3.126795,-0.336208,0.936701,-0.097688,0.000000,0.000000,0.000000,-1,1.201158,-0.733284,-0.568308,0.180858,-0.008433,0.429383
"2019-04-05 12:10:39.583 +0000",1554466239.582594,-1.233824,-1.195352,-3.088047,-0.346047,0.930345,-0.121232,0.000000,0.000000,0.000000,-1,1.466226,-0.413439,-0.412959,0.155297,0.046233,0.292771
"2019-04-05 12:10:39.603 +0000",1554466239.602674,-1.188192,-1.178484,-3.031866,-0.354667,0.924028,-0.142731,0.000000,0.000000,0.000000,-1,1.093199,-0.284471,-0.477815,0.311866,0.045531,-0.006867
"2019-04-05 12:10:39.623 +0000",1554466239.622724,-1.182404,-1.160776,-3.016689,-0.368923,0.917113,-0.150955,0.000000,0.000000,0.000000,-1,0.302793,-0.552848,-0.757399,0.353451,0.040895,-0.112305
"2019-04-05 12:10:39.643 +0000",1554466239.642774,-1.202424,-1.149854,-3.026014,-0.381193,0.912704,-0.147138,0.000000,0.000000,0.000000,-1,-0.080151,-0.482449,-0.468843,0.326414,0.160797,0.199063
"2019-04-05 12:10:39.663 +0000",1554466239.662854,-1.214579,-1.142955,-3.037049,-0.388847,0.909864,-0.144686,0.000000,0.000000,0.000000,-1,-0.077304,0.144946,-0.431550,0.395423,0.221377,0.364779
"2019-04-05 12:10:39.683 +0000",1554466239.682904,-1.214266,-1.133633,-3.046219,-0.396733,0.905956,-0.147762,0.000000,0.000000,0.000000,-1,0.018487,0.531967,-0.493930,0.312398,0.185322,0.237209
"2019-04-05 12:10:39.703 +0000",1554466239.702985,-1.210646,-1.127115,-3.053004,-0.401714,0.903177,-0.151275,0.000000,0.000000,0.000000,-1,-0.095765,0.428837,-0.230837,0.312221,0.157766,0.103042
"2019-04-05 12:10:39.723 +0000",1554466239.723034,-1.213052,-1.130001,-3.063062,-0.399633,0.904413,-0.149395,0.000000,0.000000,0.000000,-1,-0.344487,0.273650,0.239058,0.334432,0.308035,0.172283
"2019-04-05 12:10:39.743 +0000",1554466239.743114,-1.221543,-1.142585,-3.075353,-0.390161,0.909710,-0.142090,0.000000,0.000000,0.000000,-1,-0.540890,0.066334,0.638459,0.271234,0.559330,0.085510
"2019-04-05 12:10:39.763 +0000",1554466239.763163,-1.242834,-1.163099,-3.098335,-0.375349,0.918036,-0.127712,0.000000,0.000000,0.000000,-1,-1.027089,-0.041831,0.889695,0.162290,0.555932,-0.125416
"2019-04-05 12:10:39.783 +0000",1554466239.783243,-1.303548,-1.192200,3.122284,-0.356479,0.929184,-0.097603,0.000000,0.000000,0.000000,-1,-1.843576,-0.317760,1.115909,0.067676,0.371459,-0.157295
"2019-04-05 12:10:39.803 +0000",1554466239.803292,-1.413954,-1.225501,3.017804,-0.334301,0.940975,-0.052867,0.000000,0.000000,0.000000,-1,-2.335871,-0.786383,1.248344,-0.089665,0.166919,0.041560
"2019-04-05 12:10:39.823 +0000",1554466239.823373,-1.582064,-1.251662,2.856179,-0.313702,0.949507,0.003535,0.000000,0.000000,0.000000,-1,-2.949581,-0.639108,0.987146,-0.329883,0.053529,0.260152
"2019-04-05 12:10:39.843 +0000",1554466239.843422,-1.774120,-1.255697,2.668123,-0.303503,0.950766,0.062574,0.000000,0.000000,0.000000,-1,-2.600014,-0.872020,0.052097,-0.583155,0.425257,0.231478
"2019-04-05 12:10:39.863 +0000",1554466239.863472,-1.889108,-1.227562,2.584130,-0.319606,0.941671,0.105316,0.000000,0.000000,0.000000,-1,-1.184485,-2.326359,-1.507426,-0.632085,0.358286,-0.030334
"2019-04-05 12:10:39.884 +0000",1554466239.883553,-1.982042,-1.203338,2.551437,-0.329271,0.933243,0.143600,0.000000,0.000000,0.000000,-1,-0.951920,-3.330721,-0.162884,-0.820570,-0.270295,-0.094695
"2019-04-05 12:10:39.904 +0000",1554466239.903603,-2.115770,-1.209486,2.465957,-0.302272,0.935434,0.183241,0.000000,0.000000,0.000000,-1,-1.362243,-2.172758,1.381898,-0.332387,-0.263392,0.076601
"2019-04-05 12:10:39.924 +0000",1554466239.923682,-2.248929,-1.213936,2.350511,-0.272022,0.936998,0.219135,0.000000,0.000000,0.000000,-1,-1.592998,-0.717807,1.198696,-0.133770,0.029646,0.095593
"2019-04-05 12:10:39.944 +0000",1554466239.943733,-2.341462,-1.204708,2.251973,-0.256803,0.933735,0.249346,0.000000,0.000000,0.000000,-1,-1.565207,0.328709,0.596758,-0.172579,0.303875,0.050810
"2019-04-05 12:10:39.964 +0000",1554466239.963813,-2.400435,-1.192427,2.176395,-0.249384,0.929268,0.272487,0.000000,0.000000,0.000000,-1,-1.290418,0.587959,0.652956,-0.052419,0.204277,-0.129467
"2019-04-05 12:10:39.984 +0000",1554466239.983862,-2.469036,-1.188628,2.093478,-0.232317,0.927858,0.291700,0.000000,0.000000,0.000000,-1,-1.053294,0.301553,1.343937,0.105898,-0.068804,-0.311140
"2019-04-05 12:10:40.004 +0000",1554466240.003942,-2.562324,-1.194155,1.984154,-0.201324,0.929905,0.307776,0.000000,0.000000,0.000000,-1,-0.921927,0.595854,1.988286,0.150603,-0.228199,-0.341940
"2019-04-05 12:10:40.024 +0000",1554466240.023992,-2.653964,-1.199888,1.862934,-0.169813,0.931998,0.320192,0.000000,0.000000,0.000000,-1,-0.854082,1.338058,1.983028,0.212858,-0.331535,-0.374865
"2019-04-05 12:10:40.044 +0000",1554466240.044071,-2.712579,-1.199605,1.762939,-0.150873,0.931896,0.329829,0.000000,0.000000,0.000000,-1,-0.807910,1.941133,1.339808,0.261164,-0.449733,-0.416423
"2019-04-05 12:10:40.064 +0000",1554466240.064121,-2.723680,-1.189737,1.703665,-0.150928,0.928271,0.339873,0.000000,0.000000,0.000000,-1,-0.991619,2.319003,0.472110,0.309116,-0.644152,-0.356810
"2019-04-05 12:10:40.084 +0000",1554466240.084170,-2.698117,-1.169780,1.677660,-0.167482,0.920665,0.352570,0.000000,0.000000,0.000000,-1,-1.133841,2.530902,-0.227756,0.284883,-0.768474,-0.223770
"2019-04-05 12:10:40.104 +0000",1554466240.104251,-2.636448,-1.146037,1.686991,-0.199418,0.911138,0.360609,0.000000,0.000000,0.000000,-1,-0.803923,2.773287,-0.935136,0.135041,-0.701543,-0.012083
"2019-04-05 12:10:40.124 +0000",1554466240.124301,-2.543297,-1.131532,1.727553,-0.239515,0.905065,0.351382,0.000000,0.000000,0.000000,-1,0.342073,2.639553,-1.136272,-0.029650,-0.564885,0.246960
"2019-04-05 12:10:40.144 +0000",1554466240.144380,-2.442905,-1.141849,1.806904,-0.267506,0.909404,0.318442,0.000000,0.000000,0.000000,-1,2.004372,0.586932,-0.838441,-0.123058,-0.541591,0.367014
"2019-04-05 12:10:40.164 +0000",1554466240.164430,-2.347577,-1.167076,1.913123,-0.280148,0.919606,0.275361,0.000000,0.000000,0.000000,-1,2.390610,-0.353416,-0.788882,-0.103824,-0.193105,0.406936
"2019-04-05 12:10:40.185 +0000",1554466240.184510,-2.290237,-1.165090,2.002608,-0.296841,0.918824,0.260057,0.000000,0.000000,0.000000,-1,0.048212,-1.908350,-1.295761,-0.414935,0.819900,0.164382
"2019-04-05 12:10:40.205 +0000",1554466240.204559,-2.381142,-1.142751,1.942338,-0.286087,0.909779,0.300729,0.000000,0.000000,0.000000,-1,-2.114964,-0.885376,1.003796,-0.745026,1.707531,0.449424
"2019-04-05 12:10:40.225 +0000",1554466240.224641,-2.454449,-1.142164,1.855134,-0.263630,0.909535,0.321287,0.000000,0.000000,0.000000,-1,-0.457757,0.790280,1.335853,-0.148281,0.331630,0.887057
"2019-04-05 12:10:40.245 +0000",1554466240.244689,-2.463970,-1.160411,1.818351,-0.250111,0.916967,0.310798,0.000000,0.000000,0.000000,-1,0.438775,1.327805,0.868204,0.199803,-0.365301,0.369408
"2019-04-05 12:10:40.265 +0000",1554466240.264769,-2.436239,-1.163934,1.830025,-0.256537,0.918367,0.301283,0.000000,0.000000,0.000000,-1,0.097473,0.501104,-0.601718,0.395682,0.088743,-0.217024
"2019-04-05 12:10:40.285 +0000",1554466240.284818,-2.395700,-1.148580,1.874492,-0.278075,0.912183,0.300961,0.000000,0.000000,0.000000,-1,0.238342,-0.422898,-1.390524,0.211501,0.266131,-0.240232
"2019-04-05 12:10:40.305 +0000",1554466240.304868,-2.341536,-1.145960,1.951598,-0.295675,0.911106,0.287131,0.000000,0.000000,0.000000,-1,1.364730,-0.761986,-1.064930,-0.260371,0.130840,-0.288031
"2019-04-05 12:10:40.325 +0000",1554466240.324949,-2.275983,-1.152966,2.032535,-0.308980,0.913971,0.263002,0.000000,0.000000,0.000000,-1,1.423845,-0.258059,-0.746905,-0.373652,-0.179627,-0.313814
"2019-04-05 12:10:40.345 +0000",1554466240.344998,-2.211099,-1.162151,2.108715,-0.318636,0.917660,0.237389,0.000000,0.000000,0.000000,-1,1.553552,-0.203996,-0.454334,-0.329725,-0.277752,-0.380455
"2019-04-05 12:10:40.365 +0000",1554466240.365079,-2.139687,-1.178604,2.187177,-0.321997,0.924073,0.205886,0.000000,0.000000,0.000000,-1,1.803483,0.030724,-0.041432,-0.319314,-0.128099,-0.366073
"2019-04-05 12:10:40.385 +0000",1554466240.385128,-2.063628,-1.199512,2.267587,-0.319617,0.931862,0.171644,0.000000,0.000000,0.000000,-1,1.782924,0.068949,0.248293,-0.206277,-0.105370,-0.411223
"2019-04-05 12:10:40.405 +0000",1554466240.405208,-1.987202,-1.217910,2.347352,-0.316055,0.938379,0.139781,0.000000,0.000000,0.000000,-1,1.570929,0.157406,0.106304,-0.066620,-0.092172,-0.383586
"2019-04-05 12:10:40.425 +0000",1554466240.425258,-1.907217,-1.224582,2.426325,-0.320295,0.940664,0.112012,0.000000,0.000000,0.000000,-1,1.261132,0.327891,-0.327034,-0.007448,-0.019796,-0.370435
