timestamp,timeIntervalSince1970,attitude.roll,attitude.pitch,attitude.yaw,gravity.x,gravity.y,gravity.z,magneticField.x,magneticField.y,magneticField.z,magneticField.accuracy,rotationRate.x,rotationRate.y,rotationRate.z,userAcceleration.x,userAcceleration.y,userAcceleration.z
"2019-05-06 15:53:40.841 +0000",1557158020.840722,0.144713,0.285431,-0.020460,0.138374,-0.281571,-0.949511,0.000000,0.000000,0.000000,-1,-0.066767,0.082172,0.057292,0.008950,0.024567,-0.005552
"2019-05-06 15:53:40.861 +0000",1557158020.860730,0.145751,0.279842,-0.019043,0.139586,-0.276204,-0.950909,0.000000,0.000000,0.000000,-1,-0.136028,0.099128,0.033883,-0.003401,0.027058,0.001949
"2019-05-06 15:53:40.881 +0000",1557158020.880749,0.146721,0.273930,-0.017045,0.140744,-0.270517,-0.952372,0.000000,0.000000,0.000000,-1,-0.268071,0.172935,0.047762,-0.010922,0.009683,0.023279
"2019-05-06 15:53:40.901 +0000",1557158020.900750,0.148354,0.268038,-0.015169,0.142533,-0.264840,-0.953700,0.000000,0.000000,0.000000,-1,-0.290774,0.043048,0.036659,0.002700,0.017160,0.011745
"2019-05-06 15:53:40.921 +0000",1557158020.920765,0.147268,0.264099,-0.014666,0.141648,-0.261040,-0.954879,0.000000,0.000000,0.000000,-1,-0.128020,-0.097141,-0.016504,0.006011,0.033623,-0.001817
"2019-05-06 15:53:40.941 +0000",1557158020.940772,0.147617,0.256355,-0.014783,0.142275,-0.253557,-0.956800,0.000000,0.000000,0.000000,-1,0.030124,0.050877,0.029399,0.018797,0.068406,-0.048800
"2019-05-06 15:53:40.961 +0000",1557158020.960777,0.151103,0.256495,-0.012989,0.145604,-0.253692,-0.956263,0.000000,0.000000,0.000000,-1,-0.055579,0.289135,0.119297,-0.016301,0.061477,-0.065526
"2019-05-06 15:53:40.981 +0000",1557158020.980786,0.158112,0.252196,-0.008842,0.152473,-0.249531,-0.956288,0.000000,0.000000,0.000000,-1,-0.382571,0.404311,0.196473,-0.017830,0.056141,0.020741
"2019-05-06 15:53:41.001 +0000",1557158021.000768,0.151004,0.239439,-0.000148,0.146139,-0.237158,-0.960416,0.000000,0.000000,0.000000,-1,-0.681943,-0.500612,0.344370,0.016550,0.002233,0.029615
"2019-05-06 15:53:41.021 +0000",1557158021.020798,0.122258,0.223204,0.007983,0.118929,-0.221355,-0.967914,0.000000,0.000000,0.000000,-1,-0.981686,-1.882437,0.223213,0.029463,0.010860,0.049472
"2019-05-06 15:53:41.041 +0000",1557158021.040806,0.070051,0.200113,0.015108,0.068597,-0.198781,-0.977640,0.000000,0.000000,0.000000,-1,-1.241624,-2.769875,0.304732,-0.065652,0.002186,0.104746
"2019-05-06 15:53:41.061 +0000",1557158021.060809,0.012418,0.177824,0.030037,0.012222,-0.176888,-0.984155,0.000000,0.000000,0.000000,-1,-1.015436,-2.697377,0.999983,-0.209915,0.073861,0.100778
"2019-05-06 15:53:41.081 +0000",1557158021.080797,-0.046193,0.166726,0.061765,-0.045536,-0.165955,-0.985081,0.000000,0.000000,0.000000,-1,-0.154615,-2.645161,1.835740,-0.165416,0.133789,0.037007
"2019-05-06 15:53:41.101 +0000",1557158021.100801,-0.102806,0.172486,0.098868,-0.101102,-0.171632,-0.979960,0.000000,0.000000,0.000000,-1,0.677355,-2.390205,1.598680,0.023420,0.215012,0.065272
"2019-05-06 15:53:41.121 +0000",1557158021.120806,-0.148658,0.182960,0.121215,-0.145639,-0.181940,-0.972464,0.000000,0.000000,0.000000,-1,0.513953,-1.938498,0.737554,-0.021719,0.257304,-0.001443
"2019-05-06 15:53:41.141 +0000",1557158021.140838,-0.192858,0.182926,0.142266,-0.188467,-0.181908,-0.965085,0.000000,0.000000,0.000000,-1,0.037546,-2.262916,1.400050,-0.086695,0.092095,-0.038943
"2019-05-06 15:53:41.161 +0000",1557158021.160841,-0.261854,0.179883,0.186790,-0.254695,-0.178914,-0.950326,0.000000,0.000000,0.000000,-1,0.698666,-3.511080,2.580620,-0.052632,0.122380,0.017816
"2019-05-06 15:53:41.181 +0000",1557158021.180833,-0.359378,0.193047,0.252095,-0.345159,-0.191850,-0.918727,0.000000,0.000000,0.000000,-1,2.168934,-4.719697,2.840757,0.194097,0.357515,0.057185
"2019-05-06 15:53:41.201 +0000",1557158021.200828,-0.486576,0.222517,0.329919,-0.456073,-0.220685,-0.862146,0.000000,0.000000,0.000000,-1,3.261124,-6.134757,3.015218,0.267460,0.281934,0.085061
"2019-05-06 15:53:41.221 +0000",1557158021.220866,-0.652057,0.244802,0.434810,-0.588730,-0.242364,-0.771140,0.000000,0.000000,0.000000,-1,3.913321,-7.526969,4.149480,0.399887,0.239511,0.088675
"2019-05-06 15:53:41.241 +0000",1557158021.240871,-0.841452,0.241941,0.563913,-0.723895,-0.239588,-0.646973,0.000000,0.000000,0.000000,-1,4.266690,-7.863628,4.942347,0.289127,0.473993,0.211899
"2019-05-06 15:53:41.261 +0000",1557158021.260879,-1.017781,0.209052,0.697516,-0.832418,-0.207533,-0.513820,0.000000,0.000000,0.000000,-1,4.154416,-6.839480,5.333072,0.085912,0.265883,0.070186
"2019-05-06 15:53:41.281 +0000",1557158021.280886,-1.153138,0.148045,0.815746,-0.904043,-0.147505,-0.401184,0.000000,0.000000,0.000000,-1,3.466639,-4.987922,5.396935,0.020681,0.257261,0.048950
"2019-05-06 15:53:41.301 +0000",1557158021.300890,-1.241854,0.072873,0.911622,-0.943873,-0.072808,-0.322185,0.000000,0.000000,0.000000,-1,2.893172,-3.263300,5.076707,-0.084173,0.141046,0.060711
"2019-05-06 15:53:41.321 +0000",1557158021.320899,-1.287378,-0.003352,0.987148,-0.960100,0.003352,-0.279638,0.000000,0.000000,0.000000,-1,2.141489,-1.452960,4.532323,-0.423628,-0.114711,-0.056086
"2019-05-06 15:53:41.341 +0000",1557158021.340907,-1.294979,-0.069200,1.039314,-0.959900,0.069145,-0.271681,0.000000,0.000000,0.000000,-1,1.345539,-0.005742,3.450492,-0.569488,-0.298240,-0.121599
"2019-05-06 15:53:41.361 +0000",1557158021.360913,-1.284623,-0.117351,1.077651,-0.952733,0.117082,-0.280342,0.000000,0.000000,0.000000,-1,1.124468,0.450839,2.523291,-0.491267,-0.315004,-0.134545
"2019-05-06 15:53:41.381 +0000",1557158021.380902,-1.270305,-0.152182,1.114841,-0.944152,0.151596,-0.292569,0.000000,0.000000,0.000000,-1,1.378740,0.496418,2.059064,-0.399934,-0.317855,-0.132556
"2019-05-06 15:53:41.401 +0000",1557158021.400929,-1.252553,-0.180156,1.156095,-0.934415,0.179183,-0.307834,0.000000,0.000000,0.000000,-1,1.568504,0.549380,1.948376,-0.260531,-0.415160,0.014118
"2019-05-06 15:53:41.421 +0000",1557158021.420933,-1.239536,-0.206481,1.196304,-0.925547,0.205017,-0.318327,0.000000,0.000000,0.000000,-1,1.297503,0.040815,1.902229,-0.043814,-0.292846,0.214704
"2019-05-06 15:53:41.441 +0000",1557158021.440925,-1.262329,-0.238163,1.221248,-0.925905,0.235918,-0.295029,0.000000,0.000000,0.000000,-1,0.052230,-2.660400,1.843831,-0.132704,-0.154299,0.810150
"2019-05-06 15:53:41.461 +0000",1557158021.460949,-1.300947,-0.274407,1.233552,-0.927751,0.270976,-0.256612,0.000000,0.000000,0.000000,-1,0.253345,-1.503034,1.953432,-0.028456,-0.099926,0.437139
"2019-05-06 15:53:41.481 +0000",1557158021.480935,-1.321287,-0.296591,1.255535,-0.926724,0.292262,-0.236147,0.000000,0.000000,0.000000,-1,0.957572,-1.308320,1.234360,-0.656482,-0.268122,-0.181028
"2019-05-06 15:53:41.501 +0000",1557158021.500953,-1.334179,-0.322688,1.280291,-0.921961,0.317117,-0.222316,0.000000,0.000000,0.000000,-1,0.679973,-0.814390,1.685542,0.184290,-0.185831,0.225536
"2019-05-06 15:53:41.521 +0000",1557158021.520969,-1.343404,-0.358052,1.303074,-0.912472,0.350450,-0.211140,0.000000,0.000000,0.000000,-1,0.684534,-0.968215,2.120778,0.037731,-0.233644,0.089955
"2019-05-06 15:53:41.541 +0000",1557158021.540974,-1.357064,-0.400703,1.325660,-0.899836,0.390065,-0.195307,0.000000,0.000000,0.000000,-1,0.413923,-1.075598,2.446522,-0.121481,-0.215902,-0.018957
"2019-05-06 15:53:41.561 +0000",1557158021.560977,-1.375354,-0.446500,1.337017,-0.884792,0.431811,-0.175162,0.000000,0.000000,0.000000,-1,-0.150485,-1.125656,2.310428,-0.052067,0.057355,0.123404
"2019-05-06 15:53:41.581 +0000",1557158021.581063,-1.393145,-0.493468,1.334945,-0.866834,0.473683,-0.155635,0.000000,0.000000,0.000000,-1,-0.760160,-0.531695,2.307149,0.080381,0.138896,0.230540
"2019-05-06 15:53:41.601 +0000",1557158021.600995,-1.405409,-0.543671,1.318765,-0.844138,0.517281,-0.140896,0.000000,0.000000,0.000000,-1,-1.224982,-0.054541,2.368094,0.109992,0.027030,0.275159
"2019-05-06 15:53:41.621 +0000",1557158021.620975,-1.412352,-0.594854,1.282831,-0.817856,0.560388,-0.130680,0.000000,0.000000,0.000000,-1,-2.163258,0.827770,2.531971,0.437164,0.248694,-0.106792
"2019-05-06 15:53:41.641 +0000",1557158021.641012,-1.423533,-0.651132,1.260033,-0.786789,0.606088,-0.116710,0.000000,0.000000,0.000000,-1,-1.013778,-0.265734,2.737941,0.093948,0.127845,0.072825
"2019-05-06 15:53:41.661 +0000",1557158021.661015,-1.441803,-0.708347,1.253515,-0.753129,0.650579,-0.097691,0.000000,0.000000,0.000000,-1,-0.638015,-0.833049,2.440594,-0.150787,-0.333197,0.015065
"2019-05-06 15:53:41.681 +0000",1557158021.681024,-1.466220,-0.753258,1.230012,-0.725479,0.684019,-0.076146,0.000000,0.000000,0.000000,-1,-0.982572,-0.612483,2.015518,0.099044,-0.139677,0.029667
"2019-05-06 15:53:41.701 +0000",1557158021.701008,-1.497343,-0.803347,1.218756,-0.692430,0.719684,-0.050953,0.000000,0.000000,0.000000,-1,-0.514944,-1.238163,2.637498,-0.002028,-0.049289,0.252018
"2019-05-06 15:53:41.721 +0000",1557158021.721009,-1.525081,-0.857184,1.209114,-0.653885,0.756002,-0.029913,0.000000,0.000000,0.000000,-1,-0.448896,-0.786099,2.624622,0.133606,-0.047842,0.405615
"2019-05-06 15:53:41.741 +0000",1557158021.741015,-1.535762,-0.912234,1.197265,-0.611605,0.790873,-0.021436,0.000000,0.000000,0.000000,-1,-0.538204,0.214191,2.717506,0.143526,0.009329,0.198590
"2019-05-06 15:53:41.761 +0000",1557158021.761045,-1.546199,-0.964840,1.173474,-0.569376,0.821958,-0.014008,0.000000,0.000000,0.000000,-1,-0.899884,0.661119,2.626715,0.129938,-0.218961,0.185471
"2019-05-06 15:53:41.781 +0000",1557158021.781037,-1.560307,-1.011653,1.143566,-0.530431,0.847710,-0.005564,0.000000,0.000000,0.000000,-1,-0.698878,0.317572,2.070414,0.143102,-0.227593,-0.032949
"2019-05-06 15:53:41.801 +0000",1557158021.801035,-1.573618,-1.049279,1.114749,-0.498194,0.867064,0.001406,0.000000,0.000000,0.000000,-1,-0.836278,0.623413,1.709566,-0.103384,-0.066924,0.147474
"2019-05-06 15:53:41.821 +0000",1557158021.821071,-1.581279,-1.082620,1.089758,-0.468990,0.883190,0.004916,0.000000,0.000000,0.000000,-1,-0.459659,0.737287,1.671808,-0.034290,-0.135478,0.197675
"2019-05-06 15:53:41.841 +0000",1557158021.841078,-1.569677,-1.116050,1.082634,-0.439234,0.898373,-0.000491,0.000000,0.000000,0.000000,-1,-0.029061,1.081745,1.730038,0.081537,-0.153667,0.320316
"2019-05-06 15:53:41.861 +0000",1557158021.861085,-1.551232,-1.146808,1.076240,-0.411321,0.911455,-0.008048,0.000000,0.000000,0.000000,-1,-0.056413,1.337549,1.392581,-0.147609,-0.197313,0.165717
"2019-05-06 15:53:41.881 +0000",1557158021.881096,-1.528124,-1.169124,1.074244,-0.390602,0.920408,-0.016678,0.000000,0.000000,0.000000,-1,-0.089440,1.159435,0.963179,-0.242744,0.271852,0.076248
"2019-05-06 15:53:41.901 +0000",1557158021.901068,-1.511800,-1.182067,1.070931,-0.378354,0.925391,-0.022347,0.000000,0.000000,0.000000,-1,0.013372,0.751476,0.443716,-0.134143,1.064401,0.004846
"2019-05-06 15:53:41.921 +0000",1557158021.921108,-1.502474,-1.184436,1.062680,-0.375940,0.926287,-0.025725,0.000000,0.000000,0.000000,-1,-0.274925,0.851765,0.029718,-0.100790,0.545362,0.065566
"2019-05-06 15:53:41.941 +0000",1557158021.941085,-1.493395,-1.177892,1.058039,-0.381727,0.923801,-0.029605,0.000000,0.000000,0.000000,-1,0.046100,0.702533,-0.425258,0.082105,0.131802,0.086872
"2019-05-06 15:53:41.961 +0000",1557158021.961121,-1.495294,-1.164978,1.047595,-0.393647,0.918779,-0.029778,0.000000,0.000000,0.000000,-1,-0.284143,0.148693,-0.804178,0.059677,0.220350,-0.208412
"2019-05-06 15:53:41.981 +0000",1557158021.981113,-1.533449,-1.159954,1.016699,-0.399103,0.916785,-0.014912,0.000000,0.000000,0.000000,-1,-0.759629,-0.920126,0.176638,0.020716,-0.279639,-0.316997
"2019-05-06 15:53:42.001 +0000",1557158022.001137,-1.583358,-1.171250,0.985185,-0.388970,0.921237,0.004886,0.000000,0.000000,0.000000,-1,-0.329034,-0.855150,0.660005,-0.123344,0.043988,0.317547
"2019-05-06 15:53:42.021 +0000",1557158022.021110,-1.575671,-1.184117,0.992912,-0.377110,0.926167,0.001838,0.000000,0.000000,0.000000,-1,0.214975,0.215901,0.585490,-0.091746,-0.136036,-0.148842
"2019-05-06 15:53:42.041 +0000",1557158022.041130,-1.565859,-1.193852,1.002430,-0.368076,0.929794,-0.001817,0.000000,0.000000,0.000000,-1,0.230388,0.057082,0.434551,0.081531,-0.005264,-0.108305
"2019-05-06 15:53:42.061 +0000",1557158022.061158,-1.546742,-1.200181,1.021790,-0.362084,0.932105,-0.008711,0.000000,0.000000,0.000000,-1,0.344202,0.037386,0.272063,0.117318,-0.006522,-0.123277
"2019-05-06 15:53:42.081 +0000",1557158022.081133,-1.530226,-1.204459,1.040068,-0.357903,0.933646,-0.014528,0.000000,0.000000,0.000000,-1,0.343837,-0.072896,0.193550,0.100030,-0.029669,-0.060881
"2019-05-06 15:53:42.101 +0000",1557158022.101154,-1.511355,-1.205649,1.060734,-0.356456,0.934071,-0.021213,0.000000,0.000000,0.000000,-1,0.349278,0.108424,-0.009076,0.032436,0.094020,-0.206143
"2019-05-06 15:53:42.121 +0000",1557158022.121173,-1.500381,-1.199257,1.068522,-0.362150,0.931770,-0.025543,0.000000,0.000000,0.000000,-1,0.070864,0.429890,-0.568234,0.038130,0.096322,-0.201813
"2019-05-06 15:53:42.141 +0000",1557158022.141182,-1.482818,-1.185197,1.073197,-0.374659,0.926573,-0.033047,0.000000,0.000000,0.000000,-1,0.207574,0.580054,-0.649331,-0.088292,-0.074935,-0.095707
"2019-05-06 15:53:42.161 +0000",1557158022.161191,-1.456590,-1.175221,1.088519,-0.382829,0.922775,-0.043913,0.000000,0.000000,0.000000,-1,0.378583,0.584060,-0.388189,-0.095946,-0.036972,-0.023440
"2019-05-06 15:53:42.181 +0000",1557158022.181199,-1.429382,-1.168541,1.104020,-0.387586,0.920180,-0.055179,0.000000,0.000000,0.000000,-1,0.351379,0.722593,-0.247807,-0.087145,0.032029,0.032367
"2019-05-06 15:53:42.201 +0000",1557158022.201176,-1.402226,-1.163471,1.118285,-0.390540,0.918184,-0.066464,0.000000,0.000000,0.000000,-1,0.257445,0.635031,-0.178845,-0.042535,-0.039949,-0.045291
"2019-05-06 15:53:42.221 +0000",1557158022.221211,-1.385110,-1.161109,1.125076,-0.391476,0.917245,-0.073539,0.000000,0.000000,0.000000,-1,0.127190,0.475729,-0.044338,-0.046940,-0.106332,-0.033273
"2019-05-06 15:53:42.241 +0000",1557158022.241221,-1.366355,-1.160371,1.136197,-0.390690,0.916951,-0.081005,0.000000,0.000000,0.000000,-1,0.267888,0.416287,0.006826,-0.045696,-0.058339,0.002041
"2019-05-06 15:53:42.261 +0000",1557158022.261226,-1.347908,-1.159813,1.149109,-0.389628,0.916729,-0.088311,0.000000,0.000000,0.000000,-1,0.284761,0.284908,0.079979,-0.147833,-0.105373,-0.025443
"2019-05-06 15:53:42.281 +0000",1557158022.281234,-1.322900,-1.157838,1.166837,-0.389053,0.915937,-0.098470,0.000000,0.000000,0.000000,-1,0.392589,0.468234,-0.113303,0.047012,-0.039000,-0.023905
"2019-05-06 15:53:42.301 +0000",1557158022.301241,-1.302547,-1.153185,1.177960,-0.391073,0.914060,-0.107496,0.000000,0.000000,0.000000,-1,0.254027,0.523487,-0.155913,-0.000300,-0.030104,-0.013964
"2019-05-06 15:53:42.321 +0000",1557158022.321246,-1.282916,-1.149288,1.188790,-0.392300,0.912473,-0.116162,0.000000,0.000000,0.000000,-1,0.303005,0.475699,-0.132331,-0.003711,-0.113141,-0.036792
"2019-05-06 15:53:42.341 +0000",1557158022.341223,-1.267256,-1.147851,1.197996,-0.391684,0.911884,-0.122683,0.000000,0.000000,0.000000,-1,0.091828,0.298318,0.110298,-0.050134,-0.214862,0.000186
"2019-05-06 15:53:42.361 +0000",1557158022.361248,-1.260317,-1.160334,1.200013,-0.379955,0.916936,-0.121911,0.000000,0.000000,0.000000,-1,-0.244140,0.176439,0.970124,-0.283635,-0.383031,0.010522
"2019-05-06 15:53:42.381 +0000",1557158022.381241,-1.228289,-1.192992,1.233061,-0.347454,0.929477,-0.123888,0.000000,0.000000,0.000000,-1,0.280213,0.177485,2.219089,-0.133304,-0.419131,0.052004
"2019-05-06 15:53:42.401 +0000",1557158022.401274,-1.140715,-1.239885,1.321322,-0.295317,0.945747,-0.135467,0.000000,0.000000,0.000000,-1,0.637665,0.254521,2.978053,-0.070940,-0.430869,0.043472
"2019-05-06 15:53:42.421 +0000",1557158022.421254,-1.012497,-1.289419,1.453791,-0.235516,0.960674,-0.147099,0.000000,0.000000,0.000000,-1,0.541035,-0.155620,3.158447,-0.063846,-0.374294,0.005742
"2019-05-06 15:53:42.441 +0000",1557158022.441268,-0.869446,-1.336600,1.615277,-0.177289,0.972701,-0.149738,0.000000,0.000000,0.000000,-1,-0.058131,-0.945439,3.001211,0.373562,-0.168761,-0.067349
"2019-05-06 15:53:42.461 +0000",1557158022.461295,-0.718468,-1.384916,1.788563,-0.121649,0.982774,-0.139129,0.000000,0.000000,0.000000,-1,-0.435355,-0.821355,2.987718,0.125860,-0.332673,0.162521
"2019-05-06 15:53:42.481 +0000",1557158022.481303,-0.445707,-1.427824,2.076919,-0.061425,0.989797,-0.128566,0.000000,0.000000,0.000000,-1,-0.487745,-0.610076,3.292263,0.107857,-0.053701,0.088862
"2019-05-06 15:53:42.501 +0000",1557158022.501291,0.051306,-1.454035,2.590562,0.005974,0.993191,-0.116344,0.000000,0.000000,0.000000,-1,-0.490646,-0.626207,3.524045,-0.023919,0.225940,0.047237
"2019-05-06 15:53:42.521 +0000",1557158022.521316,0.577748,-1.439216,3.135649,0.071654,0.991356,-0.109906,0.000000,0.000000,0.000000,-1,-0.300617,-0.826784,3.258613,-0.151442,0.313347,0.062283
"2019-05-06 15:53:42.541 +0000",1557158022.541298,0.855882,-1.405498,-2.851898,0.124257,0.986369,-0.107869,0.000000,0.000000,0.000000,-1,-0.098742,-0.577060,2.383600,-0.138753,0.234929,0.185002
"2019-05-06 15:53:42.561 +0000",1557158022.561319,1.000435,-1.376571,-2.702880,0.162455,0.981198,-0.104211,0.000000,0.000000,0.000000,-1,-0.242935,0.108720,1.896137,-0.149942,0.066517,0.171487
"2019-05-06 15:53:42.581 +0000",1557158022.581307,1.130715,-1.338613,-2.573512,0.208178,0.973166,-0.098027,0.000000,0.000000,0.000000,-1,-0.259637,0.299641,2.569043,0.039518,0.337579,0.066105
"2019-05-06 15:53:42.601 +0000",1557158022.601345,1.230367,-1.284532,-2.469354,0.266166,0.959305,-0.094281,0.000000,0.000000,0.000000,-1,-0.220942,-0.195373,2.812474,-0.302680,0.629074,0.053998
"2019-05-06 15:53:42.621 +0000",1557158022.621349,1.278451,-1.241183,-2.403701,0.309943,0.946168,-0.093283,0.000000,0.000000,0.000000,-1,-0.280232,-1.048325,2.238831,-0.188941,0.449935,-0.059884
"2019-05-06 15:53:42.641 +0000",1557158022.641334,1.303626,-1.199273,-2.353276,0.350155,0.931776,-0.095842,0.000000,0.000000,0.000000,-1,-0.342171,-1.098101,2.253090,0.011326,0.202654,0.118303
"2019-05-06 15:53:42.661 +0000",1557158022.661367,1.330386,-1.155374,-2.303946,0.391970,0.914946,-0.096092,0.000000,0.000000,0.000000,-1,-0.374365,-0.849402,2.457052,0.063002,0.596574,0.108192
"2019-05-06 15:53:42.681 +0000",1557158022.681371,1.369002,-1.106545,-2.255367,0.438668,0.894157,-0.089742,0.000000,0.000000,0.000000,-1,-0.702621,0.436364,2.775605,0.171653,1.018837,0.194890
"2019-05-06 15:53:42.701 +0000",1557158022.701360,1.421723,-1.055966,-2.188273,0.486926,0.870376,-0.073130,0.000000,0.000000,0.000000,-1,-1.340330,-0.467723,2.688380,0.386823,0.646561,-0.239370
"2019-05-06 15:53:42.721 +0000",1557158022.721388,1.475655,-1.014104,-2.110179,0.525991,0.849008,-0.050195,0.000000,0.000000,0.000000,-1,-1.850557,-0.691079,1.958218,0.376566,0.382300,-0.193854
"2019-05-06 15:53:42.741 +0000",1557158022.741370,1.531845,-1.001447,-2.043470,0.538676,0.842252,-0.020993,0.000000,0.000000,0.000000,-1,-1.719897,0.345945,0.034557,0.486425,0.405566,0.096310
"2019-05-06 15:53:42.761 +0000",1557158022.761386,1.600083,-1.017051,-1.971078,0.525651,0.850561,0.015399,0.000000,0.000000,0.000000,-1,-1.924897,0.513211,-1.120940,0.345092,0.225565,0.087232
"2019-05-06 15:53:42.781 +0000",1557158022.781408,1.682310,-1.044341,-1.893630,0.499351,0.864594,0.055916,0.000000,0.000000,0.000000,-1,-1.870462,0.897927,-1.673743,0.402856,0.166000,0.079109
"2019-05-06 15:53:42.801 +0000",1557158022.801413,1.774832,-1.076186,-1.809054,0.464842,0.880154,0.096183,0.000000,0.000000,0.000000,-1,-1.699311,0.891440,-2.022215,0.377077,0.191486,-0.039039
"2019-05-06 15:53:42.821 +0000",1557158022.821405,1.863578,-1.105923,-1.730546,0.429232,0.893878,0.129390,0.000000,0.000000,0.000000,-1,-1.167675,1.304336,-1.525719,-0.267076,-0.049793,0.168813
"2019-05-06 15:53:42.841 +0000",1557158022.841428,1.961003,-1.129525,-1.674852,0.394985,0.904209,0.162456,0.000000,0.000000,0.000000,-1,-0.683474,2.322441,-1.582763,0.036915,0.248333,-0.051983
"2019-05-06 15:53:42.861 +0000",1557158022.861434,2.047971,-1.141600,-1.596031,0.369655,0.909301,0.191121,0.000000,0.000000,0.000000,-1,-1.571741,0.041869,-1.025759,-0.029842,-0.244124,-0.533528
"2019-05-06 15:53:42.881 +0000",1557158022.881411,2.125571,-1.136348,-1.500507,0.357782,0.907102,0.221715,0.000000,0.000000,0.000000,-1,-2.006421,-0.506405,-0.647438,0.004233,-0.174390,-0.025396
"2019-05-06 15:53:42.901 +0000",1557158022.901429,2.204998,-1.120012,-1.406319,0.350953,0.900106,0.258151,0.000000,0.000000,0.000000,-1,-2.116511,0.110651,-0.321085,0.053191,0.026362,0.123731
"2019-05-06 15:53:42.921 +0000",1557158022.921449,2.283329,-1.095434,-1.323741,0.346316,0.889127,0.299197,0.000000,0.000000,0.000000,-1,-2.077882,0.126650,-0.182452,0.166059,-0.084317,-0.188083
"2019-05-06 15:53:42.941 +0000",1557158022.941461,2.337395,-1.071317,-1.257810,0.344989,0.877832,0.332256,0.000000,0.000000,0.000000,-1,-1.876549,-0.456691,-0.151504,0.065839,-0.080408,-0.217219
"2019-05-06 15:53:42.961 +0000",1557158022.961452,2.374878,-1.051145,-1.202527,0.344512,0.867993,0.357632,0.000000,0.000000,0.000000,-1,-1.551632,-0.501140,-0.297327,-0.046614,-0.290707,-0.049435
"2019-05-06 15:53:42.981 +0000",1557158022.981476,2.411373,-1.035303,-1.155473,0.340364,0.860017,0.380162,0.000000,0.000000,0.000000,-1,-1.415606,-0.239545,-0.290303,-0.114458,-0.354707,-0.207936
"2019-05-06 15:53:43.001 +0000",1557158023.001483,2.442464,-1.015698,-1.113063,0.339169,0.849849,0.403388,0.000000,0.000000,0.000000,-1,-1.476431,-0.364696,-0.128364,-0.097622,-0.247325,-0.271247
"2019-05-06 15:53:43.021 +0000",1557158023.021476,2.459023,-0.993514,-1.077922,0.344252,0.837949,0.423476,0.000000,0.000000,0.000000,-1,-1.394889,-0.717917,0.028906,-0.091094,-0.260206,-0.224990
"2019-05-06 15:53:43.041 +0000",1557158023.041466,2.464033,-0.973086,-1.050471,0.352785,0.826626,0.438443,0.000000,0.000000,0.000000,-1,-1.200306,-0.970449,0.038096,-0.065737,-0.345288,-0.159161
"2019-05-06 15:53:43.061 +0000",1557158023.061473,2.462184,-0.956130,-1.030713,0.362351,0.816966,0.448630,0.000000,0.000000,0.000000,-1,-0.899343,-0.930715,0.150340,-0.057374,-0.299037,-0.176672
"2019-05-06 15:53:43.082 +0000",1557158023.081505,2.451415,-0.942754,-1.020430,0.374085,0.809179,0.453088,0.000000,0.000000,0.000000,-1,-0.568765,-0.954398,0.195529,-0.072770,-0.263662,-0.141031
"2019-05-06 15:53:43.102 +0000",1557158023.101517,2.432585,-0.935413,-1.018761,0.386407,0.804844,0.450461,0.000000,0.000000,0.000000,-1,-0.155237,-1.042553,0.187415,-0.054391,-0.110188,-0.052847
"2019-05-06 15:53:43.121 +0000",1557158023.121495,2.410057,-0.935554,-1.022630,0.396381,0.804928,0.441558,0.000000,0.000000,0.000000,-1,0.201013,-0.893533,0.022493,-0.055820,-0.123623,0.034532
"2019-05-06 15:53:43.142 +0000",1557158023.141533,2.390878,-0.940642,-1.028292,0.401977,0.807937,0.430875,0.000000,0.000000,0.000000,-1,0.334702,-0.660409,-0.065375,0.012238,-0.195601,0.117755
"2019-05-06 15:53:43.162 +0000",1557158023.161537,2.376782,-0.946257,-1.035211,0.404863,0.811233,0.421886,0.000000,0.000000,0.000000,-1,0.352643,-0.278287,-0.054327,0.005583,0.005677,0.220403
"2019-05-06 15:53:43.182 +0000",1557158023.181521,2.374026,-0.955072,-1.040800,0.401043,0.816355,0.415607,0.000000,0.000000,0.000000,-1,0.524210,0.316178,-0.317952,-0.026073,0.096334,0.256741
"2019-05-06 15:53:43.202 +0000",1557158023.201555,2.383831,-0.970007,-1.042123,0.388525,0.824890,0.410616,0.000000,0.000000,0.000000,-1,0.859255,0.453415,-0.370706,-0.067159,-0.057632,0.163588
"2019-05-06 15:53:43.222 +0000",1557158023.221559,2.391741,-0.980307,-1.051965,0.379454,0.830668,0.407437,0.000000,0.000000,0.000000,-1,0.170166,1.044411,0.010602,0.338839,0.055364,0.287631
"2019-05-06 15:53:43.242 +0000",1557158023.241538,2.402968,-0.977836,-1.059541,0.376236,0.829290,0.413188,0.000000,0.000000,0.000000,-1,0.376459,0.623647,0.263956,0.419815,0.498225,-0.382090
"2019-05-06 15:53:43.262 +0000",1557158023.261575,2.386807,-0.996002,-1.088352,0.372481,0.839304,0.396014,0.000000,0.000000,0.000000,-1,1.533344,0.331157,-0.072887,0.263765,1.010076,0.025221
"2019-05-06 15:53:43.282 +0000",1557158023.281580,2.349370,-1.017025,-1.133275,0.374396,0.850547,0.369320,0.000000,0.000000,0.000000,-1,1.579472,-0.227090,0.245549,0.025842,0.021233,0.069889
"2019-05-06 15:53:43.302 +0000",1557158023.301564,2.294818,-1.033240,-1.182686,0.383593,0.858963,0.339176,0.000000,0.000000,0.000000,-1,1.362946,-0.719483,0.236562,-0.277834,-0.385574,-0.304477
"2019-05-06 15:53:43.322 +0000",1557158023.321596,2.256097,-1.047275,-1.215588,0.387063,0.866064,0.316410,0.000000,0.000000,0.000000,-1,0.958133,-0.286748,-0.157285,-0.311028,-0.175665,-0.117863
"2019-05-06 15:53:43.342 +0000",1557158023.341601,2.230815,-1.066269,-1.242076,0.381872,0.875403,0.296384,0.000000,0.000000,0.000000,-1,1.005377,0.005905,-0.400014,0.015788,0.022073,-0.138318
"2019-05-06 15:53:43.362 +0000",1557158023.361592,2.202106,-1.084063,-1.272313,0.377587,0.883865,0.276062,0.000000,0.000000,0.000000,-1,1.197330,-0.146741,-0.158506,0.357094,0.165314,-0.022904
"2019-05-06 15:53:43.382 +0000",1557158023.381616,2.152073,-1.099081,-1.323509,0.379783,0.890790,0.249515,0.000000,0.000000,0.000000,-1,1.512172,-0.223558,0.143211,0.364266,0.253146,0.066845
"2019-05-06 15:53:43.402 +0000",1557158023.401622,2.089212,-1.112936,-1.388498,0.383950,0.897000,0.219028,0.000000,0.000000,0.000000,-1,1.638067,-0.208711,0.166318,0.145393,0.067126,0.055523
"2019-05-06 15:53:43.422 +0000",1557158023.421608,2.023557,-1.125858,-1.459622,0.387036,0.902637,0.188279,0.000000,0.000000,0.000000,-1,1.698202,0.000527,0.131059,-0.108471,-0.068104,-0.027681
"2019-05-06 15:53:43.442 +0000",1557158023.441608,1.956812,-1.137518,-1.533455,0.388955,0.907594,0.158073,0.000000,0.000000,0.000000,-1,1.638299,-0.057155,0.091964,-0.115624,-0.085420,-0.057899
"2019-05-06 15:53:43.462 +0000",1557158023.461628,1.886337,-1.146041,-1.605156,0.391752,0.911139,0.127887,0.000000,0.000000,0.000000,-1,1.486211,-0.380034,0.133303,-0.114485,-0.127982,-0.100665
"2019-05-06 15:53:43.482 +0000",1557158023.481644,1.814412,-1.150353,-1.672222,0.396113,0.912908,0.098455,0.000000,0.000000,0.000000,-1,1.327991,-0.598428,0.195541,-0.103770,-0.114675,-0.103505
"2019-05-06 15:53:43.502 +0000",1557158023.501647,1.744323,-1.151049,-1.734403,0.401409,0.913192,0.070363,0.000000,0.000000,0.000000,-1,1.205242,-0.680819,0.239995,-0.020702,-0.106872,-0.061940
"2019-05-06 15:53:43.522 +0000",1557158023.521652,1.677761,-1.149361,-1.793880,0.406733,0.912503,0.043673,0.000000,0.000000,0.000000,-1,1.161739,-0.595451,0.256804,-0.017008,-0.136074,-0.054247
"2019-05-06 15:53:43.542 +0000",1557158023.541671,1.616429,-1.145950,-1.847601,0.411752,0.911102,0.018803,0.000000,0.000000,0.000000,-1,1.026267,-0.617519,0.258310,-0.043954,-0.162262,-0.041996
"2019-05-06 15:53:43.562 +0000",1557158023.561657,1.562746,-1.140634,-1.894953,0.417005,0.908898,-0.003357,0.000000,0.000000,0.000000,-1,0.923160,-0.499889,0.300748,-0.096631,-0.246255,0.026306
"2019-05-06 15:53:43.582 +0000",1557158023.581679,1.518955,-1.133716,-1.933528,0.422727,0.905991,-0.021934,0.000000,0.000000,0.000000,-1,0.757060,-0.409901,0.331723,-0.157468,-0.205659,0.073021
"2019-05-06 15:53:43.602 +0000",1557158023.601688,1.482840,-1.125646,-1.967694,0.428929,0.902546,-0.037825,0.000000,0.000000,0.000000,-1,0.713688,-0.266011,0.347199,-0.149099,-0.163639,0.066221
"2019-05-06 15:53:43.622 +0000",1557158023.621683,1.452902,-1.117349,-1.994497,0.435026,0.898942,-0.051526,0.000000,0.000000,0.000000,-1,0.601964,-0.184573,0.386618,-0.143049,-0.138261,0.077466
"2019-05-06 15:53:43.642 +0000",1557158023.641706,1.429757,-1.109705,-2.011127,0.440508,0.895568,-0.062544,0.000000,0.000000,0.000000,-1,0.287497,-0.557140,0.303666,-0.186403,0.062044,0.174803
"2019-05-06 15:53:43.662 +0000",1557158023.661714,1.428915,-1.109740,-2.005220,0.440424,0.895583,-0.062911,0.000000,0.000000,0.000000,-1,0.079980,-0.331402,0.268917,-0.218104,0.162813,0.266142
"2019-05-06 15:53:43.682 +0000",1557158023.681720,1.423439,-1.107219,-2.004405,0.442305,0.894459,-0.065653,0.000000,0.000000,0.000000,-1,-0.019399,-0.292476,0.067194,-0.252073,0.232052,0.238840
"2019-05-06 15:53:43.702 +0000",1557158023.701727,1.418618,-1.106932,-2.002278,0.442237,0.894330,-0.067823,0.000000,0.000000,0.000000,-1,-0.054858,-0.366423,-0.001785,-0.192649,0.206225,0.269193
"2019-05-06 15:53:43.722 +0000",1557158023.721735,1.413169,-1.107914,-1.998786,0.440993,0.894769,-0.070094,0.000000,0.000000,0.000000,-1,-0.116984,-0.459284,-0.048190,-0.118758,0.289252,0.303767
"2019-05-06 15:53:43.742 +0000",1557158023.741742,1.411418,-1.109417,-1.989167,0.439542,0.895439,-0.070653,0.000000,0.000000,0.000000,-1,-0.316617,-0.568398,-0.035454,-0.033933,0.398415,0.147511
"2019-05-06 15:53:43.762 +0000",1557158023.761747,1.419997,-1.111945,-1.965846,0.437892,0.896562,-0.066539,0.000000,0.000000,0.000000,-1,-0.663382,-0.640325,-0.064158,-0.003185,0.604842,-0.086766
"2019-05-06 15:53:43.782 +0000",1557158023.781746,1.439141,-1.116802,-1.929994,0.434764,0.898702,-0.057572,0.000000,0.000000,0.000000,-1,-0.889570,-0.625880,-0.170426,0.193364,0.595118,-0.102111
"2019-05-06 15:53:43.802 +0000",1557158023.801763,1.471610,-1.123504,-1.885678,0.430400,0.901622,-0.042830,0.000000,0.000000,0.000000,-1,-1.072088,-0.184459,-0.241355,0.358754,0.366277,-0.130815
"2019-05-06 15:53:43.822 +0000",1557158023.821769,1.523392,-1.131049,-1.832530,0.425233,0.904859,-0.020173,0.000000,0.000000,0.000000,-1,-1.226543,0.403811,-0.307677,0.392211,0.076434,-0.120238
"2019-05-06 15:53:43.842 +0000",1557158023.841745,1.600749,-1.137437,-1.765299,0.419733,0.907560,0.012576,0.000000,0.000000,0.000000,-1,-1.561838,1.136744,-0.299457,0.416784,-0.041410,-0.010272
"2019-05-06 15:53:43.862 +0000",1557158023.861758,1.706372,-1.140518,-1.684611,0.413296,0.908850,0.056379,0.000000,0.000000,0.000000,-1,-1.679605,1.853182,-0.303423,0.499393,0.133936,0.030749
"2019-05-06 15:53:43.882 +0000",1557158023.881759,1.819232,-1.141662,-1.605174,0.403309,0.909326,0.102310,0.000000,0.000000,0.000000,-1,-1.538415,2.108567,-0.399951,0.333431,0.315787,-0.006393
"2019-05-06 15:53:43.902 +0000",1557158023.901767,1.929345,-1.141203,-1.526669,0.390014,0.909135,0.146157,0.000000,0.000000,0.000000,-1,-1.593530,1.834515,-0.476523,0.146881,0.294631,-0.043786
"2019-05-06 15:53:43.922 +0000",1557158023.921806,2.035965,-1.135647,-1.441739,0.376755,0.906807,0.189094,0.000000,0.000000,0.000000,-1,-1.801587,1.262960,-0.406164,0.020370,0.184349,-0.216423
"2019-05-06 15:53:43.942 +0000",1557158023.941808,2.126577,-1.125516,-1.360711,0.365884,0.902490,0.227246,0.000000,0.000000,0.000000,-1,-1.700714,0.603953,-0.410927,-0.049127,0.135673,-0.325696
"2019-05-06 15:53:43.962 +0000",1557158023.961794,2.199241,-1.114834,-1.286731,0.356199,0.897838,0.258862,0.000000,0.000000,0.000000,-1,-1.612080,0.229697,-0.473527,-0.071974,-0.017482,0.043475
"2019-05-06 15:53:43.982 +0000",1557158023.981825,2.270321,-1.101416,-1.216987,0.346102,0.891849,0.291237,0.000000,0.000000,0.000000,-1,-1.698552,0.572602,-0.342458,0.002592,-0.109073,0.106376
"2019-05-06 15:53:44.002 +0000",1557158024.001831,2.331882,-1.077059,-1.154842,0.343160,0.880568,0.326867,0.000000,0.000000,0.000000,-1,-1.961368,0.062849,0.100389,0.125193,-0.251753,-0.201546
"2019-05-06 15:53:44.022 +0000",1557158024.021815,2.366782,-1.048602,-1.106773,0.348939,0.866727,0.356407,0.000000,0.000000,0.000000,-1,-1.711956,-0.506392,0.173861,0.006041,-0.176038,-0.205910
"2019-05-06 15:53:44.042 +0000",1557158024.041847,2.394699,-1.026141,-1.068040,0.351994,0.855306,0.380201,0.000000,0.000000,0.000000,-1,-1.345404,-0.028753,-0.016055,-0.024967,-0.149709,-0.080396
"2019-05-06 15:53:44.062 +0000",1557158024.061851,2.425736,-1.008842,-1.035185,0.349685,0.846215,0.402046,0.000000,0.000000,0.000000,-1,-1.186076,0.216143,-0.090160,-0.039824,-0.201501,-0.191200
"2019-05-06 15:53:44.082 +0000",1557158024.081860,2.453315,-0.992092,-1.006042,0.347420,0.837172,0.422424,0.000000,0.000000,0.000000,-1,-1.122315,0.086600,-0.040623,-0.092507,-0.257399,-0.271911
"2019-05-06 15:53:44.102 +0000",1557158024.101868,2.470763,-0.976599,-0.983954,0.348019,0.828598,0.438529,0.000000,0.000000,0.000000,-1,-0.845400,-0.110188,0.035376,-0.058270,-0.209869,-0.251533
"2019-05-06 15:53:44.122 +0000",1557158024.121873,2.474570,-0.966093,-0.972355,0.351714,0.822671,0.446666,0.000000,0.000000,0.000000,-1,-0.470559,-0.369113,0.085783,-0.046782,-0.228860,-0.193050
"2019-05-06 15:53:44.142 +0000",1557158024.141881,2.468769,-0.960651,-0.969057,0.357083,0.819565,0.448113,0.000000,0.000000,0.000000,-1,-0.151748,-0.419251,0.146069,-0.099973,-0.354339,-0.100289
"2019-05-06 15:53:44.162 +0000",1557158024.161876,2.456538,-0.958489,-0.974007,0.363658,0.818324,0.445083,0.000000,0.000000,0.000000,-1,0.085069,-0.401343,0.179561,-0.181010,-0.293727,-0.095047
"2019-05-06 15:53:44.182 +0000",1557158024.181808,2.442900,-0.960599,-0.982382,0.368582,0.819535,0.438759,0.000000,0.000000,0.000000,-1,0.325041,-0.316446,0.081417,-0.249609,-0.207963,0.019249
"2019-05-06 15:53:44.202 +0000",1557158024.201828,2.428875,-0.967571,-0.993432,0.370954,0.823510,0.429213,0.000000,0.000000,0.000000,-1,0.538432,-0.181687,-0.041443,-0.220487,-0.180124,0.143922
"2019-05-06 15:53:44.222 +0000",1557158024.221807,2.418598,-0.975139,-1.003829,0.371211,0.827780,0.420693,0.000000,0.000000,0.000000,-1,0.401300,0.003804,-0.036595,-0.174693,-0.096609,0.209220
"2019-05-06 15:53:44.242 +0000",1557158024.241812,2.418055,-0.982531,-1.007788,0.367379,0.831904,0.415894,0.000000,0.000000,0.000000,-1,0.367209,0.129072,-0.206839,-0.273064,-0.179072,0.019058
"2019-05-06 15:53:44.262 +0000",1557158024.261817,2.420179,-0.993950,-1.011496,0.360197,0.838187,0.409514,0.000000,0.000000,0.000000,-1,0.410414,0.458858,-0.337623,-0.036085,-0.094412,0.197008
"2019-05-06 15:53:44.282 +0000",1557158024.281839,2.445474,-0.992300,-1.002882,0.350610,0.837286,0.419553,0.000000,0.000000,0.000000,-1,-0.437837,0.913061,0.064985,0.399252,0.123789,0.344500
"2019-05-06 15:53:44.302 +0000",1557158024.301862,2.452809,-0.997344,-1.009424,0.344835,0.840033,0.418848,0.000000,0.000000,0.000000,-1,0.854663,0.659209,-0.201904,0.517394,1.047845,-0.225946
"2019-05-06 15:53:44.322 +0000",1557158024.321837,2.434582,-1.015544,-1.039296,0.342423,0.849767,0.400802,0.000000,0.000000,0.000000,-1,1.343290,-0.004091,0.255766,0.397964,0.593287,0.189164
"2019-05-06 15:53:44.342 +0000",1557158024.341864,2.379528,-1.031176,-1.088705,0.354743,0.857904,0.371696,0.000000,0.000000,0.000000,-1,1.437567,-0.882737,0.452737,0.072869,-0.036417,-0.094902
"2019-05-06 15:53:44.362 +0000",1557158024.361857,2.331476,-1.044646,-1.128406,0.363783,0.864747,0.346229,0.000000,0.000000,0.000000,-1,0.983629,-0.504952,0.093426,-0.395857,-0.227967,-0.129768
"2019-05-06 15:53:44.382 +0000",1557158024.381891,2.308931,-1.055589,-1.149523,0.364474,0.870191,0.331553,0.000000,0.000000,0.000000,-1,0.694103,-0.141091,-0.112485,-0.141085,-0.062940,-0.154657
"2019-05-06 15:53:44.402 +0000",1557158024.401897,2.289037,-1.067993,-1.167673,0.362841,0.876235,0.317109,0.000000,0.000000,0.000000,-1,0.785525,-0.240580,-0.151771,0.185651,0.125703,-0.118897
"2019-05-06 15:53:44.422 +0000",1557158024.421900,2.255784,-1.079421,-1.198550,0.365405,0.881685,0.298515,0.000000,0.000000,0.000000,-1,1.059789,-0.350206,0.161940,0.335767,0.250090,0.051384
"2019-05-06 15:53:44.442 +0000",1557158024.441910,2.200591,-1.091090,-1.249991,0.372976,0.887130,0.271825,0.000000,0.000000,0.000000,-1,1.438097,-0.543533,0.293189,0.238505,0.163712,0.077174
"2019-05-06 15:53:44.462 +0000",1557158024.461889,2.134668,-1.105642,-1.313422,0.379120,0.893752,0.239739,0.000000,0.000000,0.000000,-1,1.679232,-0.372990,0.129526,-0.056580,-0.013076,0.093803
"2019-05-06 15:53:44.482 +0000",1557158024.481902,2.070752,-1.123830,-1.380359,0.379329,0.901762,0.207206,0.000000,0.000000,0.000000,-1,1.739139,-0.127225,-0.116234,-0.181148,-0.073958,0.029656
"2019-05-06 15:53:44.502 +0000",1557158024.501907,2.003871,-1.141242,-1.448284,0.378018,0.909151,0.174776,0.000000,0.000000,0.000000,-1,1.628685,-0.409992,-0.104008,-0.177304,-0.086519,-0.058504
"2019-05-06 15:53:44.522 +0000",1557158024.521940,1.927730,-1.152740,-1.516332,0.380397,0.913880,0.141852,0.000000,0.000000,0.000000,-1,1.436038,-0.850676,0.091712,-0.156825,-0.132493,-0.085868
"2019-05-06 15:53:44.542 +0000",1557158024.541946,1.850310,-1.157182,-1.580156,0.386323,0.915674,0.110885,0.000000,0.000000,0.000000,-1,1.212010,-0.990517,0.240246,-0.068300,-0.080957,-0.087234
"2019-05-06 15:53:44.562 +0000",1557158024.561944,1.777547,-1.157731,-1.637328,0.392870,0.915895,0.082403,0.000000,0.000000,0.000000,-1,1.091494,-0.998799,0.239518,-0.015794,-0.156327,-0.026785
"2019-05-06 15:53:44.582 +0000",1557158024.581961,1.708789,-1.157049,-1.692299,0.398221,0.915621,0.055303,0.000000,0.000000,0.000000,-1,1.072553,-0.873357,0.218714,-0.022397,-0.218538,-0.017706
"2019-05-06 15:53:44.602 +0000",1557158024.601935,1.645313,-1.154929,-1.744193,0.402862,0.914766,0.030076,0.000000,0.000000,0.000000,-1,1.008912,-0.716865,0.209628,-0.044845,-0.303667,-0.014054
"2019-05-06 15:53:44.622 +0000",1557158024.621950,1.591354,-1.150912,-1.789045,0.407569,0.913136,0.008380,0.000000,0.000000,0.000000,-1,0.824756,-0.612780,0.267278,-0.018729,-0.201634,0.006970
"2019-05-06 15:53:44.642 +0000",1557158024.641965,1.549135,-1.145096,-1.823167,0.412862,0.910750,-0.008944,0.000000,0.000000,0.000000,-1,0.658801,-0.454729,0.292607,-0.024022,-0.199248,0.024295
"2019-05-06 15:53:44.662 +0000",1557158024.661956,1.517000,-1.139260,-1.848810,0.417662,0.908324,-0.022491,0.000000,0.000000,0.000000,-1,0.446499,-0.470648,0.248368,-0.058821,-0.006240,0.013106
"2019-05-06 15:53:44.682 +0000",1557158024.681995,1.493777,-1.133999,-1.868483,0.421785,0.906111,-0.032550,0.000000,0.000000,0.000000,-1,0.381972,-0.235384,0.241065,-0.093065,0.002290,0.064059
"2019-05-06 15:53:44.702 +0000",1557158024.702002,1.495538,-1.145297,-1.864619,0.411607,0.910833,-0.031036,0.000000,0.000000,0.000000,-1,0.236781,-0.268411,0.197609,-0.086015,0.135371,0.076614
"2019-05-06 15:53:44.722 +0000",1557158024.722008,1.484528,-1.142112,-1.873269,0.414129,0.909513,-0.035815,0.000000,0.000000,0.000000,-1,0.199787,-0.065807,0.110306,-0.139486,0.152361,0.193805
"2019-05-06 15:53:44.742 +0000",1557158024.742015,1.476813,-1.140421,-1.879862,0.415371,0.908809,-0.039153,0.000000,0.000000,0.000000,-1,0.105758,-0.113989,0.054170,-0.206554,0.143528,0.160674
"2019-05-06 15:53:44.762 +0000",1557158024.762023,1.528862,-1.183160,-1.828136,0.377669,0.925805,-0.015847,0.000000,0.000000,0.000000,-1,-0.049403,-0.294663,0.032430,-0.182128,0.127982,0.136727
"2019-05-06 15:53:44.782 +0000",1557158024.782014,1.527631,-1.182833,-1.820441,0.377951,0.925682,-0.016325,0.000000,0.000000,0.000000,-1,-0.194887,-0.486110,0.012302,-0.150153,0.167855,0.183592
"2019-05-06 15:53:44.802 +0000",1557158024.802037,1.530575,-1.183704,-1.806322,0.377192,0.926011,-0.015179,0.000000,0.000000,0.000000,-1,-0.306934,-0.462189,-0.079347,0.037908,0.299926,0.025418
"2019-05-06 15:53:44.822 +0000",1557158024.822016,1.542558,-1.187579,-1.786095,0.373757,0.927467,-0.010557,0.000000,0.000000,0.000000,-1,-0.447554,-0.297241,-0.238825,0.145789,0.382501,-0.117800
"2019-05-06 15:53:44.842 +0000",1557158024.842039,1.566723,-1.193811,-1.756780,0.368116,0.929779,-0.001499,0.000000,0.000000,0.000000,-1,-0.615483,-0.001709,-0.316609,0.564547,0.439316,-0.150905
"2019-05-06 15:53:44.862 +0000",1557158024.862058,1.614026,-1.199187,-1.712326,0.362776,0.931744,0.015692,0.000000,0.000000,0.000000,-1,-0.927820,0.452627,-0.270710,0.507570,0.291263,-0.274024
"2019-05-06 15:53:44.882 +0000",1557158024.882043,1.685441,-1.202745,-1.648869,0.357436,0.933030,0.041159,0.000000,0.000000,0.000000,-1,-1.226960,0.687186,-0.290235,0.458940,0.162642,-0.320898
"2019-05-06 15:53:44.902 +0000",1557158024.902065,1.772653,-1.206218,-1.575397,0.349315,0.934274,0.071485,0.000000,0.000000,0.000000,-1,-1.283731,1.155219,-0.456625,0.382237,0.015570,-0.012266
"2019-05-06 15:53:44.922 +0000",1557158024.922065,1.878536,-1.211047,-1.496468,0.335501,0.935985,0.106635,0.000000,0.000000,0.000000,-1,-1.299468,1.868774,-0.650915,0.398416,0.179036,0.089593
"2019-05-06 15:53:44.942 +0000",1557158024.942071,2.002882,-1.214302,-1.407325,0.316917,0.937126,0.146146,0.000000,0.000000,0.000000,-1,-1.486953,2.008899,-0.736492,0.366601,0.223793,0.057803
"2019-05-06 15:53:44.962 +0000",1557158024.962090,2.130729,-1.210560,-1.307225,0.298666,0.935813,0.187221,0.000000,0.000000,0.000000,-1,-1.708717,1.458216,-0.592521,0.203348,0.146126,-0.107463
"2019-05-06 15:53:44.982 +0000",1557158024.982100,2.239859,-1.197480,-1.212134,0.286076,0.931123,0.226209,0.000000,0.000000,0.000000,-1,-1.764276,0.791873,-0.369437,0.083843,0.053130,-0.206159
"2019-05-06 15:53:45.002 +0000",1557158025.002106,2.323234,-1.181359,-1.134112,0.277167,0.925123,0.259473,0.000000,0.000000,0.000000,-1,-1.529353,0.454187,-0.352491,0.050332,0.026431,-0.246274
"2019-05-06 15:53:45.022 +0000",1557158025.022111,2.395862,-1.167177,-1.065790,0.266484,0.919645,0.288511,0.000000,0.000000,0.000000,-1,-1.384365,0.519900,-0.475936,0.027492,-0.110869,-0.040281
"2019-05-06 15:53:45.042 +0000",1557158025.042105,2.464413,-1.150793,-1.003784,0.255504,0.913088,0.317788,0.000000,0.000000,0.000000,-1,-1.492828,0.545998,-0.310287,0.124105,-0.278642,-0.085473
"2019-05-06 15:53:45.062 +0000",1557158025.062128,2.513961,-1.125488,-0.952941,0.252941,0.902478,0.348646,0.000000,0.000000,0.000000,-1,-1.714445,-0.087902,0.060411,0.132756,-0.345670,-0.216581
"2019-05-06 15:53:45.082 +0000",1557158025.082131,2.539986,-1.095749,-0.915898,0.258863,0.889271,0.377077,0.000000,0.000000,0.000000,-1,-1.640283,-0.401759,0.214319,0.001696,-0.388615,-0.242968
"2019-05-06 15:53:45.102 +0000",1557158025.102136,2.564061,-1.069515,-0.884580,0.262360,0.876967,0.402611,0.000000,0.000000,0.000000,-1,-1.406078,0.011364,0.041040,-0.039383,-0.314437,-0.156899
"2019-05-06 15:53:45.122 +0000",1557158025.122149,2.594925,-1.047345,-0.854542,0.259856,0.866099,0.427022,0.000000,0.000000,0.000000,-1,-1.308500,0.318918,-0.063088,-0.023802,-0.317408,-0.196874
"2019-05-06 15:53:45.142 +0000",1557158025.142154,2.623936,-1.026680,-0.828639,0.256163,0.855585,0.449838,0.000000,0.000000,0.000000,-1,-1.158143,0.291329,-0.018497,-0.000593,-0.275034,-0.236643
"2019-05-06 15:53:45.162 +0000",1557158025.162129,2.640969,-1.007352,-0.811245,0.256354,0.845420,0.468558,0.000000,0.000000,0.000000,-1,-0.990043,0.024082,0.131763,0.021661,-0.154106,-0.250175
"2019-05-06 15:53:45.182 +0000",1557158025.182167,2.643913,-0.990524,-0.803184,0.261729,0.836313,0.481745,0.000000,0.000000,0.000000,-1,-0.746418,-0.303192,0.249005,0.038076,-0.129908,-0.213205
"2019-05-06 15:53:45.202 +0000",1557158025.202175,2.636356,-0.978197,-0.803116,0.270331,0.829492,0.488737,0.000000,0.000000,0.000000,-1,-0.420234,-0.404291,0.325517,0.069940,-0.157190,-0.101301
"2019-05-06 15:53:45.222 +0000",1557158025.222159,2.624480,-0.970786,-0.808817,0.279148,0.825330,0.490823,0.000000,0.000000,0.000000,-1,-0.144953,-0.332448,0.327707,0.050366,-0.226834,-0.035409
"2019-05-06 15:53:45.242 +0000",1557158025.242160,2.608567,-0.967676,-0.820439,0.288226,0.823570,0.488527,0.000000,0.000000,0.000000,-1,0.114235,-0.317859,0.351549,-0.004931,-0.137412,-0.007006
"2019-05-06 15:53:45.262 +0000",1557158025.262174,2.592632,-0.968401,-0.833469,0.295662,0.823981,0.483363,0.000000,0.000000,0.000000,-1,0.275331,-0.229476,0.269602,-0.054603,-0.152198,0.014135
"2019-05-06 15:53:45.282 +0000",1557158025.282181,2.577907,-0.970856,-0.846117,0.301665,0.825369,0.477246,0.000000,0.000000,0.000000,-1,0.288118,-0.196982,0.213903,0.002198,-0.132468,0.068668
"2019-05-06 15:53:45.302 +0000",1557158025.302212,2.571533,-0.974097,-0.854073,0.303255,0.827195,0.473059,0.000000,0.000000,0.000000,-1,0.241786,0.202522,0.000816,0.024305,0.028686,0.226297
"2019-05-06 15:53:45.322 +0000",1557158025.322217,2.578289,-0.980608,-0.855117,0.297170,0.830836,0.470533,0.000000,0.000000,0.000000,-1,0.350885,0.509922,-0.244278,-0.030126,0.030050,0.268679
"2019-05-06 15:53:45.342 +0000",1557158025.342224,2.589513,-0.988229,-0.857913,0.288542,0.835053,0.468434,0.000000,0.000000,0.000000,-1,0.249265,0.682463,-0.001362,0.297503,-0.296555,0.100261
"2019-05-06 15:53:45.362 +0000",1557158025.362232,2.594026,-0.986861,-0.869122,0.287019,0.834299,0.470707,0.000000,0.000000,0.000000,-1,0.247580,0.589401,0.444294,0.471358,-0.079371,-0.057743
"2019-05-06 15:53:45.382 +0000",1557158025.382223,2.587601,-0.996602,-0.891315,0.285748,0.839630,0.461919,0.000000,0.000000,0.000000,-1,0.892616,0.721011,0.176226,0.496021,0.702179,-0.275044
"2019-05-06 15:53:45.402 +0000",1557158025.402215,2.571218,-1.010058,-0.921894,0.287150,0.846863,0.447625,0.000000,0.000000,0.000000,-1,1.157079,0.077840,0.445383,0.381826,0.397873,-0.020303
"2019-05-06 15:53:45.422 +0000",1557158025.422242,2.532153,-1.029277,-0.963217,0.295041,0.856927,0.422643,0.000000,0.000000,0.000000,-1,1.484475,-0.274324,0.282788,0.057254,0.161735,-0.017736
"2019-05-06 15:53:45.442 +0000",1557158025.442242,2.494184,-1.049631,-1.000959,0.300289,0.867239,0.397143,0.000000,0.000000,0.000000,-1,1.262543,-0.245233,0.147615,-0.262844,-0.135260,-0.190920
"2019-05-06 15:53:45.462 +0000",1557158025.462265,2.464293,-1.064982,-1.030298,0.303644,0.874780,0.377571,0.000000,0.000000,0.000000,-1,0.948946,-0.213631,0.036149,-0.142679,-0.012536,-0.296440
"2019-05-06 15:53:45.482 +0000",1557158025.482245,2.441551,-1.079848,-1.052059,0.303740,0.881886,0.360582,0.000000,0.000000,0.000000,-1,0.911575,-0.146598,-0.099657,-0.025663,0.062923,-0.199891
"2019-05-06 15:53:45.502 +0000",1557158025.502270,2.413745,-1.095810,-1.080209,0.304243,0.889299,0.341444,0.000000,0.000000,0.000000,-1,1.134552,-0.187369,0.038769,0.334795,0.210341,-0.082471
"2019-05-06 15:53:45.522 +0000",1557158025.522287,2.366795,-1.113397,-1.125043,0.308942,0.897204,0.315562,0.000000,0.000000,0.000000,-1,1.431760,-0.414480,0.183186,0.332110,0.214704,-0.040065
"2019-05-06 15:53:45.542 +0000",1557158025.542266,2.308087,-1.131649,-1.182331,0.314749,0.905114,0.285834,0.000000,0.000000,0.000000,-1,1.564317,-0.281538,0.203610,0.126138,0.065589,0.056741
"2019-05-06 15:53:45.562 +0000",1557158025.562271,2.246744,-1.149256,-1.245994,0.319197,0.912460,0.255989,0.000000,0.000000,0.000000,-1,1.573161,-0.129538,0.183685,-0.068190,-0.082443,-0.021370
"2019-05-06 15:53:45.582 +0000",1557158025.582308,2.183211,-1.164902,-1.311468,0.323084,0.918750,0.226972,0.000000,0.000000,0.000000,-1,1.472631,-0.239222,0.152400,-0.062052,-0.098315,-0.094129
"2019-05-06 15:53:45.602 +0000",1557158025.602299,2.114757,-1.177728,-1.377033,0.327741,0.923738,0.198226,0.000000,0.000000,0.000000,-1,1.377179,-0.504792,0.188000,-0.053083,-0.159548,-0.082137
"2019-05-06 15:53:45.622 +0000",1557158025.622320,2.039764,-1.187246,-1.444058,0.333813,0.927342,0.169132,0.000000,0.000000,0.000000,-1,1.330915,-0.689844,0.192152,-0.050366,-0.135808,-0.072895
"2019-05-06 15:53:45.642 +0000",1557158025.642329,1.963640,-1.195661,-1.511109,0.338488,0.930458,0.140263,0.000000,0.000000,0.000000,-1,1.269973,-0.700088,0.099460,-0.059817,-0.147606,-0.060506
"2019-05-06 15:53:45.662 +0000",1557158025.662337,1.890296,-1.203350,-1.574932,0.341053,0.933248,0.112832,0.000000,0.000000,0.000000,-1,1.194173,-0.686790,0.018445,-0.062260,-0.178777,-0.037042
"2019-05-06 15:53:45.682 +0000",1557158025.682342,1.820205,-1.209274,-1.635707,0.342755,0.935359,0.087304,0.000000,0.000000,0.000000,-1,1.069502,-0.652414,0.027144,-0.075772,-0.277599,-0.073510
"2019-05-06 15:53:45.702 +0000",1557158025.702331,1.757114,-1.211464,-1.689131,0.345564,0.936132,0.065140,0.000000,0.000000,0.000000,-1,0.862847,-0.647640,0.165375,-0.055601,-0.332799,-0.052964
"2019-05-06 15:53:45.722 +0000",1557158025.722357,1.704513,-1.208887,-1.732228,0.350900,0.935223,0.047203,0.000000,0.000000,0.000000,-1,0.645593,-0.598356,0.278874,-0.034845,-0.316906,-0.047081
"2019-05-06 15:53:45.742 +0000",1557158025.742341,1.664803,-1.204777,-1.765174,0.356321,0.933760,0.033595,0.000000,0.000000,0.000000,-1,0.518175,-0.347085,0.262048,0.018603,-0.204450,0.012929
"2019-05-06 15:53:45.762 +0000",1557158025.762362,1.634429,-1.199177,-1.791461,0.362390,0.931740,0.023091,0.000000,0.000000,0.000000,-1,0.416941,-0.285553,0.216127,-0.004709,-0.062035,0.002544
"2019-05-06 15:53:45.782 +0000",1557158025.782377,1.606045,-1.195530,-1.819056,0.366293,0.930410,0.012917,0.000000,0.000000,0.000000,-1,0.510247,-0.069425,0.248020,-0.008611,-0.060705,0.012718
"2019-05-06 15:53:45.802 +0000",1557158025.802383,1.580138,-1.191460,-1.843815,0.370288,0.928911,0.003459,0.000000,0.000000,0.000000,-1,0.413979,-0.167583,0.196385,-0.113116,0.045790,0.032017
"2019-05-06 15:53:45.822 +0000",1557158025.822388,1.561848,-1.187570,-1.858707,0.373899,0.927463,-0.003346,0.000000,0.000000,0.000000,-1,0.159891,-0.298009,0.193338,-0.100203,0.076794,0.075734
"2019-05-06 15:53:45.842 +0000",1557158025.842399,1.550722,-1.184895,-1.867303,0.376318,0.926460,-0.007555,0.000000,0.000000,0.000000,-1,0.152607,-0.151985,0.092335,-0.097281,0.161156,0.135515
"2019-05-06 15:53:45.862 +0000",1557158025.862404,1.541597,-1.183270,-1.874111,0.377738,0.925847,-0.011033,0.000000,0.000000,0.000000,-1,0.120673,-0.141437,0.076460,-0.036323,0.192836,0.185700
"2019-05-06 15:53:45.882 +0000",1557158025.882383,1.532263,-1.181325,-1.880313,0.379418,0.925110,-0.014628,0.000000,0.000000,0.000000,-1,0.121642,-0.202928,0.104494,-0.015008,0.215225,0.165934
"2019-05-06 15:53:45.902 +0000",1557158025.902397,1.522387,-1.178523,-1.885755,0.381842,0.924042,-0.018499,0.000000,0.000000,0.000000,-1,0.098085,-0.274875,0.148653,-0.008597,0.251098,0.176931
"2019-05-06 15:53:45.922 +0000",1557158025.922425,1.512373,-1.174899,-1.888931,0.384978,0.922651,-0.022517,0.000000,0.000000,0.000000,-1,0.031714,-0.416992,0.191099,0.005479,0.388918,0.003993
"2019-05-06 15:53:45.942 +0000",1557158025.942433,1.505570,-1.170844,-1.884464,0.388547,0.921079,-0.025379,0.000000,0.000000,0.000000,-1,-0.120089,-0.607974,0.224370,-0.009030,0.452242,-0.129833
"2019-05-06 15:53:45.962 +0000",1557158025.962441,1.500341,-1.169053,-1.874283,0.390054,0.920381,-0.027527,0.000000,0.000000,0.000000,-1,-0.234844,-0.763812,0.018224,0.150413,0.541183,-0.261154
"2019-05-06 15:53:45.982 +0000",1557158025.982432,1.503958,-1.171039,-1.856320,0.388326,0.921156,-0.025994,0.000000,0.000000,0.000000,-1,-0.453131,-0.544136,-0.106072,0.392680,0.395327,-0.221412
"2019-05-06 15:53:46.002 +0000",1557158026.002453,1.526088,-1.174139,-1.824536,0.385951,0.922358,-0.017267,0.000000,0.000000,0.000000,-1,-0.708325,-0.202270,-0.136866,0.409276,0.081549,-0.130530
"2019-05-06 15:53:46.022 +0000",1557158026.022446,1.571161,-1.178837,-1.781767,0.382000,0.924162,0.000139,0.000000,0.000000,0.000000,-1,-0.910281,0.628380,-0.245799,0.451374,-0.048582,0.046339
"2019-05-06 15:53:46.042 +0000",1557158026.042446,1.643988,-1.183782,-1.726037,0.376415,0.926040,0.027600,0.000000,0.000000,0.000000,-1,-1.118941,1.293408,-0.309128,0.389088,0.047929,0.129978
"2019-05-06 15:53:46.062 +0000",1557158026.062475,1.740091,-1.188079,-1.657933,0.368104,0.927653,0.062920,0.000000,0.000000,0.000000,-1,-1.323755,1.792159,-0.401613,0.234390,0.178136,0.050575
"2019-05-06 15:53:46.082 +0000",1557158026.082481,1.852917,-1.190506,-1.573792,0.356516,0.928557,0.103337,0.000000,0.000000,0.000000,-1,-1.613288,1.617275,-0.510074,0.037054,0.262865,-0.046498
"2019-05-06 15:53:46.102 +0000",1557158026.102473,1.972451,-1.189079,-1.472293,0.342868,0.928026,0.145631,0.000000,0.000000,0.000000,-1,-1.899432,1.030828,-0.582526,-0.085208,0.080885,-0.118944
"2019-05-06 15:53:46.122 +0000",1557158026.122496,2.085302,-1.180819,-1.365158,0.330949,0.924918,0.187082,0.000000,0.000000,0.000000,-1,-2.012412,0.505242,-0.465634,-0.100603,0.021555,-0.165277
"2019-05-06 15:53:46.142 +0000",1557158026.142477,2.180553,-1.166742,-1.267702,0.322299,0.919475,0.225144,0.000000,0.000000,0.000000,-1,-1.929970,0.126909,-0.382992,-0.043673,-0.055659,-0.221970
"2019-05-06 15:53:46.163 +0000",1557158026.162509,2.257451,-1.149888,-1.181211,0.315991,0.912718,0.259027,0.000000,0.000000,0.000000,-1,-1.871113,-0.254185,-0.380358,-0.022489,-0.162856,-0.099756
"2019-05-06 15:53:46.183 +0000",1557158026.182517,2.320974,-1.131464,-1.101688,0.311162,0.905036,0.289980,0.000000,0.000000,0.000000,-1,-1.850306,-0.470450,-0.401859,0.031306,-0.215400,-0.058825
"2019-05-06 15:53:46.203 +0000",1557158026.202525,2.382989,-1.109213,-1.026148,0.306371,0.895348,0.323246,0.000000,0.000000,0.000000,-1,-2.025457,-0.169324,-0.323764,0.039027,-0.239281,-0.061802
"2019-05-06 15:53:46.223 +0000",1557158026.222530,2.443629,-1.080979,-0.957012,0.302349,0.882419,0.360448,0.000000,0.000000,0.000000,-1,-2.127302,-0.035882,-0.173563,0.123951,-0.403201,-0.118093
"2019-05-06 15:53:46.243 +0000",1557158026.242507,2.486918,-1.049702,-0.902843,0.303129,0.867275,0.394901,0.000000,0.000000,0.000000,-1,-1.945439,-0.364654,0.003632,0.070452,-0.435878,-0.385761
"2019-05-06 15:53:46.263 +0000",1557158026.262546,2.512697,-1.021136,-0.862423,0.307301,0.852702,0.422451,0.000000,0.000000,0.000000,-1,-1.664038,-0.421519,0.014927,-0.085439,-0.379695,-0.319454
"2019-05-06 15:53:46.283 +0000",1557158026.282524,2.537748,-0.996509,-0.828410,0.308456,0.839579,0.447170,0.000000,0.000000,0.000000,-1,-1.472554,-0.110606,-0.047811,-0.048996,-0.214198,-0.175884
"2019-05-06 15:53:46.303 +0000",1557158026.302558,2.562523,-0.973830,-0.797635,0.307627,0.827044,0.470493,0.000000,0.000000,0.000000,-1,-1.390342,-0.042942,-0.081420,-0.026621,-0.190936,-0.214145
"2019-05-06 15:53:46.323 +0000",1557158026.322567,2.583062,-0.952698,-0.770799,0.307094,0.814982,0.491424,0.000000,0.000000,0.000000,-1,-1.245470,-0.108157,-0.082558,0.062154,-0.118174,-0.176040
"2019-05-06 15:53:46.343 +0000",1557158026.342572,2.599076,-0.934698,-0.747370,0.306710,0.804420,0.508761,0.000000,0.000000,0.000000,-1,-1.031241,-0.143840,-0.098950,0.115684,-0.207771,-0.167620
"2019-05-06 15:53:46.363 +0000",1557158026.362566,2.609202,-0.921284,-0.731547,0.306992,0.796379,0.521092,0.000000,0.000000,0.000000,-1,-0.675967,-0.102520,-0.038099,0.155075,-0.260414,-0.155094
"2019-05-06 15:53:46.383 +0000",1557158026.382557,2.612804,-0.914002,-0.724607,0.308031,0.791954,0.527187,0.000000,0.000000,0.000000,-1,-0.262081,-0.073079,0.016252,0.082975,-0.232093,-0.126842
"2019-05-06 15:53:46.403 +0000",1557158026.402574,2.610910,-0.913729,-0.725423,0.309138,0.791787,0.526790,0.000000,0.000000,0.000000,-1,0.149584,-0.057793,0.032234,0.027334,-0.076760,-0.006846
"2019-05-06 15:53:46.423 +0000",1557158026.422591,2.604408,-0.919001,-0.732236,0.310417,0.794996,0.521175,0.000000,0.000000,0.000000,-1,0.414022,-0.077296,0.053013,0.041100,0.015902,0.076848
"2019-05-06 15:53:46.443 +0000",1557158026.442609,2.593446,-0.926337,-0.742745,0.313063,0.799425,0.512749,0.000000,0.000000,0.000000,-1,0.506758,-0.127055,0.105322,0.005830,0.010405,0.139610
"2019-05-06 15:53:46.463 +0000",1557158026.462613,2.584873,-0.933833,-0.754704,0.314272,0.803905,0.504945,0.000000,0.000000,0.000000,-1,0.492596,0.212464,0.104898,-0.068773,0.019184,0.257354
"2019-05-06 15:53:46.483 +0000",1557158026.482622,2.586795,-0.941114,-0.764477,0.310209,0.808215,0.500559,0.000000,0.000000,0.000000,-1,0.466728,0.620436,0.016643,-0.164778,-0.024493,0.227469
"2019-05-06 15:53:46.503 +0000",1557158026.502630,2.598944,-0.949808,-0.771154,0.300465,0.813304,0.498255,0.000000,0.000000,0.000000,-1,0.416289,0.986170,-0.038261,-0.122365,-0.048091,0.304754
"2019-05-06 15:53:46.523 +0000",1557158026.522627,2.613488,-0.949382,-0.778050,0.293362,0.813056,0.502871,0.000000,0.000000,0.000000,-1,0.091383,0.928860,0.280991,0.264103,-0.194282,0.143202
"2019-05-06 15:53:46.543 +0000",1557158026.542704,2.611300,-0.956101,-0.796155,0.291692,0.816949,0.497504,0.000000,0.000000,0.000000,-1,0.925453,0.607099,0.182119,0.470302,0.832556,-0.110052
"2019-05-06 15:53:46.563 +0000",1557158026.562650,2.607972,-0.972211,-0.821088,0.286613,0.826134,0.485135,0.000000,0.000000,0.000000,-1,1.095495,0.700976,0.373457,0.559868,1.169273,0.284167
"2019-05-06 15:53:46.583 +0000",1557158026.582642,2.569953,-0.988270,-0.865229,0.297630,0.835075,0.462672,0.000000,0.000000,0.000000,-1,1.482670,-0.385068,0.653908,0.385521,0.410393,-0.134288
"2019-05-06 15:53:46.603 +0000",1557158026.602640,2.524738,-1.010165,-0.912023,0.307586,0.846919,0.433726,0.000000,0.000000,0.000000,-1,1.600988,-0.172279,0.298176,-0.015396,0.015538,-0.065501
"2019-05-06 15:53:46.623 +0000",1557158026.622658,2.491300,-1.030954,-0.950680,0.311186,0.857790,0.409097,0.000000,0.000000,0.000000,-1,1.348556,0.051541,0.152594,-0.136061,-0.216051,-0.219369
"2019-05-06 15:53:46.643 +0000",1557158026.642650,2.465371,-1.051210,-0.982115,0.310748,0.868025,0.387258,0.000000,0.000000,0.000000,-1,1.255469,0.070946,-0.090697,-0.043627,-0.006178,-0.197530
"2019-05-06 15:53:46.663 +0000",1557158026.662683,2.444673,-1.072256,-1.008652,0.306901,0.878281,0.366652,0.000000,0.000000,0.000000,-1,1.226707,0.142608,-0.180635,0.066573,0.102996,-0.089354
"2019-05-06 15:53:46.683 +0000",1557158026.682682,2.416406,-1.093457,-1.040592,0.304721,0.888220,0.343817,0.000000,0.000000,0.000000,-1,1.330683,-0.163148,-0.068478,0.259794,0.230981,-0.098746
"2019-05-06 15:53:46.703 +0000",1557158026.702674,2.370072,-1.113355,-1.084388,0.307933,0.897185,0.316600,0.000000,0.000000,0.000000,-1,1.446584,-0.414237,0.092517,0.084462,0.033586,-0.002544
"2019-05-06 15:53:46.723 +0000",1557158026.722705,2.316053,-1.133769,-1.137019,0.311050,0.906014,0.287030,0.000000,0.000000,0.000000,-1,1.570549,-0.238543,0.007068,0.020813,-0.050362,0.011249
"2019-05-06 15:53:46.743 +0000",1557158026.742699,2.262053,-1.155656,-1.194259,0.310735,0.915060,0.257118,0.000000,0.000000,0.000000,-1,1.627398,-0.038201,-0.074054,-0.002645,-0.163839,-0.041343
"2019-05-06 15:53:46.763 +0000",1557158026.762702,2.202261,-1.176665,-1.258666,0.309956,0.923330,0.226690,0.000000,0.000000,0.000000,-1,1.638117,-0.050513,-0.017437,0.052608,-0.182745,-0.162740
"2019-05-06 15:53:46.783 +0000",1557158026.782726,2.131916,-1.193237,-1.329526,0.312124,0.929567,0.196173,0.000000,0.000000,0.000000,-1,1.523555,-0.329227,0.095145,0.038569,-0.140474,-0.143698
"2019-05-06 15:53:46.803 +0000",1557158026.802707,2.056543,-1.206452,-1.402028,0.315117,0.934358,0.166362,0.000000,0.000000,0.000000,-1,1.429520,-0.397402,0.065792,0.007514,-0.099183,-0.097805
"2019-05-06 15:53:46.823 +0000",1557158026.822710,1.981527,-1.217955,-1.473549,0.316825,0.938394,0.137977,0.000000,0.000000,0.000000,-1,1.359029,-0.407355,0.005154,-0.079612,-0.249750,-0.155250
"2019-05-06 15:53:46.843 +0000",1557158026.842747,1.905430,-1.227332,-1.545475,0.318071,0.941594,0.110597,0.000000,0.000000,0.000000,-1,1.269405,-0.446344,0.030112,-0.075197,-0.291539,-0.156617
"2019-05-06 15:53:46.863 +0000",1557158026.862733,1.831028,-1.232342,-1.614330,0.320850,0.943269,0.085433,0.000000,0.000000,0.000000,-1,1.106410,-0.476972,0.147109,-0.062336,-0.292558,-0.138442
"2019-05-06 15:53:46.883 +0000",1557158026.882758,1.764168,-1.231560,-1.674796,0.326565,0.943009,0.063947,0.000000,0.000000,0.000000,-1,0.884766,-0.522942,0.321907,0.026630,-0.219269,-0.087019
"2019-05-06 15:53:46.903 +0000",1557158026.902767,1.708935,-1.227064,-1.722433,0.333793,0.941503,0.046405,0.000000,0.000000,0.000000,-1,0.680118,-0.502077,0.350086,0.048470,-0.219976,-0.017856
"2019-05-06 15:53:46.923 +0000",1557158026.922776,1.664941,-1.221191,-1.761061,0.341011,0.939508,0.032199,0.000000,0.000000,0.000000,-1,0.580350,-0.304864,0.365465,0.008980,-0.166787,-0.013843
"2019-05-06 15:53:46.943 +0000",1557158026.942780,1.631467,-1.215742,-1.793179,0.347002,0.937627,0.021079,0.000000,0.000000,0.000000,-1,0.541459,-0.008472,0.293760,-0.055285,-0.017110,-0.029135
"2019-05-06 15:53:46.963 +0000",1557158026.962787,1.627831,-1.227528,-1.800490,0.336019,0.941660,0.019186,0.000000,0.000000,0.000000,-1,0.441216,0.024450,0.257443,-0.075414,0.015677,0.033625
"2019-05-06 15:53:46.983 +0000",1557158026.982796,1.607044,-1.222489,-1.823267,0.341083,0.939952,0.012369,0.000000,0.000000,0.000000,-1,0.316229,-0.065885,0.243215,-0.105121,0.153172,0.078894
"2019-05-06 15:53:47.003 +0000",1557158027.002802,1.587275,-1.217736,-1.844041,0.345725,0.938319,0.005697,0.000000,0.000000,0.000000,-1,0.341849,-0.054221,0.244166,-0.077063,0.163717,0.130762
"2019-05-06 15:53:47.023 +0000",1557158027.022784,1.566608,-1.213085,-1.862979,0.350128,0.936701,-0.001466,0.000000,0.000000,0.000000,-1,0.320152,-0.202310,0.220330,-0.103424,0.205099,0.193269
"2019-05-06 15:53:47.043 +0000",1557158027.042787,1.545939,-1.209264,-1.879246,0.353598,0.935356,-0.008791,0.000000,0.000000,0.000000,-1,0.253727,-0.303757,0.164364,-0.109244,0.235756,0.214648
"2019-05-06 15:53:47.063 +0000",1557158027.062822,1.528846,-1.206384,-1.889396,0.356087,0.934333,-0.014947,0.000000,0.000000,0.000000,-1,0.145663,-0.433781,0.117173,-0.048927,0.271141,0.178918
"2019-05-06 15:53:47.083 +0000",1557158027.082823,1.514553,-1.204499,-1.892821,0.357594,0.933660,-0.020134,0.000000,0.000000,0.000000,-1,0.002273,-0.629652,0.077841,-0.044941,0.381922,-0.056328
"2019-05-06 15:53:47.103 +0000",1557158027.102839,1.507027,-1.204332,-1.885572,0.357589,0.933600,-0.022834,0.000000,0.000000,0.000000,-1,-0.208239,-0.758879,-0.024618,0.097078,0.550241,-0.204232
"2019-05-06 15:53:47.123 +0000",1557158027.122843,1.511257,-1.206732,-1.863342,0.355444,0.934457,-0.021188,0.000000,0.000000,0.000000,-1,-0.534899,-0.821218,-0.172997,0.374094,0.515189,-0.241233
"2019-05-06 15:53:47.143 +0000",1557158027.142848,1.535396,-1.212759,-1.824318,0.350217,0.936586,-0.012403,0.000000,0.000000,0.000000,-1,-0.820106,-0.502239,-0.274082,0.472690,0.238066,-0.174853
"2019-05-06 15:53:47.163 +0000",1557158027.162835,1.584690,-1.217536,-1.768977,0.345925,0.938250,0.004807,0.000000,0.000000,0.000000,-1,-1.039221,0.167144,-0.202872,0.506644,0.111692,-0.108521
"2019-05-06 15:53:47.183 +0000",1557158027.182863,1.664224,-1.220507,-1.700100,0.341673,0.939273,0.032015,0.000000,0.000000,0.000000,-1,-1.242025,1.033703,-0.219075,0.550783,-0.016376,0.065840
"2019-05-06 15:53:47.203 +0000",1557158027.202873,1.766806,-1.221816,-1.621023,0.335392,0.939722,0.066595,0.000000,0.000000,0.000000,-1,-1.356038,1.597280,-0.301403,0.301236,0.142508,-0.059057
"2019-05-06 15:53:47.223 +0000",1557158027.222880,1.879084,-1.222583,-1.537318,0.325132,0.939984,0.103535,0.000000,0.000000,0.000000,-1,-1.400878,1.672706,-0.453244,0.213091,0.238636,-0.078495
"2019-05-06 15:53:47.243 +0000",1557158027.242884,2.002644,-1.221025,-1.437737,0.311222,0.939451,0.143430,0.000000,0.000000,0.000000,-1,-1.787877,1.324334,-0.586305,0.020931,0.260408,-0.103192
"2019-05-06 15:53:47.263 +0000",1557158027.262894,2.133251,-1.210942,-1.318404,0.297890,0.935948,0.187783,0.000000,0.000000,0.000000,-1,-2.176146,0.728961,-0.480154,0.004615,-0.015324,-0.170510
"2019-05-06 15:53:47.283 +0000",1557158027.282900,2.244648,-1.192719,-1.210449,0.288450,0.929376,0.230340,0.000000,0.000000,0.000000,-1,-2.016817,0.383673,-0.373297,0.051912,-0.066568,-0.249978
"2019-05-06 15:53:47.303 +0000",1557158027.302892,2.326208,-1.174019,-1.124952,0.281330,0.922311,0.264944,0.000000,0.000000,0.000000,-1,-1.713792,-0.019047,-0.354094,0.102657,-0.139718,-0.253729
"2019-05-06 15:53:47.323 +0000",1557158027.322913,2.388351,-1.156307,-1.055316,0.275465,0.915322,0.293776,0.000000,0.000000,0.000000,-1,-1.548629,-0.088333,-0.328571,0.123690,-0.239434,-0.023756
"2019-05-06 15:53:47.343 +0000",1557158027.342914,2.446341,-1.136188,-0.991292,0.269719,0.907035,0.323325,0.000000,0.000000,0.000000,-1,-1.706081,0.043277,-0.281789,0.107783,-0.269904,-0.079718
"2019-05-06 15:53:47.363 +0000",1557158027.362906,2.501453,-1.109639,-0.931397,0.265792,0.895538,0.356883,0.000000,0.000000,0.000000,-1,-1.914971,0.010700,-0.156198,0.035401,-0.441223,-0.258022
"2019-05-06 15:53:47.383 +0000",1557158027.382905,2.545098,-1.079789,-0.879045,0.264871,0.881858,0.390088,0.000000,0.000000,0.000000,-1,-1.885554,-0.238749,-0.072936,-0.007242,-0.449546,-0.252927
"2019-05-06 15:53:47.403 +0000",1557158027.402941,2.574700,-1.051377,-0.838552,0.266561,0.868108,0.418730,0.000000,0.000000,0.000000,-1,-1.602991,-0.274061,-0.029709,-0.021794,-0.351598,-0.157362
"2019-05-06 15:53:47.423 +0000",1557158027.422933,2.597765,-1.027221,-0.808169,0.267607,0.855865,0.442585,0.000000,0.000000,0.000000,-1,-1.371268,-0.144483,-0.006316,-0.099669,-0.193954,-0.242680
"2019-05-06 15:53:47.443 +0000",1557158027.442928,2.613482,-1.003939,-0.784521,0.270587,0.843593,0.463825,0.000000,0.000000,0.000000,-1,-1.303321,-0.340672,0.091558,-0.111881,-0.110530,-0.266972
"2019-05-06 15:53:47.463 +0000",1557158027.462947,2.618532,-0.980461,-0.764373,0.278060,0.830754,0.482213,0.000000,0.000000,0.000000,-1,-1.261418,-0.689606,0.117580,-0.109939,-0.079732,-0.241003
"2019-05-06 15:53:47.483 +0000",1557158027.482968,2.618869,-0.959354,-0.745961,0.286589,0.818821,0.497392,0.000000,0.000000,0.000000,-1,-1.112411,-0.771336,0.052444,0.033632,-0.150334,-0.171357
"2019-05-06 15:53:47.503 +0000",1557158027.502956,2.618586,-0.943421,-0.728845,0.293210,0.809571,0.508549,0.000000,0.000000,0.000000,-1,-0.795623,-0.667455,-0.048114,0.146121,-0.298142,-0.170064
"2019-05-06 15:53:47.523 +0000",1557158027.522985,2.614965,-0.934926,-0.718116,0.298495,0.804555,0.513412,0.000000,0.000000,0.000000,-1,-0.361409,-0.564130,-0.061412,0.092481,-0.287511,-0.111861
"2019-05-06 15:53:47.543 +0000",1557158027.542958,2.609244,-0.933389,-0.714584,0.302055,0.803641,0.512761,0.000000,0.000000,0.000000,-1,0.004830,-0.360372,-0.044028,0.027687,-0.202247,-0.061131
"2019-05-06 15:53:47.563 +0000",1557158027.562985,2.600773,-0.936161,-0.717342,0.305239,0.805288,0.508272,0.000000,0.000000,0.000000,-1,0.243907,-0.313381,0.030968,0.041181,-0.063543,-0.019731
"2019-05-06 15:53:47.583 +0000",1557158027.582975,2.586800,-0.941716,-0.726012,0.309950,0.808569,0.500147,0.000000,0.000000,0.000000,-1,0.446498,-0.362178,0.096878,0.049501,-0.030539,0.021994
"2019-05-06 15:53:47.603 +0000",1557158027.603010,2.570544,-0.949252,-0.738698,0.314737,0.812980,0.489902,0.000000,0.000000,0.000000,-1,0.539622,-0.215377,0.110932,0.055212,0.039696,0.162152
"2019-05-06 15:53:47.623 +0000",1557158027.622999,2.562661,-0.958030,-0.750845,0.314673,0.818060,0.481414,0.000000,0.000000,0.000000,-1,0.586466,0.287092,0.013528,0.004663,0.024485,0.200319
"2019-05-06 15:53:47.643 +0000",1557158027.643026,2.563959,-0.970744,-0.762833,0.308343,0.825306,0.473070,0.000000,0.000000,0.000000,-1,0.780288,0.707378,-0.077468,0.006629,-0.147877,0.111449
"2019-05-06 15:53:47.663 +0000",1557158027.663030,2.577631,-0.976872,-0.772051,0.299137,0.828751,0.472957,0.000000,0.000000,0.000000,-1,-0.012271,1.361418,0.184231,0.560665,0.029464,0.341648
"2019-05-06 15:53:47.683 +0000",1557158027.683034,2.597112,-0.966339,-0.780354,0.294373,0.822811,0.486135,0.000000,0.000000,0.000000,-1,-0.065724,1.027705,0.602272,0.699295,0.491490,-0.486654
"2019-05-06 15:53:47.703 +0000",1557158027.703047,2.592348,-0.976432,-0.806133,0.292335,0.828505,0.477620,0.000000,0.000000,0.000000,-1,1.234333,0.872065,0.247371,0.589135,1.078707,0.260570
"2019-05-06 15:53:47.723 +0000",1557158027.723020,2.572531,-0.996324,-0.847015,0.292802,0.839479,0.457757,0.000000,0.000000,0.000000,-1,1.536617,0.419710,0.562554,0.186309,0.146910,-0.037850
"2019-05-06 15:53:47.743 +0000",1557158027.743052,2.527643,-1.018562,-0.899894,0.302217,0.851354,0.428790,0.000000,0.000000,0.000000,-1,1.759308,-0.069984,0.472376,-0.161088,-0.174276,-0.122760
"2019-05-06 15:53:47.763 +0000",1557158027.763051,2.493033,-1.041387,-0.944287,0.305054,0.863105,0.402481,0.000000,0.000000,0.000000,-1,1.455724,0.282294,0.152308,-0.187470,-0.123069,-0.141922
"2019-05-06 15:53:47.783 +0000",1557158027.783073,2.468745,-1.062901,-0.979720,0.303094,0.873770,0.380342,0.000000,0.000000,0.000000,-1,1.266854,0.330202,-0.015066,-0.050302,0.060938,-0.268022
"2019-05-06 15:53:47.803 +0000",1557158027.803077,2.444875,-1.083113,-1.010262,0.300690,0.883421,0.359379,0.000000,0.000000,0.000000,-1,1.227737,0.037225,-0.060629,0.263885,0.318301,-0.104969
"2019-05-06 15:53:47.823 +0000",1557158027.823058,2.410345,-1.102473,-1.046269,0.301438,0.892326,0.335989,0.000000,0.000000,0.000000,-1,1.338107,-0.239145,0.004400,0.260467,0.320381,-0.116858
"2019-05-06 15:53:47.843 +0000",1557158027.843092,2.360831,-1.123594,-1.091241,0.304363,0.901660,0.307199,0.000000,0.000000,0.000000,-1,1.492026,-0.549144,0.004341,0.148502,0.097363,-0.056131
"2019-05-06 15:53:47.863 +0000",1557158027.863074,2.305446,-1.144389,-1.142065,0.306920,0.910457,0.277249,0.000000,0.000000,0.000000,-1,1.477502,-0.367452,-0.031608,-0.018407,-0.114391,-0.046719
"2019-05-06 15:53:47.883 +0000",1557158027.883079,2.254677,-1.164144,-1.192519,0.306591,0.918450,0.249902,0.000000,0.000000,0.000000,-1,1.380765,-0.179601,-0.115492,-0.018413,-0.227792,-0.103433
"2019-05-06 15:53:47.903 +0000",1557158027.903099,2.204214,-1.182727,-1.243937,0.304995,0.925641,0.223977,0.000000,0.000000,0.000000,-1,1.353157,-0.131611,-0.110300,0.042249,-0.279783,-0.057244
"2019-05-06 15:53:47.923 +0000",1557158027.923121,2.146859,-1.199536,-1.302904,0.304241,0.931871,0.197621,0.000000,0.000000,0.000000,-1,1.390526,-0.158730,-0.036600,0.029667,-0.181261,-0.094975
"2019-05-06 15:53:47.943 +0000",1557158027.943101,2.080819,-1.213887,-1.368593,0.304916,0.936981,0.170566,0.000000,0.000000,0.000000,-1,1.358358,-0.253181,-0.012605,0.011231,-0.134765,-0.063709
"2019-05-06 15:53:47.963 +0000",1557158027.963110,2.012659,-1.226439,-1.434783,0.305169,0.941292,0.144363,0.000000,0.000000,0.000000,-1,1.247226,-0.329925,-0.052554,-0.091347,-0.181054,-0.124786
"2019-05-06 15:53:47.983 +0000",1557158027.983141,1.945881,-1.236717,-1.497195,0.305103,0.944713,0.120127,0.000000,0.000000,0.000000,-1,1.098769,-0.429727,-0.059207,-0.098087,-0.203532,-0.139475
"2019-05-06 15:53:48.003 +0000",1557158028.003144,1.883363,-1.244418,-1.552765,0.305080,0.947210,0.098590,0.000000,0.000000,0.000000,-1,0.902319,-0.539994,-0.056083,-0.080578,-0.251867,-0.144473
"2019-05-06 15:53:48.023 +0000",1557158028.023153,1.828469,-1.249875,-1.598565,0.305027,0.948945,0.080384,0.000000,0.000000,0.000000,-1,0.698538,-0.584347,-0.062847,0.055599,-0.270417,-0.195405
"2019-05-06 15:53:48.043 +0000",1557158028.043163,1.784092,-1.253424,-1.633016,0.304999,0.950059,0.066060,0.000000,0.000000,0.000000,-1,0.486389,-0.577329,-0.037789,0.116922,-0.242677,-0.159276
"2019-05-06 15:53:48.063 +0000",1557158028.063154,1.750671,-1.255930,-1.657415,0.304693,0.950838,0.055405,0.000000,0.000000,0.000000,-1,0.364072,-0.432434,-0.047744,0.126322,-0.243150,-0.097749
"2019-05-06 15:53:48.083 +0000",1557158028.083175,1.724255,-1.257764,-1.682279,0.304326,0.951404,0.047071,0.000000,0.000000,0.000000,-1,0.397070,0.013419,-0.047697,0.073115,-0.252658,0.087023
"2019-05-06 15:53:48.103 +0000",1557158028.103183,1.713058,-1.259340,-1.700728,0.303349,0.951888,0.043449,0.000000,0.000000,0.000000,-1,0.168886,0.474902,-0.022509,-0.067662,-0.245117,0.229867
"2019-05-06 15:53:48.123 +0000",1557158028.123167,1.728769,-1.259354,-1.701501,0.302616,0.951893,0.048207,0.000000,0.000000,0.000000,-1,-0.031908,0.806252,-0.025632,-0.141514,-0.156116,0.018688
"2019-05-06 15:53:48.143 +0000",1557158028.143197,1.729680,-1.261473,-1.704963,0.300580,0.952540,0.048163,0.000000,0.000000,0.000000,-1,0.164523,0.028104,-0.127258,-0.366940,-0.006342,0.012002
"2019-05-06 15:53:48.163 +0000",1557158028.163205,1.723714,-1.265232,-1.705239,0.297321,0.953677,0.045824,0.000000,0.000000,0.000000,-1,-0.058296,-0.391191,-0.177131,-0.299595,0.048963,0.108473
"2019-05-06 15:53:48.183 +0000",1557158028.183213,1.731559,-1.265726,-1.684193,0.296487,0.953826,0.048079,0.000000,0.000000,0.000000,-1,-0.454415,-0.729487,-0.002716,-0.107721,0.208894,0.104189
"2019-05-06 15:53:48.203 +0000",1557158028.203218,1.744386,-1.262056,-1.652111,0.299292,0.952717,0.052482,0.000000,0.000000,0.000000,-1,-0.501626,-0.950634,0.137199,0.171808,0.307262,0.128914
"2019-05-06 15:53:48.223 +0000",1557158028.223202,1.747531,-1.257170,-1.628179,0.303704,0.951221,0.054241,0.000000,0.000000,0.000000,-1,-0.336270,-0.957888,0.198745,0.251288,0.208172,0.165943
"2019-05-06 15:53:48.243 +0000",1557158028.243232,1.741597,-1.251582,-1.616835,0.309254,0.949482,0.053340,0.000000,0.000000,0.000000,-1,-0.146948,-0.749048,0.272070,0.245739,0.209911,0.166844
"2019-05-06 15:53:48.263 +0000",1557158028.263238,1.726638,-1.245829,-1.619138,0.315409,0.947661,0.049556,0.000000,0.000000,0.000000,-1,0.071026,-0.572572,0.300625,0.146917,0.079210,0.098973
"2019-05-06 15:53:48.283 +0000",1557158028.283229,1.700834,-1.240371,-1.635395,0.321706,0.945905,0.042071,0.000000,0.000000,0.000000,-1,0.323786,-0.545535,0.284922,0.190257,0.204410,0.070905
"2019-05-06 15:53:48.303 +0000",1557158028.303256,1.657904,-1.235754,-1.669395,0.327563,0.944396,0.028606,0.000000,0.000000,0.000000,-1,0.636287,-0.525821,0.297930,0.170698,0.223160,0.102849
"2019-05-06 15:53:48.323 +0000",1557158028.323259,1.604397,-1.231003,-1.713898,0.333104,0.942824,0.011197,0.000000,0.000000,0.000000,-1,0.731974,-0.621116,0.252208,-0.042791,0.540697,-0.077038
"2019-05-06 15:53:48.343 +0000",1557158028.343255,1.558796,-1.227864,-1.747154,0.336226,0.941773,-0.004035,0.000000,0.000000,0.000000,-1,0.403979,-0.791091,0.086165,0.031099,0.662216,-0.121469
"2019-05-06 15:53:48.363 +0000",1557158028.363273,1.530432,-1.227820,-1.756538,0.336017,0.941758,-0.013570,0.000000,0.000000,0.000000,-1,0.007640,-1.057093,0.000803,0.031307,0.662231,-0.111933
"2019-05-06 15:53:48.383 +0000",1557158028.383250,1.521503,-1.226666,-1.746695,0.336968,0.941369,-0.016624,0.000000,0.000000,0.000000,-1,-0.227130,-0.718537,0.086353,0.394981,0.390662,0.020545
"2019-05-06 15:53:48.403 +0000",1557158028.403287,1.531701,-1.224374,-1.728374,0.339275,0.940593,-0.013271,0.000000,0.000000,0.000000,-1,-0.350567,-0.186528,0.169685,0.307819,0.116139,-0.017430
"2019-05-06 15:53:48.423 +0000",1557158028.423279,1.556075,-1.219648,-1.701521,0.343940,0.938978,-0.005064,0.000000,0.000000,0.000000,-1,-0.521599,0.026550,0.282332,0.303155,0.117754,-0.025637
"2019-05-06 15:53:48.443 +0000",1557158028.443289,1.598633,-1.214339,-1.659643,0.348821,0.937139,0.009712,0.000000,0.000000,0.000000,-1,-0.893301,0.262020,0.227751,-0.046743,-0.073873,0.051796
"2019-05-06 15:53:48.463 +0000",1557158028.463310,1.672687,-1.209784,-1.587822,0.351389,0.935540,0.035928,0.000000,0.000000,0.000000,-1,-1.489412,0.341822,0.086881,-0.116450,0.009483,0.011695
"2019-05-06 15:53:48.483 +0000",1557158028.483318,1.769900,-1.206482,-1.490216,0.349270,0.934368,0.070474,0.000000,0.000000,0.000000,-1,-1.824744,0.251380,-0.114743,-0.106609,0.021427,-0.011499
"2019-05-06 15:53:48.503 +0000",1557158028.503318,1.873184,-1.201969,-1.383740,0.344164,0.932751,0.107363,0.000000,0.000000,0.000000,-1,-1.937149,0.194472,-0.325612,0.010343,0.065708,0.063749
"2019-05-06 15:53:48.523 +0000",1557158028.523330,1.980930,-1.195881,-1.275578,0.335825,0.930538,0.146013,0.000000,0.000000,0.000000,-1,-1.938863,0.441647,-0.419610,0.016012,0.056736,-0.271028
"2019-05-06 15:53:48.543 +0000",1557158028.543316,2.070671,-1.187064,-1.179191,0.328576,0.927274,0.179448,0.000000,0.000000,0.000000,-1,-1.712599,-0.443860,-0.373485,0.042289,-0.008008,-0.467412
"2019-05-06 15:53:48.563 +0000",1557158028.563323,2.135167,-1.174684,-1.091184,0.326001,0.922568,0.206377,0.000000,0.000000,0.000000,-1,-1.789125,-0.881190,-0.257081,0.050815,-0.023062,-0.132188
"2019-05-06 15:53:48.583 +0000",1557158028.583352,2.193963,-1.157745,-1.008427,0.325955,0.915900,0.234264,0.000000,0.000000,0.000000,-1,-1.832788,-0.890237,-0.204614,0.128344,-0.124549,-0.181881
"2019-05-06 15:53:48.603 +0000",1557158028.603348,2.241335,-1.140016,-0.934512,0.327168,0.908640,0.259488,0.000000,0.000000,0.000000,-1,-1.649720,-1.048023,-0.194753,0.128337,-0.242228,-0.105694
"2019-05-06 15:53:48.623 +0000",1557158028.623340,2.278738,-1.123700,-0.873549,0.328456,0.901706,0.281144,0.000000,0.000000,0.000000,-1,-1.446422,-0.739810,-0.196649,0.108143,-0.254749,-0.133165
"2019-05-06 15:53:48.643 +0000",1557158028.643373,2.314045,-1.109069,-0.822444,0.328007,0.895284,0.301459,0.000000,0.000000,0.000000,-1,-1.251657,-0.435791,-0.193167,0.101894,-0.263265,-0.200324
"2019-05-06 15:53:48.663 +0000",1557158028.663366,2.342960,-1.095011,-0.779542,0.328138,0.888933,0.319566,0.000000,0.000000,0.000000,-1,-1.162258,-0.552516,-0.132007,0.052568,-0.294649,-0.215867
"2019-05-06 15:53:48.683 +0000",1557158028.683366,2.363740,-1.079542,-0.741325,0.331039,0.881742,0.336073,0.000000,0.000000,0.000000,-1,-1.177401,-0.697639,-0.055509,-0.134536,-0.276258,-0.276930
"2019-05-06 15:53:48.703 +0000",1557158028.703392,2.379350,-1.064943,-0.705615,0.334606,0.874762,0.350473,0.000000,0.000000,0.000000,-1,-1.056293,-0.840181,-0.144858,-0.181301,-0.288855,-0.306298
"2019-05-06 15:53:48.723 +0000",1557158028.723400,2.386700,-1.054274,-0.673831,0.338397,0.869542,0.359700,0.000000,0.000000,0.000000,-1,-0.841657,-1.137002,-0.208123,-0.206287,-0.371343,-0.308049
"2019-05-06 15:53:48.743 +0000",1557158028.743405,2.380058,-1.046270,-0.650247,0.345570,0.865561,0.362470,0.000000,0.000000,0.000000,-1,-0.599175,-1.493080,-0.099291,-0.199056,-0.406623,-0.237409
"2019-05-06 15:53:48.763 +0000",1557158028.763413,2.357557,-1.041749,-0.636652,0.356398,0.863288,0.357371,0.000000,0.000000,0.000000,-1,-0.268185,-1.777874,-0.097771,-0.180953,-0.332435,-0.086588
"2019-05-06 15:53:48.783 +0000",1557158028.783422,2.327666,-1.043040,-0.630468,0.366109,0.863939,0.345794,0.000000,0.000000,0.000000,-1,0.046506,-1.663284,-0.190899,-0.167943,-0.302080,0.044679
"2019-05-06 15:53:48.803 +0000",1557158028.803426,2.298586,-1.048617,-0.629250,0.372405,0.866734,0.331792,0.000000,0.000000,0.000000,-1,0.206902,-1.432033,-0.242523,-0.138198,-0.199162,0.086420
"2019-05-06 15:53:48.823 +0000",1557158028.823418,2.272412,-1.055333,-0.627684,0.376506,0.870064,0.318169,0.000000,0.000000,0.000000,-1,0.156859,-1.354817,-0.310011,-0.130718,-0.067543,0.124428
"2019-05-06 15:53:48.843 +0000",1557158028.843411,2.253414,-1.061948,-0.619756,0.378009,0.873306,0.307321,0.000000,0.000000,0.000000,-1,0.004430,-1.257539,-0.420040,-0.082660,0.035660,0.170050
"2019-05-06 15:53:48.863 +0000",1557158028.863446,2.242827,-1.067285,-0.604138,0.377588,0.875894,0.300396,0.000000,0.000000,0.000000,-1,-0.237413,-1.180454,-0.420798,0.052954,0.115653,0.114567
"2019-05-06 15:53:48.883 +0000",1557158028.883433,2.240308,-1.066682,-0.580853,0.378757,0.875603,0.299771,0.000000,0.000000,0.000000,-1,-0.542042,-1.131680,-0.262234,0.189739,0.162376,0.047016
"2019-05-06 15:53:48.903 +0000",1557158028.903432,2.239965,-1.063607,-0.557707,0.380970,0.874113,0.301310,0.000000,0.000000,0.000000,-1,-0.507318,-0.879343,-0.241034,0.179149,0.129564,-0.009257
"2019-05-06 15:53:48.923 +0000",1557158028.923468,2.262619,-1.058860,-0.526567,0.377239,0.871798,0.312506,0.000000,0.000000,0.000000,-1,-0.931474,0.187692,-0.261855,0.454427,0.227964,-0.217642
"2019-05-06 15:53:48.943 +0000",1557158028.943459,2.288989,-1.048419,-0.500896,0.375701,0.866636,0.328316,0.000000,0.000000,0.000000,-1,-0.638182,-0.056347,0.144236,0.134263,0.134814,-0.102516
"2019-05-06 15:53:48.963 +0000",1557158028.963484,2.282737,-1.039359,-0.497327,0.383675,0.862079,0.331077,0.000000,0.000000,0.000000,-1,-0.252995,-0.550323,0.339816,-0.164513,-0.087559,0.030800
"2019-05-06 15:53:48.983 +0000",1557158028.983488,2.272308,-1.031726,-0.499925,0.392123,0.858186,0.331295,0.000000,0.000000,0.000000,-1,-0.214101,-0.292234,0.287307,-0.389315,-0.254106,-0.087597
"2019-05-06 15:53:49.003 +0000",1557158029.003496,2.281781,-1.025106,-0.491789,0.393263,0.854769,0.338695,0.000000,0.000000,0.000000,-1,-0.485008,0.330731,0.018257,-0.081145,0.134687,-0.472530
"2019-05-06 15:53:49.024 +0000",1557158029.023503,2.298165,-1.018478,-0.472441,0.391884,0.851311,0.348851,0.000000,0.000000,0.000000,-1,-0.586990,-0.344011,-0.132201,0.079216,0.374702,-0.533849
"2019-05-06 15:53:49.043 +0000",1557158029.043488,2.290587,-1.016130,-0.456997,0.396018,0.850076,0.347188,0.000000,0.000000,0.000000,-1,-0.229123,-1.432922,-0.196533,0.138558,0.435843,-0.296575
"2019-05-06 15:53:49.064 +0000",1557158029.063517,2.259756,-1.018821,-0.453604,0.404766,0.851490,0.333360,0.000000,0.000000,0.000000,-1,0.137167,-1.705601,-0.138568,-0.005291,0.205501,-0.226534
"2019-05-06 15:53:49.084 +0000",1557158029.083526,2.225686,-1.022022,-0.456646,0.413722,0.853164,0.317717,0.000000,0.000000,0.000000,-1,0.144260,-1.472641,-0.024322,-0.053447,0.014496,-0.155379
"2019-05-06 15:53:49.104 +0000",1557158029.103505,2.194728,-1.022289,-0.460415,0.423173,0.853304,0.304626,0.000000,0.000000,0.000000,-1,0.064660,-1.370549,0.073648,-0.078584,0.020323,-0.165924
"2019-05-06 15:53:49.124 +0000",1557158029.123537,2.163614,-1.022110,-0.464053,0.432572,0.853210,0.291400,0.000000,0.000000,0.000000,-1,0.086882,-1.427240,0.045019,-0.060486,0.067993,-0.197314
"2019-05-06 15:53:49.144 +0000",1557158029.143524,2.128687,-1.023541,-0.469561,0.441447,0.853956,0.275470,0.000000,0.000000,0.000000,-1,0.219842,-1.552308,0.011082,-0.053844,0.055117,-0.168536
"2019-05-06 15:53:49.163 +0000",1557158029.163473,2.087503,-1.026058,-0.480698,0.450545,0.855263,0.255998,0.000000,0.000000,0.000000,-1,0.360577,-1.604182,0.076092,-0.002623,0.004875,-0.164644
"2019-05-06 15:53:49.183 +0000",1557158029.183454,2.040419,-1.027028,-0.496754,0.461354,0.855765,0.234133,0.000000,0.000000,0.000000,-1,0.393601,-1.684276,0.176734,-0.050817,-0.007758,-0.136446
"2019-05-06 15:53:49.203 +0000",1557158029.203473,1.993962,-1.026634,-0.511409,0.472037,0.855561,0.212594,0.000000,0.000000,0.000000,-1,0.287977,-1.703302,0.167475,-0.159598,0.008346,-0.130303
"2019-05-06 15:53:49.223 +0000",1557158029.223468,1.951755,-1.026295,-0.520203,0.480856,0.855386,0.192595,0.000000,0.000000,0.000000,-1,0.141588,-1.768805,0.064569,-0.187765,0.034751,-0.145216
"2019-05-06 15:53:49.243 +0000",1557158029.243474,1.913803,-1.026805,-0.522028,0.487406,0.855650,0.174064,0.000000,0.000000,0.000000,-1,0.014387,-1.832281,-0.045868,-0.143900,-0.016478,-0.096702
"2019-05-06 15:53:49.264 +0000",1557158029.263503,1.878775,-1.027195,-0.521014,0.492886,0.855851,0.156787,0.000000,0.000000,0.000000,-1,-0.025792,-1.736762,0.039220,-0.129452,-0.131318,-0.035189
"2019-05-06 15:53:49.283 +0000",1557158029.283494,1.844473,-1.025222,-0.519927,0.499598,0.854829,0.140247,0.000000,0.000000,0.000000,-1,-0.044866,-1.723437,0.100067,-0.106272,0.052046,0.010021
"2019-05-06 15:53:49.304 +0000",1557158029.303526,1.814249,-1.023676,-0.518751,0.504890,0.854026,0.125404,0.000000,0.000000,0.000000,-1,-0.057066,-1.478400,0.127821,-0.139823,-0.035636,0.014977
"2019-05-06 15:53:49.324 +0000",1557158029.323529,1.788052,-1.021027,-0.517668,0.510208,0.852645,0.112623,0.000000,0.000000,0.000000,-1,-0.057741,-1.316486,0.145245,-0.169922,-0.017409,-0.010817
"2019-05-06 15:53:49.344 +0000",1557158029.343522,1.763868,-1.017504,-0.516047,0.515728,0.850799,0.100828,0.000000,0.000000,0.000000,-1,-0.090623,-1.256598,0.171750,-0.233471,0.051972,-0.024901
"2019-05-06 15:53:49.364 +0000",1557158029.363547,1.742018,-1.013202,-0.512956,0.521409,0.848531,0.090159,0.000000,0.000000,0.000000,-1,-0.131954,-1.193076,0.248443,-0.244416,-0.030278,-0.046183
"2019-05-06 15:53:49.384 +0000",1557158029.383555,1.723218,-1.014127,-0.506546,0.522235,0.849020,0.080222,0.000000,0.000000,0.000000,-1,-0.289743,-1.209620,0.269188,-0.224994,0.111353,-0.039878
"2019-05-06 15:53:49.404 +0000",1557158029.403560,1.710717,-1.007873,-0.494969,0.528445,0.845699,0.074427,0.000000,0.000000,0.000000,-1,-0.373674,-1.052204,0.238795,-0.225192,0.172993,-0.059519
"2019-05-06 15:53:49.424 +0000",1557158029.423565,1.701115,-1.003373,-0.481754,0.532904,0.843289,0.069843,0.000000,0.000000,0.000000,-1,-0.376951,-1.035859,0.157583,-0.213781,0.167454,-0.084278
"2019-05-06 15:53:49.444 +0000",1557158029.443575,1.689037,-1.001264,-0.471036,0.535473,0.842153,0.063611,0.000000,0.000000,0.000000,-1,-0.251417,-1.092400,0.045414,-0.089230,0.115809,-0.072400
"2019-05-06 15:53:49.464 +0000",1557158029.463581,1.673747,-1.000605,-0.463671,0.536935,0.841798,0.055474,0.000000,0.000000,0.000000,-1,-0.188385,-1.018312,0.011824,-0.118997,0.066451,0.009010
"2019-05-06 15:53:49.484 +0000",1557158029.483561,1.660374,-1.001567,-0.457591,0.536822,0.842317,0.048217,0.000000,0.000000,0.000000,-1,-0.183833,-0.901169,0.021959,-0.196887,0.185698,-0.042403
"2019-05-06 15:53:49.504 +0000",1557158029.503596,1.649451,-0.999901,-0.448726,0.538715,0.841418,0.042460,0.000000,0.000000,0.000000,-1,-0.291506,-0.932328,0.087500,-0.203159,0.240812,-0.053965
"2019-05-06 15:53:49.524 +0000",1557158029.523596,1.640450,-0.996823,-0.435121,0.541657,0.839750,0.037789,0.000000,0.000000,0.000000,-1,-0.430311,-1.051798,0.148177,-0.132446,0.244295,-0.012704
"2019-05-06 15:53:49.544 +0000",1557158029.543589,1.635722,-0.992927,-0.416916,0.545090,0.837628,0.035440,0.000000,0.000000,0.000000,-1,-0.537707,-0.903831,0.127494,-0.133209,0.187244,0.094092
"2019-05-06 15:53:49.564 +0000",1557158029.563587,1.638295,-0.990580,-0.394455,0.546956,0.836344,0.036975,0.000000,0.000000,0.000000,-1,-0.680542,-0.805535,0.014233,-0.156896,0.195196,0.054944
"2019-05-06 15:53:49.584 +0000",1557158029.583621,1.646189,-0.992966,-0.363371,0.544656,0.837650,0.041141,0.000000,0.000000,0.000000,-1,-0.969429,-1.026928,-0.307562,-0.179300,0.535473,-0.391971
"2019-05-06 15:53:49.604 +0000",1557158029.603607,1.662953,-1.000772,-0.313988,0.537362,0.841888,0.049662,0.000000,0.000000,0.000000,-1,-1.503608,-1.305819,-0.564421,-0.009958,0.360917,-0.143641
"2019-05-06 15:53:49.624 +0000",1557158029.623635,1.698619,-1.008496,-0.245741,0.528784,0.846031,0.067961,0.000000,0.000000,0.000000,-1,-1.920675,-0.885744,-0.571672,-0.001380,0.356774,-0.161940
"2019-05-06 15:53:49.644 +0000",1557158029.643642,1.753080,-1.012550,-0.167772,0.520924,0.848185,0.096022,0.000000,0.000000,0.000000,-1,-2.024051,-0.438956,-0.493345,0.237163,-0.012233,-0.266523
"2019-05-06 15:53:49.664 +0000",1557158029.663663,1.810781,-1.014356,-0.094071,0.513030,0.849141,0.125539,0.000000,0.000000,0.000000,-1,-1.788677,-0.098800,-0.485856,0.110749,0.038997,-0.165105
"2019-05-06 15:53:49.684 +0000",1557158029.683658,1.868445,-1.014941,-0.027416,0.504468,0.849449,0.154751,0.000000,0.000000,0.000000,-1,-1.632639,0.080449,-0.521220,0.119311,0.038689,-0.194317
"2019-05-06 15:53:49.704 +0000",1557158029.703662,1.922188,-1.017388,0.036768,0.493473,0.850738,0.180910,0.000000,0.000000,0.000000,-1,-1.554632,-0.173807,-0.742355,-0.170002,0.352326,-0.250231
"2019-05-06 15:53:49.724 +0000",1557158029.723672,1.972548,-1.020806,0.108252,0.481062,0.852530,0.204384,0.000000,0.000000,0.000000,-1,-1.782141,-0.718420,-0.887745,-0.243559,0.260065,-0.222923
"2019-05-06 15:53:49.744 +0000",1557158029.743680,2.024814,-1.020742,0.192813,0.469777,0.852496,0.229260,0.000000,0.000000,0.000000,-1,-2.137196,-1.154324,-0.919061,-0.211506,0.227780,-0.249188
"2019-05-06 15:53:49.764 +0000",1557158029.763683,2.074746,-1.015828,0.283947,0.461411,0.849917,0.254441,0.000000,0.000000,0.000000,-1,-2.257280,-1.485590,-0.855343,-0.111405,0.202741,-0.285371
"2019-05-06 15:53:49.784 +0000",1557158029.783672,2.117745,-1.009560,0.373232,0.454589,0.846598,0.276806,0.000000,0.000000,0.000000,-1,-2.141641,-1.681431,-0.956184,-0.020888,0.049200,-0.214748
"2019-05-06 15:53:49.804 +0000",1557158029.803670,2.155452,-1.005384,0.457746,0.446775,0.844368,0.295695,0.000000,0.000000,0.000000,-1,-1.953122,-1.705125,-1.070794,-0.047956,-0.008766,-0.254435
"2019-05-06 15:53:49.824 +0000",1557158029.823702,2.188499,-1.001892,0.539244,0.439162,0.842492,0.312001,0.000000,0.000000,0.000000,-1,-1.879839,-1.826708,-1.084311,-0.110426,-0.072762,-0.273579
"2019-05-06 15:53:49.844 +0000",1557158029.843712,2.214476,-0.996298,0.616301,0.434673,0.839465,0.326126,0.000000,0.000000,0.000000,-1,-1.826737,-2.015038,-0.941592,-0.085628,-0.054553,-0.259094
"2019-05-06 15:53:49.864 +0000",1557158029.863705,2.230733,-0.988561,0.687137,0.434432,0.835235,0.337121,0.000000,0.000000,0.000000,-1,-1.724669,-2.216553,-0.836306,-0.071838,-0.020660,-0.269540
"2019-05-06 15:53:49.884 +0000",1557158029.883699,2.238895,-0.980820,0.751099,0.436728,0.830954,0.344650,0.000000,0.000000,0.000000,-1,-1.572145,-2.259920,-0.768120,0.000116,-0.048300,-0.205460
"2019-05-06 15:53:49.904 +0000",1557158029.903734,2.240286,-0.973651,0.808291,0.440909,0.826944,0.348946,0.000000,0.000000,0.000000,-1,-1.411123,-2.306432,-0.693575,-0.009924,-0.029291,-0.191444
"2019-05-06 15:53:49.924 +0000",1557158029.923733,2.235482,-0.968068,0.858460,0.446207,0.823792,0.349666,0.000000,0.000000,0.000000,-1,-1.197746,-2.290470,-0.643999,-0.038156,-0.049119,-0.168407
"2019-05-06 15:53:49.944 +0000",1557158029.943725,2.226300,-0.964703,0.899984,0.451594,0.821880,0.347242,0.000000,0.000000,0.000000,-1,-0.939108,-2.090146,-0.554794,-0.099833,-0.047313,-0.123700
"2019-05-06 15:53:49.964 +0000",1557158029.963754,2.213073,-0.963342,0.932111,0.457042,0.821104,0.341908,0.000000,0.000000,0.000000,-1,-0.674144,-1.923863,-0.462248,-0.131694,-0.065931,-0.119283
"2019-05-06 15:53:49.984 +0000",1557158029.983760,2.193717,-0.962672,0.956196,0.464021,0.820721,0.333319,0.000000,0.000000,0.000000,-1,-0.529078,-1.994286,-0.324561,-0.135346,-0.051587,-0.095129
"2019-05-06 15:53:50.004 +0000",1557158030.003767,2.169844,-0.961170,0.976690,0.472863,0.819862,0.322842,0.000000,0.000000,0.000000,-1,-0.532270,-2.031010,-0.263528,-0.187935,0.024407,-0.049511
"2019-05-06 15:53:50.024 +0000",1557158030.023775,2.148404,-0.960908,0.997762,0.479855,0.819712,0.312748,0.000000,0.000000,0.000000,-1,-0.481844,-1.857071,-0.322092,-0.242489,0.040060,-0.072849
"2019-05-06 15:53:50.044 +0000",1557158030.043782,2.128543,-0.963551,1.016585,0.484132,0.821223,0.302009,0.000000,0.000000,0.000000,-1,-0.348460,-1.730738,-0.453255,-0.202287,0.049596,-0.101386
"2019-05-06 15:53:50.064 +0000",1557158030.063786,2.116706,-0.962480,1.042360,0.488424,0.820611,0.296714,0.000000,0.000000,0.000000,-1,-0.385778,-1.742235,-0.438193,0.016657,-0.036355,0.067865
"2019-05-06 15:53:50.084 +0000",1557158030.083796,2.101298,-0.962149,1.063551,0.493172,0.820422,0.289290,0.000000,0.000000,0.000000,-1,-0.618428,-1.507772,-0.202702,0.103462,-0.036609,0.173860
"2019-05-06 15:53:50.104 +0000",1557158030.103804,2.097835,-0.957890,1.086367,0.497186,0.817980,0.289335,0.000000,0.000000,0.000000,-1,-0.664868,-0.847537,-0.166051,0.018225,0.018309,0.140703
"2019-05-06 15:53:50.124 +0000",1557158030.123808,2.104532,-0.962351,1.106637,0.492091,0.820538,0.290799,0.000000,0.000000,0.000000,-1,-0.338790,-0.363313,-0.340930,-0.109477,0.041981,-0.101209
"2019-05-06 15:53:50.144 +0000",1557158030.143795,2.109684,-0.966083,1.121087,0.487955,0.822665,0.291757,0.000000,0.000000,0.000000,-1,-0.293957,-0.327410,-0.363626,0.171118,0.289502,0.064932
"2019-05-06 15:53:50.164 +0000",1557158030.163825,2.123470,-0.964588,1.142079,0.484933,0.821814,0.299102,0.000000,0.000000,0.000000,-1,-0.674817,-0.083136,-0.135281,0.174140,0.290353,0.057588
"2019-05-06 15:53:50.184 +0000",1557158030.183879,2.134294,-0.958937,1.161919,0.485585,0.818581,0.306809,0.000000,0.000000,0.000000,-1,-0.503848,-0.435258,-0.078605,0.000911,0.777381,-0.117920
"2019-05-06 15:53:50.204 +0000",1557158030.203809,2.129089,-0.957680,1.171411,0.488048,0.817859,0.304821,0.000000,0.000000,0.000000,-1,-0.152825,-0.832745,-0.058478,-0.335414,-0.155856,-0.288296
"2019-05-06 15:53:50.224 +0000",1557158030.223847,2.107455,-0.956788,1.171690,0.495155,0.817345,0.294566,0.000000,0.000000,0.000000,-1,0.009711,-1.199006,0.085835,-0.342521,-0.155342,-0.278041
"2019-05-06 15:53:50.244 +0000",1557158030.243850,2.082736,-0.953740,1.171617,0.504453,0.815585,0.283456,0.000000,0.000000,0.000000,-1,-0.131030,-1.239613,0.158975,-0.296628,-0.144840,-0.303384
"2019-05-06 15:53:50.264 +0000",1557158030.263844,2.057379,-0.948600,1.174033,0.515177,0.812600,0.272532,0.000000,0.000000,0.000000,-1,-0.205138,-1.499878,0.197701,-0.064707,0.289771,-0.379771
"2019-05-06 15:53:50.284 +0000",1557158030.283841,2.024067,-0.943939,1.177689,0.527367,0.809875,0.256878,0.000000,0.000000,0.000000,-1,-0.187142,-1.980531,0.121876,-0.003274,0.322602,-0.287518
"2019-05-06 15:53:50.304 +0000",1557158030.303857,1.984903,-0.942695,1.180968,0.537942,0.809145,0.236438,0.000000,0.000000,0.000000,-1,-0.042554,-2.061020,-0.048958,-0.043115,0.244429,-0.064929
"2019-05-06 15:53:50.324 +0000",1557158030.323879,1.948870,-0.945912,1.180250,0.543689,0.811031,0.215943,0.000000,0.000000,0.000000,-1,0.149243,-1.550816,-0.204416,-0.210193,-0.021205,0.018234
"2019-05-06 15:53:50.344 +0000",1557158030.343859,1.919576,-0.952361,1.175772,0.544854,0.814786,0.198134,0.000000,0.000000,0.000000,-1,0.278983,-1.198222,-0.260780,-0.211358,-0.024961,0.036043
"2019-05-06 15:53:50.364 +0000",1557158030.363864,1.888481,-0.958810,1.166835,0.545748,0.818508,0.179454,0.000000,0.000000,0.000000,-1,0.391087,-1.190299,-0.178883,-0.190966,-0.075375,-0.072566
"2019-05-06 15:53:50.384 +0000",1557158030.383900,1.851352,-0.966567,1.152019,0.545915,0.822940,0.157309,0.000000,0.000000,0.000000,-1,0.495527,-1.259150,-0.115830,-0.225969,0.169736,-0.130331
"2019-05-06 15:53:50.404 +0000",1557158030.403880,1.811650,-0.971746,1.135901,0.547583,0.825871,0.134498,0.000000,0.000000,0.000000,-1,0.488856,-1.358389,-0.148465,-0.230337,0.129512,-0.110359
"2019-05-06 15:53:50.424 +0000",1557158030.423905,1.772233,-0.976191,1.122978,0.548855,0.828370,0.112080,0.000000,0.000000,0.000000,-1,0.345715,-1.478258,-0.135823,-0.255322,0.001190,-0.108082
"2019-05-06 15:53:50.444 +0000",1557158030.443920,1.735075,-0.978932,1.113810,0.550398,0.829902,0.091241,0.000000,0.000000,0.000000,-1,0.226445,-1.464506,-0.048034,-0.234129,-0.034248,-0.121438
"2019-05-06 15:53:50.464 +0000",1557158030.463921,1.700805,-0.979704,1.107727,0.552565,0.830333,0.072246,0.000000,0.000000,0.000000,-1,0.158373,-1.422413,0.005333,-0.213683,0.004644,-0.069743
"2019-05-06 15:53:50.484 +0000",1557158030.483928,1.669676,-0.979822,1.102068,0.554449,0.830398,0.055003,0.000000,0.000000,0.000000,-1,0.163048,-1.250950,0.020565,-0.160772,0.119050,0.017980
"2019-05-06 15:53:50.504 +0000",1557158030.503941,1.642031,-0.980077,1.096440,0.555546,0.830540,0.039641,0.000000,0.000000,0.000000,-1,0.130236,-1.124480,-0.007682,-0.192951,0.088588,0.066820
"2019-05-06 15:53:50.524 +0000",1557158030.523942,1.618280,-0.980558,1.090801,0.555932,0.830808,0.026418,0.000000,0.000000,0.000000,-1,0.137103,-0.918011,-0.005425,-0.213235,0.085360,0.038371
"2019-05-06 15:53:50.544 +0000",1557158030.543952,1.597728,-0.979844,1.088247,0.556950,0.830410,0.015003,0.000000,0.000000,0.000000,-1,0.008040,-0.965243,0.042090,-0.265110,0.096286,-0.002491
"2019-05-06 15:53:50.564 +0000",1557158030.563962,1.579230,-0.978758,1.089966,0.558034,0.829805,0.004707,0.000000,0.000000,0.000000,-1,-0.092255,-1.005301,0.063876,-0.250142,0.066329,0.013726
"2019-05-06 15:53:50.584 +0000",1557158030.583963,1.563886,-0.976281,1.095617,0.560094,0.828420,-0.003871,0.000000,0.000000,0.000000,-1,-0.209375,-1.001970,0.178399,-0.218785,0.038706,0.060466
"2019-05-06 15:53:50.604 +0000",1557158030.603955,1.551489,-0.973551,1.104069,0.562262,0.826888,-0.010857,0.000000,0.000000,0.000000,-1,-0.249820,-0.945776,0.144081,-0.160178,0.133912,0.159981
"2019-05-06 15:53:50.624 +0000",1557158030.623983,1.542675,-0.971843,1.113199,0.563555,0.825926,-0.015852,0.000000,0.000000,0.000000,-1,-0.247348,-0.730581,0.044878,-0.176699,0.130495,0.118422
"2019-05-06 15:53:50.644 +0000",1557158030.643990,1.536196,-0.972780,1.122227,0.562667,0.826454,-0.019476,0.000000,0.000000,0.000000,-1,-0.249548,-0.676325,-0.083486,-0.178833,0.164574,0.112509
"2019-05-06 15:53:50.664 +0000",1557158030.663995,1.530144,-0.975193,1.131890,0.560545,0.827810,-0.022800,0.000000,0.000000,0.000000,-1,-0.293415,-0.707543,-0.135553,-0.138517,0.224710,0.100589
"2019-05-06 15:53:50.684 +0000",1557158030.684004,1.526835,-0.979021,1.144164,0.557297,0.829951,-0.024515,0.000000,0.000000,0.000000,-1,-0.396798,-0.641908,-0.200719,-0.164200,0.244527,0.120310
"2019-05-06 15:53:50.704 +0000",1557158030.704012,1.529303,-0.984198,1.161158,0.553055,0.832829,-0.022961,0.000000,0.000000,0.000000,-1,-0.542784,-0.562245,-0.253029,-0.142410,0.238338,0.104214
"2019-05-06 15:53:50.724 +0000",1557158030.724015,1.538789,-0.989987,1.184742,0.548419,0.836019,-0.017560,0.000000,0.000000,0.000000,-1,-0.734588,-0.487548,-0.274238,-0.115192,0.283137,0.019910
"2019-05-06 15:53:50.744 +0000",1557158030.744032,1.555062,-0.996948,1.216105,0.542801,0.839818,-0.008541,0.000000,0.000000,0.000000,-1,-0.937467,-0.543342,-0.374911,-0.074356,0.374125,-0.146747
"2019-05-06 15:53:50.764 +0000",1557158030.764003,1.578692,-1.005882,1.258594,0.535327,0.844635,0.004227,0.000000,0.000000,0.000000,-1,-1.314077,-0.562606,-0.475313,-0.066882,0.369309,-0.159516
"2019-05-06 15:53:50.784 +0000",1557158030.784007,1.624255,-1.015093,1.318812,0.526787,0.849530,0.028188,0.000000,0.000000,0.000000,-1,-1.711836,-0.066281,-0.522460,0.046486,0.174381,-0.128820
"2019-05-06 15:53:50.804 +0000",1557158030.804017,1.687817,-1.022354,1.387696,0.517793,0.853338,0.060871,0.000000,0.000000,0.000000,-1,-1.768363,0.384225,-0.496585,0.188033,-0.032430,-0.041233
"2019-05-06 15:53:50.824 +0000",1557158030.824053,1.758144,-1.025617,1.457015,0.509498,0.855034,0.096586,0.000000,0.000000,0.000000,-1,-1.757995,0.656483,-0.391065,0.196328,-0.034127,-0.076948
"2019-05-06 15:53:50.844 +0000",1557158030.844057,1.834003,-1.024951,1.525259,0.501262,0.854689,0.135069,0.000000,0.000000,0.000000,-1,-1.702668,1.055702,-0.363104,0.165867,0.251925,0.101778
"2019-05-06 15:53:50.864 +0000",1557158030.864046,1.915498,-1.023377,1.592262,0.489868,0.853871,0.175880,0.000000,0.000000,0.000000,-1,-1.711020,1.208898,-0.496136,0.022903,0.427120,-0.122826
"2019-05-06 15:53:50.884 +0000",1557158030.884072,1.995179,-1.020779,1.663430,0.476335,0.852516,0.215227,0.000000,0.000000,0.000000,-1,-1.784711,0.795768,-0.662790,-0.044557,0.373635,-0.165331
"2019-05-06 15:53:50.904 +0000",1557158030.904049,2.071109,-1.018999,1.738548,0.459966,0.851584,0.251468,0.000000,0.000000,0.000000,-1,-1.814550,0.464194,-0.865155,-0.139044,0.209375,-0.216464
"2019-05-06 15:53:50.924 +0000",1557158030.924088,2.140538,-1.015053,1.816552,0.444239,0.849509,0.284581,0.000000,0.000000,0.000000,-1,-1.898973,-0.079581,-0.878513,-0.114543,0.057428,-0.178365
"2019-05-06 15:53:50.944 +0000",1557158030.944095,2.199602,-1.007998,1.896662,0.431502,0.845765,0.313826,0.000000,0.000000,0.000000,-1,-1.962056,-0.596011,-0.925146,-0.120543,0.025862,-0.063841
"2019-05-06 15:53:50.964 +0000",1557158030.964099,2.255434,-0.998309,1.975722,0.419646,0.840556,0.342583,0.000000,0.000000,0.000000,-1,-1.988255,-0.432610,-0.863888,-0.056151,-0.049052,0.123741
"2019-05-06 15:53:50.984 +0000",1557158030.984106,2.308384,-0.981922,2.047685,0.411067,0.831566,0.373526,0.000000,0.000000,0.000000,-1,-2.023880,-0.371181,-0.530951,0.051122,-0.195275,-0.081900
"2019-05-06 15:53:51.004 +0000",1557158031.004116,2.347543,-0.960551,2.105808,0.408711,0.819507,0.401700,0.000000,0.000000,0.000000,-1,-1.848837,-0.471457,-0.267215,0.025157,-0.234836,-0.144528
"2019-05-06 15:53:51.024 +0000",1557158031.024110,2.374817,-0.939697,2.150552,0.409375,0.807379,0.424913,0.000000,0.000000,0.000000,-1,-1.530836,-0.441344,-0.156039,-0.074307,-0.232245,-0.164705
"2019-05-06 15:53:51.044 +0000",1557158031.044131,2.395685,-0.922329,2.185657,0.409875,0.797010,0.443596,0.000000,0.000000,0.000000,-1,-1.274752,-0.343211,-0.195560,-0.141396,0.000735,-0.098488
"2019-05-06 15:53:51.064 +0000",1557158031.064109,2.415310,-0.908260,2.218032,0.408497,0.788435,0.459893,0.000000,0.000000,0.000000,-1,-1.138330,-0.311299,-0.291071,-0.148274,0.034915,-0.092156
"2019-05-06 15:53:51.084 +0000",1557158031.084136,2.430854,-0.896085,2.248435,0.407532,0.780887,0.473427,0.000000,0.000000,0.000000,-1,-1.037497,-0.505367,-0.311805,-0.104035,-0.011570,-0.115471
"2019-05-06 15:53:51.104 +0000",1557158031.104123,2.440259,-0.885728,2.275553,0.408258,0.774376,0.483391,0.000000,0.000000,0.000000,-1,-0.892722,-0.615260,-0.310606,-0.063288,-0.094856,-0.092354
"2019-05-06 15:53:51.124 +0000",1557158031.124141,2.447576,-0.877917,2.298695,0.408567,0.769410,0.491000,0.000000,0.000000,0.000000,-1,-0.693029,-0.492148,-0.304186,-0.057416,-0.196824,-0.079074
"2019-05-06 15:53:51.144 +0000",1557158031.144137,2.451671,-0.873071,2.315475,0.408921,0.766306,0.495539,0.000000,0.000000,0.000000,-1,-0.428266,-0.406852,-0.224088,-0.089356,-0.198435,-0.056468
"2019-05-06 15:53:51.164 +0000",1557158031.164170,2.450019,-0.870913,2.323760,0.410793,0.764917,0.496135,0.000000,0.000000,0.000000,-1,-0.139038,-0.384986,-0.088245,-0.140102,-0.158945,-0.022243
"2019-05-06 15:53:51.184 +0000",1557158031.184178,2.440584,-0.871094,2.323203,0.415366,0.765034,0.492132,0.000000,0.000000,0.000000,-1,0.112698,-0.437549,0.046959,-0.127128,-0.120915,0.020884
"2019-05-06 15:53:51.204 +0000",1557158031.204182,2.475297,-0.868543,2.353350,0.399241,0.763388,0.507784,0.000000,0.000000,0.000000,-1,0.313360,-0.400496,0.074097,-0.099422,-0.049689,0.065794
"2019-05-06 15:53:51.224 +0000",1557158031.224175,2.459027,-0.874444,2.343245,0.404601,0.767187,0.497717,0.000000,0.000000,0.000000,-1,0.497734,-0.437156,0.060987,-0.140944,-0.035177,0.100977
"2019-05-06 15:53:51.244 +0000",1557158031.244168,2.442715,-0.883074,2.331886,0.408391,0.772694,0.485964,0.000000,0.000000,0.000000,-1,0.591714,-0.306261,-0.043405,-0.162022,0.003887,0.145078
"2019-05-06 15:53:51.264 +0000",1557158031.264203,2.443434,-0.894664,2.330241,0.402257,0.779999,0.479365,0.000000,0.000000,0.000000,-1,0.609360,0.069932,-0.228776,-0.152135,0.167373,0.274694
"2019-05-06 15:53:51.284 +0000",1557158031.284210,2.443597,-0.908693,2.324088,0.395107,0.788701,0.471000,0.000000,0.000000,0.000000,-1,0.707994,0.376376,-0.338240,-0.079098,0.004558,0.071511
"2019-05-06 15:53:51.304 +0000",1557158031.304219,2.446845,-0.915407,2.318394,0.390176,0.792811,0.468203,0.000000,0.000000,0.000000,-1,0.030800,0.516777,0.121939,0.224463,0.036901,0.156767
"2019-05-06 15:53:51.324 +0000",1557158031.324224,2.453522,-0.902978,2.313387,0.393269,0.785175,0.478372,0.000000,0.000000,0.000000,-1,-0.333161,0.457525,0.705018,0.609279,0.675717,-0.180017
"2019-05-06 15:53:51.344 +0000",1557158031.344228,2.437362,-0.903983,2.290141,0.400436,0.785797,0.471354,0.000000,0.000000,0.000000,-1,1.032398,0.054551,0.314763,0.161652,0.673890,0.000143
"2019-05-06 15:53:51.364 +0000",1557158031.364240,2.416788,-0.922979,2.255877,0.400079,0.797403,0.451758,0.000000,0.000000,0.000000,-1,1.479657,0.372543,0.142446,0.097708,0.601294,0.294351
"2019-05-06 15:53:51.384 +0000",1557158031.384245,2.380886,-0.939838,2.216270,0.406710,0.807463,0.427307,0.000000,0.000000,0.000000,-1,1.328881,-0.426717,0.356758,-0.104067,-0.179838,-0.139877
"2019-05-06 15:53:51.404 +0000",1557158031.404253,2.346677,-0.952880,2.180716,0.413534,0.815088,0.405736,0.000000,0.000000,0.000000,-1,1.149093,-0.138198,0.202161,-0.253652,-0.072763,-0.179738
"2019-05-06 15:53:51.424 +0000",1557158031.424241,2.322709,-0.966718,2.151590,0.414861,0.823026,0.387968,0.000000,0.000000,0.000000,-1,1.042492,-0.003325,0.018176,-0.138631,0.080493,-0.238172
"2019-05-06 15:53:51.444 +0000",1557158031.444266,2.297660,-0.981187,2.124007,0.415505,0.831158,0.369502,0.000000,0.000000,0.000000,-1,1.085720,-0.202662,-0.009864,0.131233,0.156253,-0.205501
"2019-05-06 15:53:51.464 +0000",1557158031.464249,2.265666,-0.996699,2.090808,0.417157,0.839683,0.347724,0.000000,0.000000,0.000000,-1,1.294843,-0.170864,0.023635,0.262088,0.119774,-0.025153
"2019-05-06 15:53:51.484 +0000",1557158031.484281,2.227215,-1.014962,2.046689,0.417997,0.849460,0.322018,0.000000,0.000000,0.000000,-1,1.587369,-0.011863,0.016848,0.213137,0.062313,0.017216
"2019-05-06 15:53:51.504 +0000",1557158031.504286,2.186062,-1.034956,1.996639,0.416937,0.859840,0.294685,0.000000,0.000000,0.000000,-1,1.631343,0.148137,-0.055518,-0.033285,-0.014488,-0.040992
"2019-05-06 15:53:51.524 +0000",1557158031.524271,2.147110,-1.055302,1.945028,0.413340,0.870049,0.268635,0.000000,0.000000,0.000000,-1,1.661556,0.367570,-0.150539,-0.149989,-0.087395,-0.077046
"2019-05-06 15:53:51.544 +0000",1557158031.544303,2.105947,-1.075707,1.889071,0.408686,0.879926,0.242293,0.000000,0.000000,0.000000,-1,1.692508,0.373975,-0.141036,-0.142161,-0.087339,-0.070646
"2019-05-06 15:53:51.564 +0000",1557158031.564276,2.058025,-1.094194,1.829186,0.405378,0.888559,0.214783,0.000000,0.000000,0.000000,-1,1.641920,0.150783,-0.117483,-0.192228,0.016989,-0.097550
"2019-05-06 15:53:51.584 +0000",1557158031.584300,2.004183,-1.110781,1.770101,0.402917,0.896046,0.186440,0.000000,0.000000,0.000000,-1,1.509919,-0.190979,-0.164729,-0.182901,0.046139,-0.071358
"2019-05-06 15:53:51.604 +0000",1557158031.604323,1.945623,-1.125832,1.712985,0.400542,0.902626,0.157584,0.000000,0.000000,0.000000,-1,1.414370,-0.440292,-0.219957,-0.178557,0.036888,-0.026007
"2019-05-06 15:53:51.624 +0000",1557158031.624328,1.884528,-1.139303,1.655866,0.397814,0.908342,0.129069,0.000000,0.000000,0.000000,-1,1.341754,-0.491174,-0.213140,-0.144762,-0.117418,-0.031856
"2019-05-06 15:53:51.644 +0000",1557158031.644335,1.820723,-1.149392,1.597465,0.396334,0.912515,0.101170,0.000000,0.000000,0.000000,-1,1.275695,-0.540118,-0.101712,-0.104006,-0.209894,-0.035771
"2019-05-06 15:53:51.664 +0000",1557158031.664344,1.757170,-1.155174,1.538222,0.396767,0.914865,0.074815,0.000000,0.000000,0.000000,-1,1.208993,-0.412257,0.026004,-0.093255,-0.219919,-0.001894
"2019-05-06 15:53:51.684 +0000",1557158031.684348,1.698744,-1.156642,1.480900,0.399127,0.915457,0.051348,0.000000,0.000000,0.000000,-1,1.119943,-0.262031,0.150473,-0.085360,-0.187338,-0.033159
"2019-05-06 15:53:51.704 +0000",1557158031.704356,1.645344,-1.154537,1.428090,0.403219,0.914608,0.030115,0.000000,0.000000,0.000000,-1,0.992135,-0.259869,0.250080,-0.045385,-0.103115,-0.030099
"2019-05-06 15:53:51.724 +0000",1557158031.724365,1.600651,-1.149796,1.383862,0.408492,0.912681,0.012199,0.000000,0.000000,0.000000,-1,0.828234,-0.149548,0.294839,-0.042326,-0.063849,0.015740
"2019-05-06 15:53:51.744 +0000",1557158031.744366,1.568096,-1.144094,1.350434,0.413870,0.910335,-0.001117,0.000000,0.000000,0.000000,-1,0.589511,-0.090522,0.297307,-0.045355,0.031727,0.021900
"2019-05-06 15:53:51.764 +0000",1557158031.764377,1.554916,-1.159878,1.336426,0.399401,0.916754,-0.006343,0.000000,0.000000,0.000000,-1,0.394442,-0.047824,0.268817,-0.114016,0.125665,0.029506
"2019-05-06 15:53:51.784 +0000",1557158031.784369,1.536768,-1.156048,1.316024,0.402727,0.915218,-0.013709,0.000000,0.000000,0.000000,-1,0.418892,-0.001025,0.145759,-0.150118,0.110097,0.004188
"2019-05-06 15:53:51.804 +0000",1557158031.804362,1.587526,-1.182146,1.361150,0.378887,0.925421,0.006339,0.000000,0.000000,0.000000,-1,0.332411,-0.089046,0.165629,-0.131618,0.130426,0.168130
"2019-05-06 15:53:51.824 +0000",1557158031.824398,1.573911,-1.178840,1.346642,0.381995,0.924164,0.001190,0.000000,0.000000,0.000000,-1,0.240944,0.022797,0.155746,-0.143881,0.212830,0.160691
"2019-05-06 15:53:51.844 +0000",1557158031.844395,1.562813,-1.176086,1.335674,0.384529,0.923108,-0.003070,0.000000,0.000000,0.000000,-1,0.188390,-0.104893,0.145775,-0.118309,0.191943,0.172336
"2019-05-06 15:53:51.864 +0000",1557158031.864381,1.552010,-1.172468,1.328574,0.387810,0.921711,-0.007286,0.000000,0.000000,0.000000,-1,0.120970,-0.250136,0.195725,-0.095573,0.152859,0.187538
"2019-05-06 15:53:51.884 +0000",1557158031.884418,1.540880,-1.168179,1.323319,0.391653,0.920038,-0.011720,0.000000,0.000000,0.000000,-1,0.112229,-0.353220,0.211158,-0.049322,0.212255,0.193849
"2019-05-06 15:53:51.904 +0000",1557158031.904424,1.529118,-1.163661,1.318964,0.395636,0.918259,-0.016499,0.000000,0.000000,0.000000,-1,0.047142,-0.378540,0.222112,-0.046408,0.281753,0.085728
"2019-05-06 15:53:51.924 +0000",1557158031.924431,1.526771,-1.160911,1.322723,0.398118,0.917167,-0.017539,0.000000,0.000000,0.000000,-1,-0.127757,-0.274292,0.050181,0.175033,0.519311,-0.286630
"2019-05-06 15:53:51.944 +0000",1557158031.944438,1.530901,-1.162615,1.333819,0.396625,0.917844,-0.015832,0.000000,0.000000,0.000000,-1,-0.321002,-0.262658,-0.128762,0.312726,0.344515,-0.226707
"2019-05-06 15:53:51.964 +0000",1557158031.964447,1.555595,-1.166631,1.362195,0.393206,0.919431,-0.005978,0.000000,0.000000,0.000000,-1,-0.718158,0.053489,-0.213537,0.281049,0.198703,-0.172352
"2019-05-06 15:53:51.984 +0000",1557158031.984453,1.609770,-1.171591,1.412093,0.388391,0.921370,0.015145,0.000000,0.000000,0.000000,-1,-1.128420,0.683874,-0.267662,0.305945,0.055879,0.011558
"2019-05-06 15:53:52.004 +0000",1557158032.004460,1.695853,-1.174958,1.481209,0.382571,0.922674,0.048094,0.000000,0.000000,0.000000,-1,-1.392411,1.370695,-0.283971,0.371503,-0.003820,0.099916
"2019-05-06 15:53:52.025 +0000",1557158032.024504,1.798772,-1.176263,1.556455,0.374432,0.923176,0.086872,0.000000,0.000000,0.000000,-1,-1.400138,1.762949,-0.339101,0.313770,0.058300,-0.013843
"2019-05-06 15:53:52.044 +0000",1557158032.044473,1.902463,-1.175979,1.631576,0.363677,0.923067,0.125246,0.000000,0.000000,0.000000,-1,-1.397229,1.686705,-0.418844,0.088548,0.203734,0.063597
"2019-05-06 15:53:52.065 +0000",1557158032.064504,2.011732,-1.173315,1.716717,0.350073,0.922039,0.165208,0.000000,0.000000,0.000000,-1,-1.714865,1.353193,-0.540401,-0.099844,0.228504,-0.013047
"2019-05-06 15:53:52.084 +0000",1557158032.084489,2.121560,-1.163313,1.815695,0.337697,0.918121,0.207399,0.000000,0.000000,0.000000,-1,-2.029669,0.685598,-0.399942,-0.128225,0.166306,-0.118639
"2019-05-06 15:53:52.104 +0000",1557158032.104481,2.209635,-1.146128,1.908233,0.330764,0.911175,0.245672,0.000000,0.000000,0.000000,-1,-1.991893,-0.108804,-0.321724,-0.184081,-0.019162,-0.250295
"2019-05-06 15:53:52.124 +0000",1557158032.124481,2.276830,-1.127412,1.988894,0.326443,0.903305,0.278344,0.000000,0.000000,0.000000,-1,-1.844151,-0.308268,-0.340415,-0.115109,-0.050690,-0.026101
"2019-05-06 15:53:52.144 +0000",1557158032.144498,2.339931,-1.109220,2.062363,0.319997,0.895352,0.309754,0.000000,0.000000,0.000000,-1,-1.771192,-0.050573,-0.431445,-0.033864,-0.065151,0.040603
"2019-05-06 15:53:52.165 +0000",1557158032.164515,2.396760,-1.088094,2.126801,0.314640,0.885744,0.341262,0.000000,0.000000,0.000000,-1,-1.799497,0.002666,-0.183906,0.131161,-0.192338,0.012543
"2019-05-06 15:53:52.185 +0000",1557158032.184508,2.439971,-1.062483,2.179387,0.314147,0.873567,0.371743,0.000000,0.000000,0.000000,-1,-1.732677,-0.239037,-0.056996,0.100999,-0.195161,-0.200768
"2019-05-06 15:53:52.205 +0000",1557158032.204531,2.469880,-1.038756,2.223703,0.315702,0.861774,0.397087,0.000000,0.000000,0.000000,-1,-1.543498,-0.463604,-0.139741,0.050799,-0.224155,-0.299781
"2019-05-06 15:53:52.225 +0000",1557158032.224510,2.496615,-1.017750,2.263338,0.315790,0.850928,0.419760,0.000000,0.000000,0.000000,-1,-1.426883,-0.271488,-0.172929,-0.076791,-0.279792,-0.199530
"2019-05-06 15:53:52.245 +0000",1557158032.244543,2.524300,-0.996707,2.299700,0.314345,0.839687,0.442846,0.000000,0.000000,0.000000,-1,-1.426514,-0.123365,-0.150107,-0.078505,-0.263622,-0.210805
"2019-05-06 15:53:52.265 +0000",1557158032.264552,2.547777,-0.975095,2.331681,0.313945,0.827755,0.465037,0.000000,0.000000,0.000000,-1,-1.352998,-0.202648,-0.069857,-0.054836,-0.218014,-0.234187
"2019-05-06 15:53:52.285 +0000",1557158032.284556,2.559747,-0.953847,2.354486,0.317952,0.815647,0.483349,0.000000,0.000000,0.000000,-1,-1.168720,-0.394296,0.088564,0.010662,-0.146992,-0.200664
"2019-05-06 15:53:52.305 +0000",1557158032.304564,2.563125,-0.936186,2.369064,0.324143,0.805303,0.496406,0.000000,0.000000,0.000000,-1,-0.823223,-0.430671,0.146586,0.033691,-0.121602,-0.152015
"2019-05-06 15:53:52.325 +0000",1557158032.324571,2.559239,-0.925735,2.374242,0.330681,0.799063,0.502144,0.000000,0.000000,0.000000,-1,-0.325107,-0.387798,0.172905,0.033180,-0.165625,-0.133613
"2019-05-06 15:53:52.345 +0000",1557158032.344569,2.548533,-0.923787,2.368856,0.336907,0.797890,0.499865,0.000000,0.000000,0.000000,-1,0.197622,-0.307701,0.202197,-0.059686,-0.151894,-0.053515
"2019-05-06 15:53:52.365 +0000",1557158032.364584,2.531582,-0.928905,2.355514,0.342987,0.800965,0.490729,0.000000,0.000000,0.000000,-1,0.548330,-0.337416,0.168353,-0.072907,-0.012192,0.008279
"2019-05-06 15:53:52.385 +0000",1557158032.384573,2.513016,-0.937971,2.341043,0.347754,0.806360,0.478383,0.000000,0.000000,0.000000,-1,0.640946,-0.306961,0.016370,-0.039985,0.151297,0.159007
"2019-05-06 15:53:52.405 +0000",1557158032.404581,2.501181,-0.947442,2.330604,0.348813,0.811925,0.468089,0.000000,0.000000,0.000000,-1,0.493279,-0.009359,-0.063609,-0.062649,0.135966,0.346105
"2019-05-06 15:53:52.425 +0000",1557158032.424605,2.500979,-0.954102,2.324431,0.345667,0.815795,0.463673,0.000000,0.000000,0.000000,-1,0.328802,0.315969,-0.015546,-0.045969,-0.152480,0.340221
"2019-05-06 15:53:52.445 +0000",1557158032.444608,2.493591,-0.904676,2.308673,0.372985,0.786225,0.492679,0.000000,0.000000,0.000000,-1,0.104641,0.417741,0.388095,0.112290,-0.167542,0.109692
"2019-05-06 15:53:52.465 +0000",1557158032.464611,2.503552,-0.897061,2.301929,0.371615,0.781496,0.501164,0.000000,0.000000,0.000000,-1,-0.229000,0.991416,0.315882,0.472242,0.435316,-0.250813
"2019-05-06 15:53:52.485 +0000",1557158032.484626,2.526609,-0.900401,2.295541,0.358454,0.783576,0.507464,0.000000,0.000000,0.000000,-1,0.660196,1.588586,0.036566,0.686789,1.144113,-0.178027
"2019-05-06 15:53:52.505 +0000",1557158032.504626,2.501676,-0.919182,2.253244,0.362141,0.795106,0.486478,0.000000,0.000000,0.000000,-1,1.792521,-0.383472,0.800671,0.576824,0.818694,-0.185254
"2019-05-06 15:53:52.525 +0000",1557158032.524638,2.445892,-0.936798,2.195019,0.379664,0.805666,0.454707,0.000000,0.000000,0.000000,-1,1.712670,-0.267038,0.707457,-0.471141,-0.239824,-0.267466
"2019-05-06 15:53:52.545 +0000",1557158032.544646,2.413037,-0.953312,2.153175,0.385485,0.815337,0.432003,0.000000,0.000000,0.000000,-1,1.226745,0.185418,0.235781,-0.403475,-0.272597,-0.230175
"2019-05-06 15:53:52.565 +0000",1557158032.564650,2.396653,-0.966149,2.127125,0.385383,0.822702,0.417900,0.000000,0.000000,0.000000,-1,0.889566,0.212167,0.048590,-0.186912,-0.076685,-0.277962
"2019-05-06 15:53:52.585 +0000",1557158032.584659,2.381308,-0.981373,2.105853,0.383073,0.831261,0.402814,0.000000,0.000000,0.000000,-1,1.065979,0.062396,-0.127350,0.210875,0.434409,-0.142316
"2019-05-06 15:53:52.605 +0000",1557158032.604667,2.353918,-1.001573,2.072093,0.381982,0.842320,0.380246,0.000000,0.000000,0.000000,-1,1.529910,-0.012686,0.037319,0.267890,0.229381,-0.056745
"2019-05-06 15:53:52.625 +0000",1557158032.624675,2.306074,-1.021401,2.022468,0.387266,0.852840,0.350269,0.000000,0.000000,0.000000,-1,1.634832,-0.450455,0.269650,0.043948,-0.055538,-0.048085
"2019-05-06 15:53:52.645 +0000",1557158032.644679,2.253322,-1.038211,1.968211,0.394014,0.861497,0.320273,0.000000,0.000000,0.000000,-1,1.652601,-0.099774,0.212507,-0.226808,-0.084062,-0.017325
"2019-05-06 15:53:52.665 +0000",1557158032.664670,2.206043,-1.058530,1.910354,0.394537,0.871636,0.290845,0.000000,0.000000,0.000000,-1,1.780897,0.159277,0.043390,-0.211325,-0.113915,-0.156950
"2019-05-06 15:53:52.685 +0000",1557158032.684695,2.151523,-1.075458,1.850838,0.397406,0.879808,0.260781,0.000000,0.000000,0.000000,-1,1.568903,-0.316904,0.190204,-0.177649,-0.125536,-0.166573
"2019-05-06 15:53:52.705 +0000",1557158032.704702,2.088836,-1.086625,1.793801,0.404401,0.885061,0.230493,0.000000,0.000000,0.000000,-1,1.362077,-0.795074,0.229176,-0.220776,0.027949,-0.126581
"2019-05-06 15:53:52.725 +0000",1557158032.724684,2.023169,-1.096016,1.741128,0.411160,0.889393,0.199817,0.000000,0.000000,0.000000,-1,1.247362,-1.011621,0.142886,-0.219845,-0.048146,-0.085834
"2019-05-06 15:53:52.745 +0000",1557158032.744716,1.956959,-1.104566,1.689889,0.416419,0.893269,0.169306,0.000000,0.000000,0.000000,-1,1.220575,-1.015449,0.061825,-0.208091,-0.112950,-0.080638
"2019-05-06 15:53:52.765 +0000",1557158032.764720,1.892715,-1.111328,1.640088,0.420691,0.896288,0.140309,0.000000,0.000000,0.000000,-1,1.099159,-0.971302,0.093962,-0.132788,-0.189684,-0.099827
"2019-05-06 15:53:52.785 +0000",1557158032.784699,1.834764,-1.115233,1.595527,0.424728,0.898013,0.114793,0.000000,0.000000,0.000000,-1,0.931960,-0.884649,0.107871,-0.116211,-0.192081,-0.124239
"2019-05-06 15:53:52.805 +0000",1557158032.804706,1.782596,-1.117216,1.556348,0.428395,0.898884,0.092116,0.000000,0.000000,0.000000,-1,0.824433,-0.802563,0.099230,-0.119878,-0.192951,-0.101561
"2019-05-06 15:53:52.825 +0000",1557158032.824742,1.738412,-1.118319,1.523145,0.431067,0.899367,0.072938,0.000000,0.000000,0.000000,-1,0.662710,-0.632103,0.082853,-0.010459,-0.089675,-0.047913
"2019-05-06 15:53:52.845 +0000",1557158032.844750,1.704687,-1.117590,1.495779,0.433932,0.899048,0.058449,0.000000,0.000000,0.000000,-1,0.545057,-0.365192,0.155618,0.023817,-0.001877,-0.023690
"2019-05-06 15:53:52.865 +0000",1557158032.864754,1.679711,-1.116336,1.471475,0.436377,0.898498,0.047717,0.000000,0.000000,0.000000,-1,0.514778,-0.051634,0.101980,-0.098471,0.105729,-0.026126
"2019-05-06 15:53:52.885 +0000",1557158032.884763,1.657254,-1.133482,1.448649,0.421926,0.905892,0.036570,0.000000,0.000000,0.000000,-1,0.334464,-0.122306,0.133724,-0.097723,0.054771,-0.009303
"2019-05-06 15:53:52.905 +0000",1557158032.904771,1.643956,-1.131867,1.433843,0.423834,0.905207,0.031063,0.000000,0.000000,0.000000,-1,0.245072,-0.016042,0.093965,-0.123007,0.247198,0.063236
"2019-05-06 15:53:52.925 +0000",1557158032.924779,1.635805,-1.130511,1.425225,0.425297,0.904630,0.027687,0.000000,0.000000,0.000000,-1,0.141560,-0.037291,0.074034,-0.203572,0.285098,0.159721
"2019-05-06 15:53:52.945 +0000",1557158032.944774,1.629939,-1.129199,1.422241,0.426637,0.904070,0.025262,0.000000,0.000000,0.000000,-1,-0.005004,-0.243517,0.067855,-0.249604,0.262342,0.143515
"2019-05-06 15:53:52.965 +0000",1557158032.964792,1.625571,-1.127655,1.427119,0.428136,0.903409,0.023475,0.000000,0.000000,0.000000,-1,-0.156052,-0.554991,0.073906,-0.229253,0.205310,0.117959
"2019-05-06 15:53:52.985 +0000",1557158032.984771,1.623273,-1.125595,1.439373,0.430046,0.902524,0.022588,0.000000,0.000000,0.000000,-1,-0.351496,-0.701316,0.092137,-0.076897,0.301837,-0.174276
"2019-05-06 15:53:53.005 +0000",1557158033.004797,1.628114,-1.124466,1.459317,0.430950,0.902037,0.024728,0.000000,0.000000,0.000000,-1,-0.442157,-0.637178,-0.021101,0.160710,0.465303,-0.261087
"2019-05-06 15:53:53.025 +0000",1557158033.024785,1.638598,-1.127156,1.484549,0.428244,0.903195,0.029080,0.000000,0.000000,0.000000,-1,-0.632173,-0.573893,-0.257940,0.373956,0.366260,-0.290006
"2019-05-06 15:53:53.045 +0000",1557158033.044804,1.665151,-1.132416,1.523823,0.422585,0.905440,0.039992,0.000000,0.000000,0.000000,-1,-0.922930,-0.360150,-0.345725,0.330314,0.285935,-0.249754
"2019-05-06 15:53:53.065 +0000",1557158033.064801,1.713398,-1.135960,1.576012,0.416986,0.906939,0.059869,0.000000,0.000000,0.000000,-1,-1.154702,0.373084,-0.277974,0.526526,-0.032534,-0.028009
"2019-05-06 15:53:53.085 +0000",1557158033.084821,1.785589,-1.136569,1.636248,0.411042,0.907195,0.089672,0.000000,0.000000,0.000000,-1,-1.281938,1.139927,-0.238397,0.446761,-0.026244,-0.035442
"2019-05-06 15:53:53.105 +0000",1557158033.104822,1.873111,-1.134634,1.700523,0.403306,0.906379,0.125781,0.000000,0.000000,0.000000,-1,-1.365133,1.619850,-0.263837,0.277770,0.172783,-0.052096
"2019-05-06 15:53:53.125 +0000",1557158033.124845,1.969847,-1.130873,1.768392,0.392409,0.904784,0.165469,0.000000,0.000000,0.000000,-1,-1.453431,1.788248,-0.380753,0.154832,0.254136,-0.092441
"2019-05-06 15:53:53.145 +0000",1557158033.144833,2.071280,-1.125475,1.847265,0.377917,0.902472,0.206694,0.000000,0.000000,0.000000,-1,-1.769473,1.235253,-0.531223,-0.112796,0.187433,-0.214354
"2019-05-06 15:53:53.165 +0000",1557158033.164846,2.165730,-1.114021,1.935457,0.365276,0.897479,0.247192,0.000000,0.000000,0.000000,-1,-1.992882,0.503735,-0.502815,-0.095928,0.102673,-0.219680
"2019-05-06 15:53:53.185 +0000",1557158033.184867,2.244047,-1.098336,2.016598,0.355780,0.890451,0.283756,0.000000,0.000000,0.000000,-1,-1.867675,0.186887,-0.438709,-0.033759,-0.011301,-0.157138
