timestamp,timeIntervalSince1970,attitude.roll,attitude.pitch,attitude.yaw,gravity.x,gravity.y,gravity.z,magneticField.x,magneticField.y,magneticField.z,magneticField.accuracy,rotationRate.x,rotationRate.y,rotationRate.z,userAcceleration.x,userAcceleration.y,userAcceleration.z
"2019-04-05 09:51:23.371 +0000",1554457883.370660,-0.054604,0.553277,0.028714,-0.046434,-0.525478,-0.849539,0.000000,0.000000,0.000000,-1,-0.246409,0.765061,-0.154369,0.083941,0.033809,0.002386
"2019-04-05 09:51:23.391 +0000",1554457883.390743,-0.034806,0.548365,0.024230,-0.029696,-0.521293,-0.852861,0.000000,0.000000,0.000000,-1,-0.286946,0.967154,-0.217798,0.072436,-0.008797,-0.017210
"2019-04-05 09:51:23.411 +0000",1554457883.410792,-0.009500,0.540666,0.017231,-0.008145,-0.514707,-0.857327,0.000000,0.000000,0.000000,-1,-0.455330,1.193816,-0.342618,0.065381,-0.079989,-0.039966
"2019-04-05 09:51:23.431 +0000",1554457883.430874,0.027305,0.529427,0.007167,0.023564,-0.505039,-0.862775,0.000000,0.000000,0.000000,-1,-0.604745,1.883046,-0.482647,0.063533,-0.086361,-0.080432
"2019-04-05 09:51:23.451 +0000",1554457883.450923,0.082959,0.515984,-0.003353,0.072076,-0.493391,-0.866816,0.000000,0.000000,0.000000,-1,-0.683062,2.845474,-0.448823,0.090934,-0.025453,-0.119314
"2019-04-05 09:51:23.471 +0000",1554457883.471002,0.142060,0.498361,-0.005739,0.124362,-0.477986,-0.869519,0.000000,0.000000,0.000000,-1,-0.937066,2.766877,-0.065024,0.114988,-0.038035,-0.061450
"2019-04-05 09:51:23.491 +0000",1554457883.491052,0.189900,0.481747,-0.005492,0.167277,-0.463328,-0.870256,0.000000,0.000000,0.000000,-1,-0.709616,2.149966,-0.192311,0.073323,0.128718,-0.002791
"2019-04-05 09:51:23.511 +0000",1554457883.511131,0.228487,0.471090,-0.010966,0.201832,-0.453857,-0.867915,0.000000,0.000000,0.000000,-1,-0.332894,1.587198,-0.408248,-0.049946,0.042725,0.038493
"2019-04-05 09:51:23.531 +0000",1554457883.531180,0.257638,0.464993,-0.018085,0.227744,-0.448417,-0.864324,0.000000,0.000000,0.000000,-1,-0.172886,1.188288,-0.348657,-0.028739,-0.027871,0.164800
"2019-04-05 09:51:23.551 +0000",1554457883.551261,0.283429,0.461639,-0.022871,0.250377,-0.445416,-0.859602,0.000000,0.000000,0.000000,-1,-0.062182,1.147756,-0.189295,0.022649,0.012707,0.156554
"2019-04-05 09:51:23.571 +0000",1554457883.571294,0.304553,0.461454,-0.025384,0.268502,-0.445251,-0.854200,0.000000,0.000000,0.000000,-1,0.090238,0.884952,-0.069822,0.041892,0.016280,0.107939
"2019-04-05 09:51:23.591 +0000",1554457883.591344,0.318471,0.467141,-0.025873,0.279567,-0.450335,-0.847962,0.000000,0.000000,0.000000,-1,0.429087,0.547539,0.171499,-0.011074,0.026629,0.089326
"2019-04-05 09:51:23.611 +0000",1554457883.611424,0.324767,0.485436,-0.024119,0.282224,-0.466594,-0.838236,0.000000,0.000000,0.000000,-1,1.099311,0.275795,0.467474,0.031481,0.040767,0.071115
"2019-04-05 09:51:23.631 +0000",1554457883.631475,0.324897,0.515291,-0.020581,0.277761,-0.492788,-0.824626,0.000000,0.000000,0.000000,-1,1.436025,-0.064808,0.714118,0.117731,0.093358,0.040981
"2019-04-05 09:51:23.652 +0000",1554457883.651554,0.315706,0.544788,-0.014359,0.265541,-0.518237,-0.812969,0.000000,0.000000,0.000000,-1,1.193213,-0.387892,0.686476,0.245110,0.120898,-0.017979
"2019-04-05 09:51:23.672 +0000",1554457883.671603,0.307252,0.566669,-0.007093,0.255167,-0.536824,-0.804182,0.000000,0.000000,0.000000,-1,0.777446,-0.022815,0.611493,0.220785,0.132177,0.069563
"2019-04-05 09:51:23.692 +0000",1554457883.691684,0.349411,0.564326,-0.015232,0.289263,-0.534846,-0.793893,0.000000,0.000000,0.000000,-1,0.419779,1.095070,0.680358,0.121732,-0.005193,0.157663
"2019-04-05 09:51:23.712 +0000",1554457883.711734,0.374894,0.577428,-0.002423,0.306806,-0.545870,-0.779676,0.000000,0.000000,0.000000,-1,0.491809,1.828742,0.758124,0.023730,0.074664,0.206938
"2019-04-05 09:51:23.732 +0000",1554457883.731813,0.427714,0.584668,-0.004362,0.345893,-0.551922,-0.758775,0.000000,0.000000,0.000000,-1,0.574077,1.690472,0.624585,0.062417,0.072201,0.247514
"2019-04-05 09:51:23.752 +0000",1554457883.751863,0.457534,0.592187,-0.012349,0.366519,-0.558177,-0.744380,0.000000,0.000000,0.000000,-1,0.396603,0.911431,-0.564575,0.121793,-0.078939,0.267284
"2019-04-05 09:51:23.772 +0000",1554457883.771912,0.491979,0.577971,-0.038503,0.395645,-0.546326,-0.738236,0.000000,0.000000,0.000000,-1,-0.413674,0.248593,-1.025805,0.147812,0.075699,0.254609
"2019-04-05 09:51:23.792 +0000",1554457883.791992,0.512169,0.546599,-0.062850,0.418665,-0.519784,-0.744677,0.000000,0.000000,0.000000,-1,-1.128966,0.364222,-2.004432,0.152014,0.217569,0.371279
"2019-04-05 09:51:23.812 +0000",1554457883.812043,0.546035,0.491957,-0.097650,0.457719,-0.472351,-0.753245,0.000000,0.000000,0.000000,-1,-1.758543,0.543445,-2.400755,-0.009904,0.128769,0.410441
"2019-04-05 09:51:23.832 +0000",1554457883.832122,0.580214,0.431993,-0.118063,0.497841,-0.418681,-0.759513,0.000000,0.000000,0.000000,-1,-2.106772,1.781464,-2.239071,0.087959,-0.008305,0.444114
"2019-04-05 09:51:23.852 +0000",1554457883.852173,0.645499,0.373639,-0.129177,0.560090,-0.365006,-0.743687,0.000000,0.000000,0.000000,-1,-1.699940,3.153838,-1.557321,-0.136857,0.070542,0.461964
"2019-04-05 09:51:23.872 +0000",1554457883.872251,0.718558,0.347651,-0.145696,0.618918,-0.340690,-0.707722,0.000000,0.000000,0.000000,-1,0.225584,3.503267,-1.365608,-0.188055,0.315345,0.510396
"2019-04-05 09:51:23.892 +0000",1554457883.892301,0.806874,0.336365,-0.182073,0.681661,-0.330058,-0.652993,0.000000,0.000000,0.000000,-1,0.885462,3.468777,-1.500407,-0.269917,0.555201,0.141030
"2019-04-05 09:51:23.912 +0000",1554457883.912381,0.910798,0.322683,-0.225380,0.749220,-0.317112,-0.581471,0.000000,0.000000,0.000000,-1,1.193406,4.970237,-2.178908,-0.217253,0.622242,0.452061
"2019-04-05 09:51:23.932 +0000",1554457883.932431,1.035659,0.292342,-0.280346,0.823701,-0.288196,-0.488322,0.000000,0.000000,0.000000,-1,1.384691,5.616849,-3.008742,-0.092088,0.631137,0.293010
"2019-04-05 09:51:23.953 +0000",1554457883.952510,1.171699,0.245545,-0.340579,0.893774,-0.243085,-0.376931,0.000000,0.000000,0.000000,-1,1.635462,6.086821,-3.552622,-0.066686,0.609982,0.193521
"2019-04-05 09:51:23.973 +0000",1554457883.972561,1.307526,0.187698,-0.401352,0.948585,-0.186597,-0.255669,0.000000,0.000000,0.000000,-1,2.013999,6.126996,-3.752602,0.002770,0.568082,-0.055916
"2019-04-05 09:51:23.993 +0000",1554457883.992610,1.437848,0.121448,-0.462524,0.983874,-0.121150,-0.131581,0.000000,0.000000,0.000000,-1,2.498090,5.945887,-3.882960,0.015547,0.573085,-0.221142
"2019-04-05 09:51:24.013 +0000",1554457884.012691,1.556089,0.045442,-0.524443,0.998859,-0.045426,-0.014692,0.000000,0.000000,0.000000,-1,2.955843,5.306492,-4.090716,0.105557,0.565339,-0.432741
"2019-04-05 09:51:24.033 +0000",1554457884.032739,1.643439,-0.042378,-0.581731,0.996466,0.042365,0.072514,0.000000,0.000000,0.000000,-1,2.932456,3.665761,-4.398045,0.284845,0.516809,-0.701924
"2019-04-05 09:51:24.053 +0000",1554457884.052821,1.685976,-0.139624,-0.626544,0.983706,0.139171,0.113806,0.000000,0.000000,0.000000,-1,2.538483,1.465966,-4.736305,0.409818,0.469868,-0.816901
"2019-04-05 09:51:24.073 +0000",1554457884.072869,1.685429,-0.244249,-0.663447,0.963950,0.241828,0.110987,0.000000,0.000000,0.000000,-1,2.364887,-0.204415,-5.096546,0.435968,0.403268,-0.681147
"2019-04-05 09:51:24.093 +0000",1554457884.092949,1.662402,-0.352836,-0.703108,0.934460,0.345561,0.085842,0.000000,0.000000,0.000000,-1,2.508028,-0.668142,-5.189283,0.610172,0.259786,-0.491604
"2019-04-05 09:51:24.113 +0000",1554457884.112998,1.629851,-0.456619,-0.753368,0.895982,0.440916,0.052974,0.000000,0.000000,0.000000,-1,2.832672,-0.566393,-4.817260,0.913039,0.085787,-0.421672
"2019-04-05 09:51:24.133 +0000",1554457884.133081,1.586467,-0.548859,-0.821806,0.853014,0.521714,0.013369,0.000000,0.000000,0.000000,-1,3.336207,-0.497787,-4.266868,1.067457,-0.050507,-0.370104
"2019-04-05 09:51:24.153 +0000",1554457884.153128,1.526906,-0.626984,-0.907515,0.809019,0.586705,-0.035531,0.000000,0.000000,0.000000,-1,3.563878,-0.690560,-3.762027,1.097826,-0.112752,-0.281852
"2019-04-05 09:51:24.173 +0000",1554457884.173209,1.446574,-0.687818,-0.999950,0.766678,0.634853,-0.095732,0.000000,0.000000,0.000000,-1,3.068008,-1.767617,-2.949222,1.275391,-0.269313,-0.261629
"2019-04-05 09:51:24.193 +0000",1554457884.193258,1.345318,-0.730020,-1.014122,0.726297,0.666885,-0.166597,0.000000,0.000000,0.000000,-1,-0.966185,-5.863221,-1.808126,1.632147,-0.719253,-0.103453
"2019-04-05 09:51:24.213 +0000",1554457884.213309,1.238293,-0.754146,-0.999209,0.688934,0.684667,-0.237905,0.000000,0.000000,0.000000,-1,-0.683195,-5.628788,-0.349742,1.542053,-0.640660,0.213263
"2019-04-05 09:51:24.233 +0000",1554457884.233387,1.148292,-0.745476,-0.979387,0.670152,0.678322,-0.301287,0.000000,0.000000,0.000000,-1,-0.373824,-4.998807,1.176346,1.341872,-0.629509,0.369692
"2019-04-05 09:51:24.253 +0000",1554457884.253437,1.067435,-0.718070,-0.953868,0.659669,0.657932,-0.363263,0.000000,0.000000,0.000000,-1,-0.065011,-4.650718,1.802309,1.091338,-0.406544,0.334546
"2019-04-05 09:51:24.274 +0000",1554457884.273517,1.009064,-0.677394,-0.949662,0.659470,0.626764,-0.415047,0.000000,0.000000,0.000000,-1,1.106214,-2.217457,1.735504,0.550979,-0.256693,0.381615
"2019-04-05 09:51:24.294 +0000",1554457884.293567,0.977388,-0.645317,-0.950367,0.662326,0.601452,-0.446741,0.000000,0.000000,0.000000,-1,0.559919,-1.569241,0.955427,0.143124,-0.225872,0.250375
"2019-04-05 09:51:24.314 +0000",1554457884.313647,0.941849,-0.641295,-0.945748,0.647986,0.598234,-0.471412,0.000000,0.000000,0.000000,-1,-0.459818,-2.135015,-0.055575,0.107584,-0.371992,0.324881
"2019-04-05 09:51:24.334 +0000",1554457884.333697,0.909380,-0.656894,-0.923262,0.624900,0.610660,-0.486407,0.000000,0.000000,0.000000,-1,-1.425524,-2.199190,0.073427,0.242059,-0.710468,0.561694
"2019-04-05 09:51:24.354 +0000",1554457884.353777,0.904072,-0.664884,-0.882533,0.618455,0.616968,-0.486685,0.000000,0.000000,0.000000,-1,-1.579538,-1.026399,1.092683,0.266311,-0.923090,0.896505
"2019-04-05 09:51:24.374 +0000",1554457884.373826,0.933577,-0.657030,-0.822969,0.636419,0.610768,-0.471096,0.000000,0.000000,0.000000,-1,-1.576728,-0.064268,2.065395,0.169291,-0.806919,0.743512
"2019-04-05 09:51:24.394 +0000",1554457884.393906,0.976650,-0.646769,-0.758161,0.661272,0.602611,-0.446740,0.000000,0.000000,0.000000,-1,-1.965726,0.445460,1.793624,0.023023,-0.453990,0.565026
"2019-04-05 09:51:24.414 +0000",1554457884.413957,1.033987,-0.638994,-0.696832,0.689792,0.596388,-0.410495,0.000000,0.000000,0.000000,-1,-1.612037,1.367240,1.488778,-0.164828,-0.113508,0.350956
"2019-04-05 09:51:24.434 +0000",1554457884.434006,1.092664,-0.638609,-0.664838,0.712881,0.596079,-0.369443,0.000000,0.000000,0.000000,-1,-0.869497,2.441039,0.205805,-0.356969,0.238470,0.265348
"2019-04-05 09:51:24.454 +0000",1554457884.454086,1.166021,-0.641717,-0.656175,0.736334,0.598572,-0.315470,0.000000,0.000000,0.000000,-1,-0.112204,3.982472,-0.076604,-0.148489,-0.386124,0.512079
"2019-04-05 09:51:24.474 +0000",1554457884.474135,1.254208,-0.641043,-0.652187,0.761639,0.598032,-0.249519,0.000000,0.000000,0.000000,-1,-0.230622,4.043153,0.007912,0.238788,-0.385706,0.272163
"2019-04-05 09:51:24.494 +0000",1554457884.494216,1.318673,-0.647037,-0.636559,0.772646,0.602825,-0.199038,0.000000,0.000000,0.000000,-1,-0.906077,1.812699,-0.202995,0.311139,-0.300960,-0.169081
"2019-04-05 09:51:24.514 +0000",1554457884.514265,1.352338,-0.650062,-0.603932,0.777124,0.605236,-0.172522,0.000000,0.000000,0.000000,-1,-1.466582,0.259323,0.469657,0.403341,-0.406353,-0.605523
"2019-04-05 09:51:24.534 +0000",1554457884.534346,1.364037,-0.644898,-0.565687,0.782138,0.601117,-0.164058,0.000000,0.000000,0.000000,-1,-1.639618,-1.009170,0.414631,0.337705,0.443850,-0.826130
"2019-04-05 09:51:24.554 +0000",1554457884.554395,1.370218,-0.653593,-0.514506,0.777985,0.608043,-0.158174,0.000000,0.000000,0.000000,-1,-2.104589,-1.229840,-0.256439,0.185409,0.220601,0.011003
"2019-04-05 09:51:24.574 +0000",1554457884.574464,1.380303,-0.666630,-0.476411,0.771691,0.618341,-0.148806,0.000000,0.000000,0.000000,-1,-1.211821,-0.282994,-0.361354,0.120185,0.180075,0.505633
"2019-04-05 09:51:24.595 +0000",1554457884.594513,1.394348,-0.678912,-0.461267,0.766170,0.627946,-0.136610,0.000000,0.000000,0.000000,-1,-0.525545,0.413082,-0.613124,0.189823,0.149260,0.330061
"2019-04-05 09:51:24.615 +0000",1554457884.614562,1.410823,-0.697932,-0.445691,0.756388,0.642634,-0.122045,0.000000,0.000000,0.000000,-1,-1.022821,0.220005,-0.966776,0.273184,-0.176494,-0.127528
"2019-04-05 09:51:24.635 +0000",1554457884.634643,1.436954,-0.725967,-0.401935,0.741167,0.663859,-0.099796,0.000000,0.000000,0.000000,-1,-2.380008,-0.454162,-1.263756,0.337202,-0.308604,-0.484982
"2019-04-05 09:51:24.655 +0000",1554457884.654693,1.461408,-0.761780,-0.323359,0.719281,0.690210,-0.078996,0.000000,0.000000,0.000000,-1,-3.336071,-2.106983,-1.459109,0.280231,-0.147608,-0.545394
"2019-04-05 09:51:24.675 +0000",1554457884.674774,1.475752,-0.795335,-0.234818,0.696883,0.714098,-0.066435,0.000000,0.000000,0.000000,-1,-3.146575,-1.887028,-1.353789,0.200028,-0.298525,-0.092638
"2019-04-05 09:51:24.695 +0000",1554457884.694824,1.500957,-0.822260,-0.156821,0.678905,0.732686,-0.047491,0.000000,0.000000,0.000000,-1,-2.764562,-1.429084,-0.974897,0.083562,-0.005315,0.099386
"2019-04-05 09:51:24.715 +0000",1554457884.714903,1.570488,-0.862230,-0.067804,0.650743,0.759296,-0.000201,0.000000,0.000000,0.000000,-1,-3.190804,1.225835,-2.375690,0.164489,-0.584674,0.177249
"2019-04-05 09:51:24.735 +0000",1554457884.734953,1.635784,-0.912982,-0.003136,0.610095,0.791330,0.039704,0.000000,0.000000,0.000000,-1,-0.892369,0.501053,-2.596710,-0.396930,-0.418207,0.691039
"2019-04-05 09:51:24.755 +0000",1554457884.755035,1.648027,-0.972919,-0.011071,0.561208,0.826533,0.043429,0.000000,0.000000,0.000000,-1,1.005187,1.174021,-3.374329,-0.210927,-0.105768,0.464185
"2019-04-05 09:51:24.775 +0000",1554457884.775205,1.666483,-1.066189,-0.015120,0.481248,0.875364,0.046190,0.000000,0.000000,0.000000,-1,-0.304564,0.640608,-5.348130,0.062514,0.278627,-0.433443
"2019-04-05 09:51:24.795 +0000",1554457884.795255,1.755526,-1.188116,0.046215,0.367051,0.927667,0.068587,0.000000,0.000000,0.000000,-1,-0.197732,2.673004,-6.615059,-0.019562,-0.258294,0.221452
"2019-04-05 09:51:24.815 +0000",1554457884.815334,1.938218,-1.339918,0.179044,0.213552,0.973466,0.082196,0.000000,0.000000,0.000000,-1,0.160184,2.318002,-8.377638,0.371058,-0.221970,-0.429135
"2019-04-05 09:51:24.835 +0000",1554457884.835383,2.748116,-1.470856,0.955336,0.038247,0.995010,0.092134,0.000000,0.000000,0.000000,-1,-0.603642,1.967696,-8.550960,-0.026605,-0.678680,-0.278306
"2019-04-05 09:51:24.855 +0000",1554457884.855436,-2.314504,-1.398167,2.140285,-0.126411,0.985137,0.116287,0.000000,0.000000,0.000000,-1,-1.730070,2.228869,-7.732105,0.049675,-0.859847,0.142182
"2019-04-05 09:51:24.876 +0000",1554457884.875514,-2.091766,-1.252023,2.334441,-0.271820,0.949620,0.155984,0.000000,0.000000,0.000000,-1,-2.728880,1.007578,-6.961951,0.187607,-0.771688,0.005790
"2019-04-05 09:51:24.896 +0000",1554457884.895564,-2.048591,-1.103406,2.384714,-0.400096,0.892747,0.207174,0.000000,0.000000,0.000000,-1,-2.421856,-0.714227,-7.243629,0.352534,0.121703,0.061564
"2019-04-05 09:51:24.916 +0000",1554457884.915645,-2.003287,-0.951118,2.455532,-0.527295,0.814065,0.243420,0.000000,0.000000,0.000000,-1,-1.032787,-0.403836,-6.672665,-1.190891,2.054175,0.659656
"2019-04-05 09:51:24.936 +0000",1554457884.935693,-1.990067,-0.925061,2.470700,-0.549660,0.798657,0.244982,0.000000,0.000000,0.000000,-1,0.112970,-0.202361,0.654425,-2.818596,1.327304,0.389509
"2019-04-05 09:51:24.956 +0000",1554457884.955773,-2.013426,-0.952757,2.451988,-0.523593,0.815016,0.248181,0.000000,0.000000,0.000000,-1,-0.014985,-0.340806,1.848064,-0.423444,-0.157683,-0.032575
"2019-04-05 09:51:24.976 +0000",1554457884.975823,-2.045803,-0.983136,2.414273,-0.493032,0.832240,0.253557,0.000000,0.000000,0.000000,-1,-0.481804,0.114736,1.622176,0.250799,-0.384547,-0.224947
"2019-04-05 09:51:24.996 +0000",1554457884.995904,-2.079259,-0.995679,2.363095,-0.475118,0.839128,0.264803,0.000000,0.000000,0.000000,-1,-1.216807,0.623755,0.974353,0.283788,-0.019915,-0.348132
"2019-04-05 09:51:25.016 +0000",1554457885.015953,-2.119792,-0.991328,2.302371,-0.467108,0.836754,0.285741,0.000000,0.000000,0.000000,-1,-1.664878,0.341349,0.487332,0.247366,0.015297,-0.280919
"2019-04-05 09:51:25.036 +0000",1554457885.036001,-2.160825,-0.979769,2.245336,-0.462999,0.830369,0.310023,0.000000,0.000000,0.000000,-1,-1.551725,0.328547,0.314540,0.173113,-0.190873,-0.038203
"2019-04-05 09:51:25.056 +0000",1554457885.056082,-2.190807,-0.971498,2.200689,-0.459071,0.825732,0.327743,0.000000,0.000000,0.000000,-1,-1.061620,0.400459,0.439081,0.074336,-0.315752,0.082444
"2019-04-05 09:51:25.076 +0000",1554457885.076132,-2.206596,-0.971773,2.167652,-0.453656,0.825887,0.334814,0.000000,0.000000,0.000000,-1,-0.577037,0.723321,0.631152,0.085492,-0.289357,0.072092
"2019-04-05 09:51:25.096 +0000",1554457885.096210,-2.207429,-0.978838,2.141664,-0.448674,0.829850,0.331715,0.000000,0.000000,0.000000,-1,-0.272540,1.166506,0.730188,0.113301,-0.245133,0.001629
"2019-04-05 09:51:25.116 +0000",1554457885.116260,-2.199985,-0.988689,2.121345,-0.444500,0.835306,0.323540,0.000000,0.000000,0.000000,-1,-0.119077,1.198294,0.725601,0.146633,-0.265756,-0.058510
"2019-04-05 09:51:25.136 +0000",1554457885.136340,-2.194178,-0.998909,2.103194,-0.439417,0.840881,0.315952,0.000000,0.000000,0.000000,-1,-0.100787,0.944139,0.680392,0.198191,-0.272140,-0.040028
"2019-04-05 09:51:25.156 +0000",1554457885.156390,-2.191800,-1.007595,2.086656,-0.434210,0.845550,0.310645,0.000000,0.000000,0.000000,-1,-0.103780,0.758074,0.569341,0.268485,-0.225754,0.043115
"2019-04-05 09:51:25.176 +0000",1554457885.176470,-2.187058,-1.014534,2.074110,-0.430880,0.849235,0.305184,0.000000,0.000000,0.000000,-1,-0.056769,0.826134,0.419216,0.316958,-0.132651,0.170249
"2019-04-05 09:51:25.197 +0000",1554457885.196521,-2.175968,-1.019434,2.065260,-0.430811,0.851812,0.298016,0.000000,0.000000,0.000000,-1,-0.042832,0.930370,0.285208,0.344797,-0.027807,0.257969
"2019-04-05 09:51:25.217 +0000",1554457885.216599,-2.167173,-1.022488,2.059881,-0.431262,0.853407,0.292754,0.000000,0.000000,0.000000,-1,-0.028602,0.456117,0.148056,0.327563,0.125291,0.285600
"2019-04-05 09:51:25.237 +0000",1554457885.236648,-2.171791,-1.023649,2.053463,-0.429087,0.854012,0.294181,0.000000,0.000000,0.000000,-1,-0.189258,-0.157351,0.175066,0.187525,0.372428,0.284051
"2019-04-05 09:51:25.257 +0000",1554457885.256699,-2.193236,-1.023830,2.032202,-0.422554,0.854106,0.303224,0.000000,0.000000,0.000000,-1,-0.621212,-0.077339,0.442467,-0.006324,0.609929,0.312910
"2019-04-05 09:51:25.277 +0000",1554457885.276780,-2.222764,-1.022574,1.997195,-0.414270,0.853452,0.316218,0.000000,0.000000,0.000000,-1,-0.849466,0.159942,0.507335,-0.100745,0.402056,0.333654
"2019-04-05 09:51:25.297 +0000",1554457885.296829,-2.248431,-1.018585,1.956295,-0.408667,0.851367,0.328878,0.000000,0.000000,0.000000,-1,-0.988127,0.560970,0.415753,0.130210,-0.116091,0.325801
"2019-04-05 09:51:25.317 +0000",1554457885.316910,-2.255954,-1.008627,1.932165,-0.412726,0.846101,0.337292,0.000000,0.000000,0.000000,-1,-0.613399,0.648058,-0.262198,0.189704,-0.012192,0.356129
"2019-04-05 09:51:25.337 +0000",1554457885.336957,-2.237583,-0.996622,1.948005,-0.426804,0.839641,0.335911,0.000000,0.000000,0.000000,-1,0.363941,-0.091562,-0.965462,-0.112670,0.331105,0.111706
"2019-04-05 09:51:25.357 +0000",1554457885.357038,-2.200393,-0.993483,2.002644,-0.441127,0.837932,0.321360,0.000000,0.000000,0.000000,-1,1.456630,-0.571973,-0.975421,-0.472982,0.388768,-0.121088
"2019-04-05 09:51:25.377 +0000",1554457885.377088,-2.153731,-0.999713,2.072073,-0.451270,0.841316,0.297554,0.000000,0.000000,0.000000,-1,1.781403,-0.534003,-0.700401,-0.554819,-0.184135,-0.311043
"2019-04-05 09:51:25.397 +0000",1554457885.397168,-2.121478,-1.008816,2.128200,-0.454085,0.846202,0.278828,0.000000,0.000000,0.000000,-1,1.278156,-1.023962,-0.263463,-0.420320,-0.735392,-0.363560
"2019-04-05 09:51:25.417 +0000",1554457885.417217,-2.113771,-1.018544,2.166879,-0.449150,0.851345,0.271053,0.000000,0.000000,0.000000,-1,1.220504,-1.197300,-0.078360,-0.293495,-0.880413,-0.238262
"2019-04-05 09:51:25.437 +0000",1554457885.437298,-2.073856,-1.035582,2.230321,-0.446834,0.860159,0.245885,0.000000,0.000000,0.000000,-1,2.233732,-0.455800,-0.106210,-0.113026,-0.590765,-0.120702
"2019-04-05 09:51:25.457 +0000",1554457885.457346,-1.998748,-1.053592,2.333197,-0.449855,0.869205,0.205199,0.000000,0.000000,0.000000,-1,2.934735,-1.057027,-0.581754,-0.083012,0.047726,-0.335707
"2019-04-05 09:51:25.477 +0000",1554457885.477396,-1.914481,-1.058923,2.467993,-0.461161,0.871829,0.165044,0.000000,0.000000,0.000000,-1,3.192614,-1.947142,-1.159976,-0.153997,0.517240,-0.532171
"2019-04-05 09:51:25.497 +0000",1554457885.497477,-1.847605,-1.056025,2.594987,-0.473589,0.870405,0.134548,0.000000,0.000000,0.000000,-1,2.683170,-2.294534,-0.992149,-0.067946,0.384050,-0.623104
"2019-04-05 09:51:25.518 +0000",1554457885.517526,-1.816354,-1.051551,2.683999,-0.481333,0.868194,0.120630,0.000000,0.000000,0.000000,-1,1.640377,-2.149223,-0.618765,0.049647,0.263840,-0.412485
"2019-04-05 09:51:25.538 +0000",1554457885.537606,-1.802813,-1.049404,2.728503,-0.484736,0.867127,0.114529,0.000000,0.000000,0.000000,-1,0.732236,-0.605643,-0.239008,0.119761,0.182647,-0.053326
"2019-04-05 09:51:25.558 +0000",1554457885.557636,-1.783078,-1.049613,2.746704,-0.486724,0.867231,0.104903,0.000000,0.000000,0.000000,-1,0.350972,0.500524,-0.015719,0.124465,0.110049,-0.002867
"2019-04-05 09:51:25.578 +0000",1554457885.577715,-1.757987,-1.055095,2.764218,-0.484524,0.869947,0.091773,0.000000,0.000000,0.000000,-1,0.650158,0.399188,0.336847,0.086148,-0.031004,-0.023017
"2019-04-05 09:51:25.598 +0000",1554457885.597764,-1.714513,-1.071170,2.812846,-0.474152,0.877762,0.068617,0.000000,0.000000,0.000000,-1,1.759572,-0.178099,0.702526,0.156083,-0.263458,0.000017
"2019-04-05 09:51:25.618 +0000",1554457885.617844,-1.640843,-1.087524,2.897097,-0.463534,0.885479,0.032522,0.000000,0.000000,0.000000,-1,1.970598,0.345001,0.442057,0.218386,-0.333218,-0.069815
"2019-04-05 09:51:25.638 +0000",1554457885.637894,-1.573224,-1.091301,2.956064,-0.461324,0.887228,0.001120,0.000000,0.000000,0.000000,-1,0.968953,0.839282,-0.004957,0.197622,-0.250616,-0.247473
"2019-04-05 09:51:25.658 +0000",1554457885.657974,-1.536341,-1.089035,2.993750,-0.463060,0.886180,-0.015961,0.000000,0.000000,0.000000,-1,0.987711,-0.194326,-0.129258,0.114549,-0.148326,0.113541
"2019-04-05 09:51:25.678 +0000",1554457885.678023,-1.492562,-1.083331,3.054533,-0.466949,0.883523,-0.036606,0.000000,0.000000,0.000000,-1,1.657398,-0.623340,-0.282874,0.077194,-0.116372,0.340317
"2019-04-05 09:51:25.698 +0000",1554457885.698073,-1.444896,-1.071152,3.126779,-0.475316,0.877753,-0.060160,0.000000,0.000000,0.000000,-1,1.721679,-0.885997,-0.485793,0.147770,-0.058554,0.113810
"2019-04-05 09:51:25.718 +0000",1554457885.718154,-1.413709,-1.056243,-3.099353,-0.486081,0.870513,-0.076992,0.000000,0.000000,0.000000,-1,1.286935,-0.916489,-0.569939,0.217435,0.074022,-0.089512
"2019-04-05 09:51:25.738 +0000",1554457885.738203,-1.397757,-1.042139,-3.062025,-0.496837,0.863485,-0.086841,0.000000,0.000000,0.000000,-1,0.922292,-0.767356,-0.502754,0.262218,0.164560,-0.093030
"2019-04-05 09:51:25.758 +0000",1554457885.758283,-1.387247,-1.031875,-3.035968,-0.504585,0.858263,-0.093671,0.000000,0.000000,0.000000,-1,0.613956,-0.488559,-0.320491,0.381049,0.248213,0.000119
"2019-04-05 09:51:25.778 +0000",1554457885.778333,-1.384145,-1.025071,-3.022871,-0.510018,0.854751,-0.096317,0.000000,0.000000,0.000000,-1,0.270669,-0.389419,-0.268353,0.508599,0.297806,0.112140
"2019-04-05 09:51:25.798 +0000",1554457885.798412,-1.386156,-1.019623,-3.018789,-0.514781,0.851911,-0.096144,0.000000,0.000000,0.000000,-1,0.113841,-0.162807,-0.226040,0.460750,0.287417,0.156783
"2019-04-05 09:51:25.818 +0000",1554457885.818462,-1.384029,-1.014362,-3.017284,-0.518972,0.849144,-0.098070,0.000000,0.000000,0.000000,-1,0.073233,0.154129,-0.276491,0.244879,0.157997,0.145845
"2019-04-05 09:51:25.839 +0000",1554457885.838542,-1.382182,-1.008412,-3.020394,-0.523744,0.845986,-0.099974,0.000000,0.000000,0.000000,-1,-0.105806,0.225524,-0.325961,0.165559,0.141700,0.103788
"2019-04-05 09:51:25.859 +0000",1554457885.858592,-1.386035,-1.002910,-3.029777,-0.528692,0.843040,-0.098809,0.000000,0.000000,0.000000,-1,-0.222027,0.188375,-0.257593,0.296636,0.456673,0.147118
"2019-04-05 09:51:25.879 +0000",1554457885.878642,-1.393884,-1.002958,-3.038464,-0.529412,0.843065,-0.094649,0.000000,0.000000,0.000000,-1,-0.231785,-0.224311,0.113299,0.246026,0.643507,0.045088
"2019-04-05 09:51:25.899 +0000",1554457885.898722,-1.414262,-1.011793,-3.053147,-0.523852,0.847784,-0.082677,0.000000,0.000000,0.000000,-1,-0.654110,-0.501644,0.522724,0.094637,0.510996,-0.188456
"2019-04-05 09:51:25.919 +0000",1554457885.918771,-1.462397,-1.028905,-3.092551,-0.512725,0.856735,-0.055798,0.000000,0.000000,0.000000,-1,-1.455685,-0.872240,0.805166,0.017852,0.362946,-0.230625
"2019-04-05 09:51:25.939 +0000",1554457885.938851,-1.553521,-1.050377,3.113843,-0.497163,0.867611,-0.008589,0.000000,0.000000,0.000000,-1,-2.286953,-1.459737,1.046841,-0.083815,0.154179,-0.120958
"2019-04-05 09:51:25.959 +0000",1554457885.958900,-1.679688,-1.072946,3.003956,-0.474703,0.878611,0.051896,0.000000,0.000000,0.000000,-1,-2.782857,-1.466888,1.360033,-0.183042,-0.054026,0.221968
"2019-04-05 09:51:25.979 +0000",1554457885.978981,-1.826695,-1.090643,2.872509,-0.446867,0.886924,0.116916,0.000000,0.000000,0.000000,-1,-2.775302,-1.621082,1.342708,-0.445268,0.149026,0.346677
"2019-04-05 09:51:25.999 +0000",1554457885.999030,-1.949203,-1.090313,2.783997,-0.429502,0.886772,0.170755,0.000000,0.000000,0.000000,-1,-1.289862,-2.756521,0.055075,-0.641421,0.427849,0.058371
"2019-04-05 09:51:26.019 +0000",1554457886.019110,-2.033123,-1.086727,2.768217,-0.416521,0.885109,0.207573,0.000000,0.000000,0.000000,-1,-0.116168,-3.687930,0.265588,-0.683607,-0.080635,-0.065926
"2019-04-05 09:51:26.039 +0000",1554457886.039159,-2.123370,-1.100248,2.739340,-0.385896,0.891320,0.237963,0.000000,0.000000,0.000000,-1,-0.461879,-2.685125,1.223270,-0.298141,-0.175027,0.061185
"2019-04-05 09:51:26.059 +0000",1554457886.059240,-2.214541,-1.112167,2.672438,-0.354105,0.896660,0.265713,0.000000,0.000000,0.000000,-1,-1.126841,-0.955564,1.332304,-0.105413,0.074272,0.087253
"2019-04-05 09:51:26.079 +0000",1554457886.079290,-2.291173,-1.113787,2.590717,-0.331631,0.897376,0.291084,0.000000,0.000000,0.000000,-1,-1.441616,0.242119,1.100948,-0.146579,0.359307,-0.010048
"2019-04-05 09:51:26.099 +0000",1554457886.099339,-2.356181,-1.110007,2.506571,-0.314417,0.895702,0.314409,0.000000,0.000000,0.000000,-1,-1.476026,0.600479,1.226235,-0.042455,0.390477,-0.186601
"2019-04-05 09:51:26.119 +0000",1554457886.119420,-2.428188,-1.113021,2.413514,-0.289215,0.897038,0.334172,0.000000,0.000000,0.000000,-1,-1.152650,0.551157,1.875891,0.101852,0.164913,-0.348042
"2019-04-05 09:51:26.139 +0000",1554457886.139469,-2.510060,-1.126259,2.304848,-0.253883,0.902810,0.347089,0.000000,0.000000,0.000000,-1,-0.858236,1.077182,2.424413,0.241524,-0.070885,-0.367749
"2019-04-05 09:51:26.160 +0000",1554457886.159550,-2.585005,-1.141151,2.180684,-0.220055,0.909114,0.353669,0.000000,0.000000,0.000000,-1,-0.888895,2.321334,2.619385,0.323067,-0.277522,-0.413208
"2019-04-05 09:51:26.180 +0000",1554457886.179598,-2.642604,-1.145968,2.056373,-0.197232,0.911110,0.361899,0.000000,0.000000,0.000000,-1,-1.211593,2.929977,2.078245,0.375332,-0.372841,-0.500175
"2019-04-05 09:51:26.200 +0000",1554457886.199679,-2.670229,-1.133829,1.961788,-0.192169,0.906039,0.377036,0.000000,0.000000,0.000000,-1,-1.584635,2.878407,1.053752,0.386520,-0.502307,-0.497245
"2019-04-05 09:51:26.220 +0000",1554457886.219728,-2.656508,-1.106150,1.909135,-0.208941,0.893980,0.396403,0.000000,0.000000,0.000000,-1,-1.796952,3.279730,0.011550,0.379046,-0.607985,-0.305492
"2019-04-05 09:51:26.240 +0000",1554457886.239808,-2.596630,-1.071838,1.894489,-0.248049,0.878081,0.409191,0.000000,0.000000,0.000000,-1,-1.481902,3.726338,-0.850885,0.276629,-0.671188,-0.167964
"2019-04-05 09:51:26.260 +0000",1554457886.259858,-2.513570,-1.042648,1.912058,-0.296080,0.863742,0.407773,0.000000,0.000000,0.000000,-1,-0.613579,3.040963,-1.275887,0.088515,-0.711307,-0.035565
"2019-04-05 09:51:26.280 +0000",1554457886.279938,-2.434297,-1.031475,1.957246,-0.333692,0.858057,0.390358,0.000000,0.000000,0.000000,-1,0.881380,1.307511,-1.117626,-0.053179,-0.709193,0.136635
"2019-04-05 09:51:26.300 +0000",1554457886.299988,-2.373396,-1.045607,2.024443,-0.348370,0.865229,0.360566,0.000000,0.000000,0.000000,-1,1.902699,-0.314007,-0.597041,-0.225970,-0.576350,0.271590
"2019-04-05 09:51:26.320 +0000",1554457886.320037,-2.336519,-1.054886,2.072565,-0.355624,0.869844,0.341899,0.000000,0.000000,0.000000,-1,0.324098,-0.055488,-0.566027,-0.414105,0.049773,0.269292
"2019-04-05 09:51:26.340 +0000",1554457886.340118,-2.365872,-1.019357,2.045851,-0.366854,0.851771,0.374024,0.000000,0.000000,0.000000,-1,-2.699106,-0.659320,-0.718179,-0.867810,1.037373,0.173751
"2019-04-05 09:51:26.360 +0000",1554457886.360168,-2.433746,-0.987723,1.977784,-0.357989,0.834775,0.418314,0.000000,0.000000,0.000000,-1,-1.845151,-0.171206,0.914903,-0.692380,1.249240,0.750311
"2019-04-05 09:51:26.380 +0000",1554457886.380246,-2.467311,-0.991160,1.926573,-0.341957,0.836662,0.427848,0.000000,0.000000,0.000000,-1,-0.091611,0.702576,1.235732,0.018074,-0.009178,0.557366
"2019-04-05 09:51:26.400 +0000",1554457886.400296,-2.470199,-1.006682,1.916019,-0.332600,0.845062,0.418615,0.000000,0.000000,0.000000,-1,0.568515,-0.148378,0.195546,0.475789,-0.021027,0.114726
"2019-04-05 09:51:26.420 +0000",1554457886.420376,-2.460920,-1.008254,1.948885,-0.335633,0.845902,0.414477,0.000000,0.000000,0.000000,-1,0.724714,-1.203105,-0.936370,0.303849,0.538330,-0.193072
"2019-04-05 09:51:26.440 +0000",1554457886.440426,-2.428458,-1.015043,2.014581,-0.345144,0.849503,0.399013,0.000000,0.000000,0.000000,-1,1.720296,-0.900712,-1.217286,-0.122797,0.500045,-0.436290
"2019-04-05 09:51:26.461 +0000",1554457886.460507,-2.372707,-1.022304,2.090533,-0.362543,0.853311,0.374718,0.000000,0.000000,0.000000,-1,1.372564,-0.428313,-1.169806,-0.252326,-0.142374,-0.449318
"2019-04-05 09:51:26.481 +0000",1554457886.480556,-2.336267,-1.023653,2.151480,-0.375123,0.854014,0.360463,0.000000,0.000000,0.000000,-1,1.227661,-0.915291,-0.972258,-0.312239,-0.582713,-0.365651
"2019-04-05 09:51:26.501 +0000",1554457886.500606,-2.283159,-1.032522,2.223839,-0.387982,0.858594,0.335079,0.000000,0.000000,0.000000,-1,1.931695,0.000832,-0.973476,-0.263980,-0.460706,-0.396434
"2019-04-05 09:51:26.521 +0000",1554457886.520685,-2.192778,-1.042872,2.317649,-0.409397,0.863855,0.293499,0.000000,0.000000,0.000000,-1,2.316302,0.575878,-1.115038,-0.266628,-0.113916,-0.532299
"2019-04-05 09:51:26.541 +0000",1554457886.540735,-2.101106,-1.051705,2.419159,-0.427947,0.868270,0.250920,0.000000,0.000000,0.000000,-1,2.340993,-0.171760,-0.920499,-0.209016,0.126923,-0.672429
"2019-04-05 09:51:26.561 +0000",1554457886.560802,-2.035825,-1.057285,2.513986,-0.439067,0.871025,0.220292,0.000000,0.000000,0.000000,-1,2.045152,-1.194544,-0.859798,-0.091191,0.216683,-0.653932
"2019-04-05 09:51:26.581 +0000",1554457886.580851,-1.992978,-1.056505,2.588806,-0.448720,0.870642,0.201561,0.000000,0.000000,0.000000,-1,1.362768,-0.859088,-0.751033,0.002004,0.217341,-0.365944
"2019-04-05 09:51:26.601 +0000",1554457886.600930,-1.956202,-1.054028,2.634119,-0.457825,0.869420,0.185737,0.000000,0.000000,0.000000,-1,0.743673,0.354634,-0.422618,0.069276,0.198436,-0.153801
"2019-04-05 09:51:26.621 +0000",1554457886.620981,-1.922926,-1.052602,2.648333,-0.464914,0.868715,0.170830,0.000000,0.000000,0.000000,-1,0.063906,1.349333,-0.063558,0.107172,0.061796,0.023689
"2019-04-05 09:51:26.641 +0000",1554457886.641060,-1.895620,-1.055608,2.651633,-0.466928,0.870200,0.157239,0.000000,0.000000,0.000000,-1,0.338766,0.915176,0.268255,0.055627,-0.086127,0.103168
"2019-04-05 09:51:26.661 +0000",1554457886.661110,-1.867165,-1.072076,2.684937,-0.457444,0.878195,0.139686,0.000000,0.000000,0.000000,-1,1.489121,-0.574543,0.648205,0.085572,-0.242606,0.073281
"2019-04-05 09:51:26.681 +0000",1554457886.681190,-1.809910,-1.094710,2.764375,-0.445258,0.888795,0.108544,0.000000,0.000000,0.000000,-1,2.261846,-0.295407,0.484925,0.303092,-0.435747,0.038123
"2019-04-05 09:51:26.701 +0000",1554457886.701240,-1.721128,-1.101912,2.840666,-0.446788,0.892073,0.067677,0.000000,0.000000,0.000000,-1,1.352530,1.684462,-0.308948,0.399654,-0.331816,-0.315709
"2019-04-05 09:51:26.721 +0000",1554457886.721290,-1.650631,-1.099237,2.894956,-0.452822,0.890861,0.036228,0.000000,0.000000,0.000000,-1,1.228214,0.574322,-0.137031,0.204104,-0.084831,-0.166996
"2019-04-05 09:51:26.741 +0000",1554457886.741369,-1.592015,-1.112571,2.960911,-0.442250,0.896839,0.009385,0.000000,0.000000,0.000000,-1,1.528063,-0.253241,-0.084928,0.156148,0.016430,0.275100
"2019-04-05 09:51:26.761 +0000",1554457886.761419,-1.532342,-1.107416,3.036100,-0.446637,0.894547,-0.017184,0.000000,0.000000,0.000000,-1,1.717100,-0.447911,-0.379607,0.057706,-0.064545,0.289706
"2019-04-05 09:51:26.781 +0000",1554457886.781499,-1.478100,-1.103610,3.111364,-0.448435,0.892839,-0.041688,0.000000,0.000000,0.000000,-1,1.534435,-0.836864,-0.836601,0.023402,-0.080736,0.009812
"2019-04-05 09:51:26.802 +0000",1554457886.801549,-1.453600,-1.082424,-3.126189,-0.465964,0.883098,-0.054861,0.000000,0.000000,0.000000,-1,0.899319,-0.742772,-0.980718,0.077475,-0.004924,-0.097040
"2019-04-05 09:51:26.822 +0000",1554457886.821628,-1.439342,-1.073955,-3.095733,-0.472532,0.879092,-0.062477,0.000000,0.000000,0.000000,-1,0.653946,-0.595881,-0.813750,0.182447,0.165082,0.054008
"2019-04-05 09:51:26.842 +0000",1554457886.841679,-1.428032,-1.058432,-3.072893,-0.485245,0.871588,-0.069750,0.000000,0.000000,0.000000,-1,0.632295,-0.386432,-0.583348,0.446747,0.308512,0.065539
"2019-04-05 09:51:26.862 +0000",1554457886.861758,-1.414044,-1.061839,-3.051115,-0.481286,0.873253,-0.076066,0.000000,0.000000,0.000000,-1,0.298291,-0.208675,-0.261718,0.614815,0.402153,-0.030425
"2019-04-05 09:51:26.882 +0000",1554457886.881807,-1.415676,-1.059716,-3.054552,-0.483240,0.872217,-0.075567,0.000000,0.000000,0.000000,-1,-0.267035,0.270225,-0.045457,0.660486,0.348593,0.051138
"2019-04-05 09:51:26.902 +0000",1554457886.901888,-1.414546,-1.074359,-3.066908,-0.470486,0.879285,-0.074118,0.000000,0.000000,0.000000,-1,-0.467680,0.581922,0.074840,0.404217,0.576998,0.103781
"2019-04-05 09:51:26.922 +0000",1554457886.921938,-1.422127,-1.081100,-3.087392,-0.465161,0.882476,-0.069669,0.000000,0.000000,0.000000,-1,-0.608657,0.469220,0.423161,0.104230,0.652757,-0.154406
"2019-04-05 09:51:26.942 +0000",1554457886.941988,-1.445405,-1.110172,-3.120871,-0.441009,0.895775,-0.055590,0.000000,0.000000,0.000000,-1,-1.252693,-0.007898,0.957363,-0.070084,0.456047,-0.297330
"2019-04-05 09:51:26.962 +0000",1554457886.962068,-1.530108,-1.137140,3.081214,-0.419834,0.907435,-0.017092,0.000000,0.000000,0.000000,-1,-2.233096,-0.897307,1.273414,-0.162502,0.228627,-0.233335
"2019-04-05 09:51:26.982 +0000",1554457886.982118,-1.673180,-1.171492,2.950329,-0.386731,0.921332,0.039734,0.000000,0.000000,0.000000,-1,-2.924813,-1.181820,1.432223,-0.210025,-0.043478,0.096268
"2019-04-05 09:51:27.002 +0000",1554457887.002197,-1.863980,-1.188662,2.766436,-0.356978,0.927871,0.107766,0.000000,0.000000,0.000000,-1,-3.331052,-1.025218,1.525078,-0.367906,0.001267,0.356986
"2019-04-05 09:51:27.022 +0000",1554457887.022247,-2.040492,-1.193472,2.608734,-0.328524,0.929654,0.166753,0.000000,0.000000,0.000000,-1,-2.054872,-1.996808,0.520408,-0.680036,0.711689,0.250605
"2019-04-05 09:51:27.042 +0000",1554457887.042327,-2.131811,-1.174933,2.582217,-0.326487,0.922664,0.205153,0.000000,0.000000,0.000000,-1,-0.386636,-3.909691,-0.924494,-0.674535,0.321477,-0.092177
"2019-04-05 09:51:27.062 +0000",1554457887.062377,-2.216690,-1.171087,2.574064,-0.310751,0.921174,0.234227,0.000000,0.000000,0.000000,-1,-0.433018,-3.416583,0.447857,-0.646875,-0.280717,0.046153
"2019-04-05 09:51:27.082 +0000",1554457887.082457,-2.322979,-1.177837,2.492752,-0.279601,0.923780,0.261617,0.000000,0.000000,0.000000,-1,-1.240258,-0.444044,1.528328,-0.281251,-0.122602,0.246973
"2019-04-05 09:51:27.103 +0000",1554457887.102505,-2.417642,-1.178189,2.379951,-0.253405,0.923915,0.286631,0.000000,0.000000,0.000000,-1,-1.684074,0.738826,1.384576,-0.137159,0.003057,0.021398
"2019-04-05 09:51:27.123 +0000",1554457887.122555,-2.503527,-1.167733,2.275396,-0.233626,0.919864,0.315055,0.000000,0.000000,0.000000,-1,-1.567518,0.375106,1.181349,-0.161638,0.185956,-0.130225
"2019-04-05 09:51:27.143 +0000",1554457887.142636,-2.576275,-1.166163,2.185483,-0.210881,0.919247,0.332420,0.000000,0.000000,0.000000,-1,-0.846461,0.692440,1.508041,-0.097941,0.187015,-0.186759
"2019-04-05 09:51:27.163 +0000",1554457887.162686,-2.646476,-1.175742,2.086119,-0.182853,0.922976,0.338629,0.000000,0.000000,0.000000,-1,-0.475483,1.290684,2.193848,0.038535,0.042173,-0.388754
"2019-04-05 09:51:27.183 +0000",1554457887.182766,-2.756795,-1.204082,1.964628,-0.134583,0.933511,0.332315,0.000000,0.000000,0.000000,-1,0.037086,-0.010421,2.920693,0.005494,-0.405648,-0.732095
"2019-04-05 09:51:27.203 +0000",1554457887.202816,-2.890711,-1.204751,1.783292,-0.088854,0.933750,0.346704,0.000000,0.000000,0.000000,-1,-1.250913,2.865942,3.070558,0.212969,-0.348835,-0.291589
"2019-04-05 09:51:27.223 +0000",1554457887.222895,-2.964738,-1.190052,1.627003,-0.065376,0.928388,0.365798,0.000000,0.000000,0.000000,-1,-1.510526,3.571370,2.278154,0.350502,-0.509703,-0.447097
"2019-04-05 09:51:27.243 +0000",1554457887.242945,-2.985920,-1.163472,1.533233,-0.061419,0.918184,0.391347,0.000000,0.000000,0.000000,-1,-1.639226,3.229341,1.122644,0.367846,-0.682741,-0.390889
"2019-04-05 09:51:27.263 +0000",1554457887.263025,-2.938729,-1.135262,1.503620,-0.084998,0.906645,0.413229,0.000000,0.000000,0.000000,-1,-1.498791,3.999439,-0.077372,0.329017,-0.798567,-0.136007
"2019-04-05 09:51:27.283 +0000",1554457887.283075,-2.835349,-1.109352,1.524247,-0.134227,0.895411,0.424511,0.000000,0.000000,0.000000,-1,-0.877586,4.210839,-1.091112,0.154307,-0.801371,-0.024319
"2019-04-05 09:51:27.303 +0000",1554457887.303154,-2.715049,-1.094580,1.579749,-0.189655,0.888736,0.417333,0.000000,0.000000,0.000000,-1,0.235140,2.865974,-1.522138,-0.044827,-0.590106,0.042598
"2019-04-05 09:51:27.323 +0000",1554457887.323205,-2.624728,-1.106763,1.651698,-0.221157,0.894255,0.389083,0.000000,0.000000,0.000000,-1,1.890867,0.495317,-0.888395,-0.248020,-0.478865,0.194245
"2019-04-05 09:51:27.343 +0000",1554457887.343254,-2.546622,-1.131766,1.729982,-0.238232,0.905164,0.352009,0.000000,0.000000,0.000000,-1,1.521119,0.324386,-0.885641,-0.344882,-0.015165,0.181392
"2019-04-05 09:51:27.363 +0000",1554457887.363333,-2.541100,-1.100556,1.759383,-0.256016,0.891459,0.373822,0.000000,0.000000,0.000000,-1,-2.505929,-1.923677,-1.417210,-0.816921,1.229848,-0.107479
"2019-04-05 09:51:27.383 +0000",1554457887.383383,-2.614923,-1.048880,1.693661,-0.250589,0.866865,0.430971,0.000000,0.000000,0.000000,-1,-2.684028,0.185677,0.837768,-1.107016,1.410982,0.946059
"2019-04-05 09:51:27.403 +0000",1554457887.403463,-2.665355,-1.036462,1.621839,-0.233462,0.860608,0.452588,0.000000,0.000000,0.000000,-1,-0.652527,0.845427,1.476947,-0.361799,-0.076398,0.606143
"2019-04-05 09:51:27.424 +0000",1554457887.423513,-2.690926,-1.046939,1.575405,-0.217874,0.865896,0.450267,0.000000,0.000000,0.000000,-1,-0.017471,0.379351,0.800570,0.251993,-0.275213,0.047292
"2019-04-05 09:51:27.444 +0000",1554457887.443593,-2.686706,-1.043340,1.584527,-0.221140,0.864090,0.452140,0.000000,0.000000,0.000000,-1,0.016473,-0.447610,-0.755468,0.283869,0.652267,-0.193290
"2019-04-05 09:51:27.464 +0000",1554457887.463642,-2.652953,-1.050775,1.643125,-0.233251,0.867809,0.438736,0.000000,0.000000,0.000000,-1,1.526384,-0.899493,-1.276425,-0.032588,0.435170,-0.399658
"2019-04-05 09:51:27.484 +0000",1554457887.483723,-2.590070,-1.071242,1.729255,-0.251000,0.877796,0.407995,0.000000,0.000000,0.000000,-1,1.972899,-0.693516,-1.326156,-0.188575,-0.250096,-0.394537
"2019-04-05 09:51:27.504 +0000",1554457887.503772,-2.528231,-1.089411,1.822033,-0.266509,0.886354,0.378598,0.000000,0.000000,0.000000,-1,1.991158,-1.025317,-1.301230,-0.326982,-0.548159,-0.417386
"2019-04-05 09:51:27.524 +0000",1554457887.523853,-2.444451,-1.107701,1.927224,-0.286798,0.894674,0.342481,0.000000,0.000000,0.000000,-1,2.277448,-0.079090,-1.365236,-0.374487,-0.384283,-0.493482
"2019-04-05 09:51:27.544 +0000",1554457887.543902,-2.336289,-1.124791,2.040373,-0.311022,0.902178,0.298880,0.000000,0.000000,0.000000,-1,2.270518,0.442976,-1.090668,-0.464186,-0.136278,-0.583014
"2019-04-05 09:51:27.564 +0000",1554457887.563956,-2.240861,-1.140627,2.138964,-0.326845,0.908895,0.258978,0.000000,0.000000,0.000000,-1,1.963223,0.176173,-0.611240,-0.433012,0.062586,-0.669470
"2019-04-05 09:51:27.584 +0000",1554457887.584035,-2.171418,-1.151100,2.218179,-0.336155,0.913213,0.230283,0.000000,0.000000,0.000000,-1,1.428446,-0.376400,-0.587448,-0.170696,0.092708,-0.628461
"2019-04-05 09:51:27.604 +0000",1554457887.604084,-2.118746,-1.152093,2.288022,-0.347039,0.913617,0.211793,0.000000,0.000000,0.000000,-1,1.113239,-0.516483,-0.784946,-0.036674,0.138034,-0.409135
"2019-04-05 09:51:27.624 +0000",1554457887.624165,-2.069712,-1.149639,2.341813,-0.358970,0.912616,0.195601,0.000000,0.000000,0.000000,-1,0.701126,0.375951,-0.514042,-0.016518,0.104428,-0.181029
"2019-04-05 09:51:27.644 +0000",1554457887.644214,-2.026643,-1.148830,2.365687,-0.367722,0.912286,0.180289,0.000000,0.000000,0.000000,-1,0.268590,1.409807,-0.140624,0.032273,0.029914,0.039438
"2019-04-05 09:51:27.664 +0000",1554457887.664295,-1.977645,-1.150606,2.388752,-0.374624,0.913011,0.161422,0.000000,0.000000,0.000000,-1,0.475475,1.024683,-0.069414,0.005148,-0.041185,0.099503
"2019-04-05 09:51:27.684 +0000",1554457887.684345,-1.936352,-1.159752,2.434743,-0.373153,0.916704,0.142828,0.000000,0.000000,0.000000,-1,1.401162,-0.687091,0.206364,-0.049363,-0.173113,0.084696
"2019-04-05 09:51:27.704 +0000",1554457887.704424,-1.872314,-1.180192,2.528353,-0.363558,0.924679,0.113066,0.000000,0.000000,0.000000,-1,2.168555,-1.230064,0.455837,0.039156,-0.294720,0.065599
"2019-04-05 09:51:27.724 +0000",1554457887.724473,-1.775234,-1.197551,2.643265,-0.357031,0.931149,0.074025,0.000000,0.000000,0.000000,-1,2.189422,0.259818,0.161335,0.182486,-0.484540,-0.106740
"2019-04-05 09:51:27.745 +0000",1554457887.744523,-1.650736,-1.197876,2.740807,-0.363159,0.931267,0.029093,0.000000,0.000000,0.000000,-1,1.288574,1.926988,-0.418031,0.234863,-0.446190,-0.443155
"2019-04-05 09:51:27.765 +0000",1554457887.764604,-1.569671,-1.192289,2.807954,-0.369520,0.929217,-0.000416,0.000000,0.000000,0.000000,-1,1.352088,0.282876,-0.229418,0.163465,-0.046466,-0.129543
"2019-04-05 09:51:27.785 +0000",1554457887.784653,-1.475861,-1.187177,2.916461,-0.372582,0.927316,-0.035478,0.000000,0.000000,0.000000,-1,2.174143,-0.605709,-0.113778,0.144829,0.078543,0.464051
"2019-04-05 09:51:27.805 +0000",1554457887.804733,-1.384362,-1.177260,3.030102,-0.376800,0.923559,-0.071074,0.000000,0.000000,0.000000,-1,2.065668,-0.751273,-0.277731,0.011886,-0.125463,0.271559
"2019-04-05 09:51:27.825 +0000",1554457887.824782,-1.329581,-1.158281,3.108496,-0.389297,0.916115,-0.095769,0.000000,0.000000,0.000000,-1,1.273334,-0.967484,-0.786136,-0.028779,-0.130623,-0.048060
"2019-04-05 09:51:27.845 +0000",1554457887.844863,-1.319765,-1.137881,3.139644,-0.406360,0.907747,-0.104207,0.000000,0.000000,0.000000,-1,0.696625,-0.850092,-0.730189,0.056354,0.065795,0.024419
"2019-04-05 09:51:27.865 +0000",1554457887.864912,-1.305765,-1.123919,-3.117331,-0.417052,0.901801,-0.113195,0.000000,0.000000,0.000000,-1,0.622505,-0.325859,-0.411796,0.377242,0.414559,0.129690
"2019-04-05 09:51:27.885 +0000",1554457887.884993,-1.292145,-1.117889,-3.092802,-0.420694,0.899179,-0.120358,0.000000,0.000000,0.000000,-1,0.469904,-0.640599,-0.062735,0.561929,0.461768,0.050839
"2019-04-05 09:51:27.905 +0000",1554457887.905043,-1.308032,-1.116742,-3.092581,-0.423548,0.898676,-0.113928,0.000000,0.000000,0.000000,-1,-0.369817,-0.772880,-0.120494,0.693537,0.367071,0.149557
"2019-04-05 09:51:27.925 +0000",1554457887.925122,-1.336631,-1.118352,-3.116296,-0.425225,0.899381,-0.101434,0.000000,0.000000,0.000000,-1,-0.485360,-0.179451,0.020313,0.479150,0.626193,0.311792
"2019-04-05 09:51:27.945 +0000",1554457887.945172,-1.348267,-1.126622,-3.128169,-0.419108,0.902966,-0.094834,0.000000,0.000000,0.000000,-1,-0.442141,-0.053043,0.435671,0.138300,0.653934,-0.068618
"2019-04-05 09:51:27.965 +0000",1554457887.965221,-1.382801,-1.145283,3.120099,-0.405506,0.910827,-0.077144,0.000000,0.000000,0.000000,-1,-1.320804,-0.175866,0.944462,0.005527,0.424699,-0.315693
"2019-04-05 09:51:27.985 +0000",1554457887.985301,-1.477370,-1.175393,3.029027,-0.383490,0.922841,-0.035933,0.000000,0.000000,0.000000,-1,-2.528274,-0.904525,1.233678,-0.052271,0.227000,-0.226015
"2019-04-05 09:51:28.005 +0000",1554457888.005351,-1.654807,-1.203028,2.861909,-0.358253,0.933132,0.030168,0.000000,0.000000,0.000000,-1,-3.343736,-1.104953,1.463216,-0.144432,-0.038219,0.182707
"2019-04-05 09:51:28.025 +0000",1554457888.025432,-1.866063,-1.223407,2.655534,-0.325698,0.940265,0.099063,0.000000,0.000000,0.000000,-1,-3.325935,-0.850862,1.654203,-0.369080,0.239011,0.450711
"2019-04-05 09:51:28.045 +0000",1554457888.045481,-2.036421,-1.222187,2.504513,-0.305212,0.939849,0.153361,0.000000,0.000000,0.000000,-1,-1.692078,-2.098016,0.150928,-0.691980,0.812242,0.143544
"2019-04-05 09:51:28.066 +0000",1554457888.065561,-2.120231,-1.198821,2.484471,-0.309951,0.931611,0.189791,0.000000,0.000000,0.000000,-1,-0.724437,-3.574417,-1.143463,-0.590821,0.252684,-0.079196
"2019-04-05 09:51:28.086 +0000",1554457888.085610,-2.211380,-1.180355,2.445492,-0.305131,0.924741,0.227460,0.000000,0.000000,0.000000,-1,-1.424904,-1.829228,0.357289,-0.612258,-0.249845,0.117938
"2019-04-05 09:51:28.106 +0000",1554457888.105691,-2.315533,-1.174874,2.335432,-0.283552,0.922641,0.261382,0.000000,0.000000,0.000000,-1,-2.035716,0.625303,1.374607,-0.310397,-0.061267,0.222246
"2019-04-05 09:51:28.126 +0000",1554457888.125740,-2.413594,-1.163878,2.206679,-0.263334,0.918345,0.295443,0.000000,0.000000,0.000000,-1,-2.112633,0.999679,1.368002,-0.202517,0.069341,0.049665
"2019-04-05 09:51:28.146 +0000",1554457888.145790,-2.504198,-1.153714,2.099187,-0.241065,0.914275,0.325542,0.000000,0.000000,0.000000,-1,-1.536619,-0.063101,1.412615,-0.201852,0.115999,-0.074169
"2019-04-05 09:51:28.166 +0000",1554457888.165869,-2.601924,-1.155113,2.000257,-0.207493,0.914841,0.346412,0.000000,0.000000,0.000000,-1,-0.751467,-0.282863,1.860650,-0.107982,0.023621,-0.155646
"2019-04-05 09:51:28.186 +0000",1554457888.185919,-2.689639,-1.174355,1.898648,-0.168629,0.922441,0.347354,0.000000,0.000000,0.000000,-1,0.611105,-0.282967,2.438589,-0.037151,-0.180498,-0.365924
"2019-04-05 09:51:28.206 +0000",1554457888.206000,-2.811279,-1.207667,1.764843,-0.115201,0.934790,0.335984,0.000000,0.000000,0.000000,-1,0.154275,1.868469,3.100437,0.074612,-0.339331,-0.086808
"2019-04-05 09:51:28.226 +0000",1554457888.226050,-2.891701,-1.221678,1.591447,-0.084589,0.939675,0.331429,0.000000,0.000000,0.000000,-1,-0.453467,4.802886,2.940997,0.233057,-0.419060,-0.478722
"2019-04-05 09:51:28.246 +0000",1554457888.246130,-2.942417,-1.217988,1.447026,-0.068365,0.938406,0.338689,0.000000,0.000000,0.000000,-1,-0.902817,3.662424,2.029778,0.338354,-0.612036,-0.708226
"2019-04-05 09:51:28.266 +0000",1554457888.266180,-2.969804,-1.200149,1.353759,-0.061917,0.932093,0.356873,0.000000,0.000000,0.000000,-1,-1.350153,2.780368,1.107294,0.348035,-0.736765,-0.523576
"2019-04-05 09:51:28.286 +0000",1554457888.286259,-2.941682,-1.173650,1.318633,-0.076806,0.922168,0.379072,0.000000,0.000000,0.000000,-1,-1.393957,3.229453,-0.074725,0.302575,-0.820972,-0.234327
"2019-04-05 09:51:28.306 +0000",1554457888.306310,-2.843623,-1.147284,1.346164,-0.120647,0.911651,0.392843,0.000000,0.000000,0.000000,-1,-0.883605,3.766351,-1.226034,0.216091,-0.796081,0.103296
"2019-04-05 09:51:28.326 +0000",1554457888.326390,-2.728471,-1.138357,1.411362,-0.168247,0.907946,0.383820,0.000000,0.000000,0.000000,-1,0.767348,1.837203,-1.366627,0.006442,-0.603899,0.313599
"2019-04-05 09:51:28.346 +0000",1554457888.346438,-2.642611,-1.166336,1.502929,-0.188307,0.919315,0.345530,0.000000,0.000000,0.000000,-1,2.672627,-0.452773,-0.929276,-0.213380,-0.209278,0.409612
"2019-04-05 09:51:28.366 +0000",1554457888.366489,-2.550164,-1.179804,1.612907,-0.212478,0.924531,0.316363,0.000000,0.000000,0.000000,-1,0.210699,-0.721846,-1.915927,-0.575516,0.835799,0.178556
"2019-04-05 09:51:28.387 +0000",1554457888.386568,-2.580155,-1.124841,1.602799,-0.229631,0.902199,0.365100,0.000000,0.000000,0.000000,-1,-3.245189,-0.399543,-0.428886,-1.546034,1.941887,0.218488
"2019-04-05 09:51:28.407 +0000",1554457888.406618,-2.649756,-1.088990,1.516653,-0.218824,0.886160,0.408446,0.000000,0.000000,0.000000,-1,-1.878924,0.434814,1.368556,-1.283968,0.219248,0.791216
"2019-04-05 09:51:28.427 +0000",1554457888.426697,-2.726184,-1.089397,1.418564,-0.186854,0.886348,0.423631,0.000000,0.000000,0.000000,-1,-0.565784,0.452726,2.342730,-0.105123,-0.823192,0.359542
"2019-04-05 09:51:28.447 +0000",1554457888.446747,-2.784106,-1.097164,1.363332,-0.159602,0.889917,0.427275,0.000000,0.000000,0.000000,-1,0.170112,-1.043559,0.461152,0.540538,-0.374872,-0.046568
"2019-04-05 09:51:28.467 +0000",1554457888.466828,-2.771521,-1.111195,1.414289,-0.160435,0.896230,0.413549,0.000000,0.000000,0.000000,-1,1.746707,-2.001316,-1.476947,0.322209,0.390193,-0.172949
"2019-04-05 09:51:28.487 +0000",1554457888.486876,-2.656767,-1.153358,1.576856,-0.188942,0.914131,0.358687,0.000000,0.000000,0.000000,-1,3.939823,-1.188100,-2.659655,-0.030220,0.298012,-0.380004
"2019-04-05 09:51:28.507 +0000",1554457888.506956,-2.468944,-1.182069,1.797638,-0.236138,0.925392,0.296443,0.000000,0.000000,0.000000,-1,3.016483,-0.585538,-2.597733,-0.321662,-0.027077,-0.564097
"2019-04-05 09:51:28.527 +0000",1554457888.527006,-2.321482,-1.190282,1.958306,-0.271564,0.928474,0.253337,0.000000,0.000000,0.000000,-1,2.017444,0.171019,-1.520666,-0.609509,-0.106742,-0.749201
"2019-04-05 09:51:28.547 +0000",1554457888.547086,-2.232365,-1.199327,2.052264,-0.286396,0.931795,0.222994,0.000000,0.000000,0.000000,-1,1.412060,-0.037250,-0.338734,-0.702160,-0.047594,-0.870882
"2019-04-05 09:51:28.567 +0000",1554457888.567116,-2.170943,-1.213498,2.124291,-0.288616,0.936845,0.197515,0.000000,0.000000,0.000000,-1,1.474956,-0.328701,-0.207375,-0.258137,-0.172563,-0.530813
"2019-04-05 09:51:28.587 +0000",1554457888.587166,-2.097090,-1.219655,2.206437,-0.297410,0.938981,0.172780,0.000000,0.000000,0.000000,-1,1.240807,-0.016829,-0.688566,-0.010909,-0.161744,-0.302892
"2019-04-05 09:51:28.607 +0000",1554457888.607246,-2.019637,-1.212902,2.282142,-0.315594,0.936637,0.151998,0.000000,0.000000,0.000000,-1,0.834786,0.513127,-0.999654,0.007199,0.053537,-0.176748
"2019-04-05 09:51:28.627 +0000",1554457888.627296,-1.950239,-1.200821,2.339395,-0.335861,0.932336,0.133930,0.000000,0.000000,0.000000,-1,0.493254,0.932296,-0.730820,-0.079635,0.155844,-0.136707
"2019-04-05 09:51:28.647 +0000",1554457888.647375,-1.895597,-1.197023,2.367589,-0.346029,0.930956,0.116517,0.000000,0.000000,0.000000,-1,0.381439,1.711706,-0.147833,-0.069758,0.039823,0.083557
"2019-04-05 09:51:28.667 +0000",1554457888.667425,-1.835869,-1.199376,2.397554,-0.350252,0.931813,0.095080,0.000000,0.000000,0.000000,-1,0.579744,1.083026,0.098653,-0.162977,-0.232930,0.194334
"2019-04-05 09:51:28.688 +0000",1554457888.687505,-1.787595,-1.208574,2.458700,-0.346048,0.935112,0.076221,0.000000,0.000000,0.000000,-1,1.605006,-1.313625,0.261186,-0.229667,-0.504249,0.158017
"2019-04-05 09:51:28.708 +0000",1554457888.707554,-1.696014,-1.221610,2.587456,-0.339443,0.939652,0.042728,0.000000,0.000000,0.000000,-1,2.454317,-1.191988,0.326356,0.007610,-0.627045,0.131619
"2019-04-05 09:51:28.728 +0000",1554457888.727635,-1.573764,-1.223942,2.715371,-0.339928,0.940447,0.001009,0.000000,0.000000,0.000000,-1,1.887967,0.819475,-0.263890,0.250039,-0.318254,-0.195894
"2019-04-05 09:51:28.748 +0000",1554457888.747685,-1.470289,-1.214195,2.809415,-0.347319,0.937089,-0.035026,0.000000,0.000000,0.000000,-1,1.496030,0.307215,-0.282974,0.217055,-0.037827,-0.184014
"2019-04-05 09:51:28.768 +0000",1554457888.767734,-1.391230,-1.205725,2.903471,-0.351265,0.934098,-0.063762,0.000000,0.000000,0.000000,-1,1.876921,-0.800108,-0.132544,0.258430,0.110381,0.203960
"2019-04-05 09:51:28.788 +0000",1554457888.787814,-1.306392,-1.191477,3.017079,-0.357412,0.928917,-0.096767,0.000000,0.000000,0.000000,-1,2.104200,-1.107573,-0.244382,0.203344,0.031883,0.360835
"2019-04-05 09:51:28.808 +0000",1554457888.807864,-1.246939,-1.173533,3.100465,-0.366775,0.922123,-0.123118,0.000000,0.000000,0.000000,-1,1.484990,-0.682755,-0.472073,0.227844,-0.071308,0.115565
"2019-04-05 09:51:28.828 +0000",1554457888.827945,-1.215772,-1.154654,3.140800,-0.379019,0.914655,-0.140515,0.000000,0.000000,0.000000,-1,0.776121,-0.165375,-0.614199,0.307501,-0.011152,-0.042987
"2019-04-05 09:51:28.848 +0000",1554457888.847994,-1.203942,-1.139355,-3.122667,-0.390348,0.908364,-0.149991,0.000000,0.000000,0.000000,-1,0.610953,-0.475795,-0.489757,0.183225,0.224830,0.077496
"2019-04-05 09:51:28.868 +0000",1554457888.868073,-1.198160,-1.127536,-3.104242,-0.399447,0.903358,-0.156143,0.000000,0.000000,0.000000,-1,0.411529,-0.559695,-0.327567,0.198305,0.327538,0.158478
"2019-04-05 09:51:28.888 +0000",1554457888.888122,-1.213919,-1.121759,-3.110215,-0.406741,0.900865,-0.151650,0.000000,0.000000,0.000000,-1,-0.291947,-0.461335,-0.324574,0.282504,0.325102,0.227944
"2019-04-05 09:51:28.908 +0000",1554457888.908203,-1.243594,-1.116105,-3.136779,-0.415878,0.898397,-0.141150,0.000000,0.000000,0.000000,-1,-0.570108,-0.223955,-0.454425,0.100204,0.337352,0.187826
"2019-04-05 09:51:28.928 +0000",1554457888.928252,-1.279078,-1.116245,3.114614,-0.420503,0.898458,-0.126271,0.000000,0.000000,0.000000,-1,-0.719650,-0.516398,0.022435,0.122239,0.584955,0.089482
"2019-04-05 09:51:28.948 +0000",1554457888.948333,-1.326352,-1.129820,3.082711,-0.414128,0.904335,-0.103297,0.000000,0.000000,0.000000,-1,-1.024875,-1.161836,0.751407,0.185673,0.621666,-0.051366
"2019-04-05 09:51:28.968 +0000",1554457888.968383,-1.407356,-1.155958,3.025349,-0.397664,0.915181,-0.065579,0.000000,0.000000,0.000000,-1,-1.699700,-1.628265,1.162196,0.119450,0.399394,-0.039447
"2019-04-05 09:51:28.988 +0000",1554457888.988432,-1.538527,-1.186388,2.925004,-0.374808,0.927020,-0.012099,0.000000,0.000000,0.000000,-1,-2.312587,-2.050042,1.427040,0.035758,0.141476,0.086409
"2019-04-05 09:51:29.009 +0000",1554457889.008512,-1.707437,-1.215863,2.781148,-0.344279,0.937670,0.047338,0.000000,0.000000,0.000000,-1,-2.679767,-1.442626,1.670715,-0.175542,0.116377,0.280513
"2019-04-05 09:51:29.029 +0000",1554457889.028561,-1.892917,-1.229416,2.611540,-0.317558,0.942294,0.105983,0.000000,0.000000,0.000000,-1,-2.471144,-1.454283,0.884403,-0.591271,0.633100,0.180378
"2019-04-05 09:51:29.049 +0000",1554457889.048641,-2.013927,-1.209883,2.530505,-0.319012,0.935575,0.151406,0.000000,0.000000,0.000000,-1,-1.179090,-2.593683,-0.989420,-0.676563,0.493975,-0.057198
"2019-04-05 09:51:29.069 +0000",1554457889.068691,-2.095507,-1.192290,2.494648,-0.319810,0.929218,0.185117,0.000000,0.000000,0.000000,-1,-1.102889,-1.933688,0.282833,-0.716277,-0.164081,0.010303
"2019-04-05 09:51:29.089 +0000",1554457889.088771,-2.209894,-1.196440,2.390191,-0.293493,0.930743,0.218107,0.000000,0.000000,0.000000,-1,-1.780576,-0.436220,1.508394,-0.321909,0.040616,0.091829
"2019-04-05 09:51:29.109 +0000",1554457889.108821,-2.342992,-1.188905,2.252290,-0.266970,0.927961,0.260012,0.000000,0.000000,0.000000,-1,-2.323968,-0.204984,1.230132,-0.089704,0.132784,0.042005
"2019-04-05 09:51:29.129 +0000",1554457889.128901,-2.450500,-1.171150,2.137434,-0.247992,0.921199,0.299806,0.000000,0.000000,0.000000,-1,-1.908151,0.011704,0.964355,-0.130853,0.104817,0.056273
"2019-04-05 09:51:29.149 +0000",1554457889.148950,-2.523654,-1.163225,2.053073,-0.229638,0.918086,0.323070,0.000000,0.000000,0.000000,-1,-1.005847,0.399110,1.194892,-0.078238,-0.104015,-0.063457
"2019-04-05 09:51:29.169 +0000",1554457889.169000,-2.580235,-1.171013,1.973326,-0.207188,0.921145,0.329476,0.000000,0.000000,0.000000,-1,-0.351292,1.065227,1.770443,0.019917,-0.309970,-0.289192
"2019-04-05 09:51:29.189 +0000",1554457889.189080,-2.649813,-1.189036,1.867999,-0.175912,0.928010,0.328392,0.000000,0.000000,0.000000,-1,-0.265881,1.569047,2.436568,0.146874,-0.439165,-0.422920
"2019-04-05 09:51:29.209 +0000",1554457889.209130,-2.738474,-1.203907,1.729355,-0.140714,0.933448,0.329946,0.000000,0.000000,0.000000,-1,-0.539247,2.277435,2.605654,0.242215,-0.483588,-0.505666
"2019-04-05 09:51:29.229 +0000",1554457889.229210,-2.810023,-1.205971,1.597701,-0.116139,0.934186,0.337339,0.000000,0.000000,0.000000,-1,-0.938410,2.567143,1.951285,0.338719,-0.614499,-0.552610
"2019-04-05 09:51:29.249 +0000",1554457889.249259,-2.849272,-1.193511,1.505900,-0.106159,0.929668,0.352756,0.000000,0.000000,0.000000,-1,-1.164363,2.221930,1.063260,0.353718,-0.826000,-0.426181
"2019-04-05 09:51:29.269 +0000",1554457889.269340,-2.836953,-1.175862,1.465811,-0.115401,0.923022,0.367018,0.000000,0.000000,0.000000,-1,-1.003761,2.708028,0.088418,0.329253,-0.981799,-0.101225
"2019-04-05 09:51:29.289 +0000",1554457889.289389,-2.744607,-1.159085,1.492988,-0.154720,0.916437,0.369044,0.000000,0.000000,0.000000,-1,-0.269630,3.593599,-1.205512,0.224071,-0.811457,0.152288
"2019-04-05 09:51:29.309 +0000",1554457889.309469,-2.606237,-1.156447,1.576661,-0.205376,0.915378,0.346255,0.000000,0.000000,0.000000,-1,1.157333,2.435638,-1.558206,0.066170,-0.691822,0.248639
"2019-04-05 09:51:29.330 +0000",1554457889.329519,-2.477189,-1.174402,1.694439,-0.238053,0.922459,0.303956,0.000000,0.000000,0.000000,-1,2.450840,0.575786,-1.328324,-0.082168,-0.301365,0.335922
"2019-04-05 09:51:29.350 +0000",1554457889.349598,-2.378195,-1.172863,1.825046,-0.267910,0.921864,0.279965,0.000000,0.000000,0.000000,-1,0.327239,-2.711463,-2.345596,-0.490391,0.900417,0.026523
"2019-04-05 09:51:29.370 +0000",1554457889.369648,-2.442274,-1.130571,1.820372,-0.274298,0.904656,0.326109,0.000000,0.000000,0.000000,-1,-2.273012,-1.034113,-0.272718,-1.468744,2.127296,0.919695
"2019-04-05 09:51:29.390 +0000",1554457889.389697,-2.509938,-1.120216,1.733456,-0.257140,0.900195,0.351450,0.000000,0.000000,0.000000,-1,-0.874370,0.591322,1.791147,-1.099764,0.358305,1.023947
"2019-04-05 09:51:29.410 +0000",1554457889.409778,-2.586064,-1.151231,1.641618,-0.214833,0.913266,0.346093,0.000000,0.000000,0.000000,-1,0.614330,-0.164958,2.383418,0.037617,-0.626386,0.255820
"2019-04-05 09:51:29.430 +0000",1554457889.429827,-2.615955,-1.181056,1.617512,-0.190637,0.925008,0.328644,0.000000,0.000000,0.000000,-1,1.287925,-0.564814,0.438968,0.409738,0.469188,-0.378906
"2019-04-05 09:51:29.450 +0000",1554457889.449908,-2.550749,-1.206905,1.703189,-0.198257,0.934519,0.295563,0.000000,0.000000,0.000000,-1,2.239160,-0.547043,-1.181765,0.202469,0.579260,-0.651321
"2019-04-05 09:51:29.470 +0000",1554457889.469958,-2.423635,-1.218686,1.846270,-0.226868,0.938647,0.259734,0.000000,0.000000,0.000000,-1,1.648172,-0.522006,-1.721128,0.014908,-0.076937,-0.617461
"2019-04-05 09:51:29.490 +0000",1554457889.490037,-2.329352,-1.212848,1.965976,-0.254286,0.936618,0.240988,0.000000,0.000000,0.000000,-1,1.063144,-1.012896,-1.569335,-0.186922,-0.440280,-0.557944
"2019-04-05 09:51:29.510 +0000",1554457889.510087,-2.261516,-1.207070,2.052213,-0.274202,0.934578,0.226641,0.000000,0.000000,0.000000,-1,0.804281,-0.330149,-0.969115,-0.358946,-0.376900,-0.522204
"2019-04-05 09:51:29.530 +0000",1554457889.530167,-2.192805,-1.205304,2.112974,-0.290457,0.933948,0.208242,0.000000,0.000000,0.000000,-1,0.936436,1.171192,-0.649525,-0.397241,-0.189228,-0.308264
"2019-04-05 09:51:29.550 +0000",1554457889.550217,-2.079656,-1.207496,2.204685,-0.310325,0.934729,0.173119,0.000000,0.000000,0.000000,-1,1.585647,1.213282,-0.812912,-0.193109,-0.248785,-0.315224
"2019-04-05 09:51:29.570 +0000",1554457889.570258,-1.966688,-1.204707,2.312841,-0.330266,0.933734,0.138038,0.000000,0.000000,0.000000,-1,1.679096,0.189211,-1.026820,-0.125484,-0.068790,-0.354896
"2019-04-05 09:51:29.590 +0000",1554457889.590338,-1.879055,-1.196581,2.410397,-0.348299,0.930795,0.110902,0.000000,0.000000,0.000000,-1,1.274087,-0.249726,-0.800855,-0.187910,0.139075,-0.286988
"2019-04-05 09:51:29.610 +0000",1554457889.610387,-1.823848,-1.191879,2.462541,-0.358122,0.929066,0.092609,0.000000,0.000000,0.000000,-1,0.587743,0.851286,-0.311696,-0.084673,0.137127,0.047269
"2019-04-05 09:51:29.630 +0000",1554457889.630468,-1.772461,-1.190318,2.483385,-0.363826,0.928487,0.074382,0.000000,0.000000,0.000000,-1,0.223587,1.749001,-0.039837,-0.080448,-0.092336,0.237004
"2019-04-05 09:51:29.651 +0000",1554457889.650518,-1.724375,-1.192854,2.512679,-0.364654,0.929426,0.056448,0.000000,0.000000,0.000000,-1,0.877449,0.417099,0.094612,-0.096086,-0.346601,0.186961
"2019-04-05 09:51:29.671 +0000",1554457889.670599,-1.653986,-1.198742,2.594673,-0.362261,0.931583,0.030206,0.000000,0.000000,0.000000,-1,1.766702,-0.466205,0.154727,0.091692,-0.506213,0.075736
"2019-04-05 09:51:29.691 +0000",1554457889.690648,-1.559235,-1.198039,2.695464,-0.364149,0.931327,-0.004210,0.000000,0.000000,0.000000,-1,1.812636,0.279324,-0.322145,0.181745,-0.315696,-0.135576
"2019-04-05 09:51:29.711 +0000",1554457889.710726,-1.458845,-1.187431,2.794591,-0.371691,0.927411,-0.041786,0.000000,0.000000,0.000000,-1,1.771005,0.354849,-0.295291,0.076373,-0.202893,-0.030037
"2019-04-05 09:51:29.731 +0000",1554457889.730777,-1.382269,-1.176823,2.878137,-0.377050,0.923391,-0.071938,0.000000,0.000000,0.000000,-1,1.634951,-0.344761,-0.313212,0.127156,-0.034277,0.177331
"2019-04-05 09:51:29.751 +0000",1554457889.750857,-1.315177,-1.160000,2.966051,-0.386355,0.916803,-0.100969,0.000000,0.000000,0.000000,-1,1.933721,-0.807535,-0.429760,0.228411,0.056280,0.442643
"2019-04-05 09:51:29.771 +0000",1554457889.770907,-1.255446,-1.141001,3.050665,-0.396129,0.909051,-0.129232,0.000000,0.000000,0.000000,-1,1.758982,-0.914808,-0.427382,0.302379,-0.030160,0.222387
"2019-04-05 09:51:29.791 +0000",1554457889.790956,-1.228965,-1.121972,3.095458,-0.408795,0.900958,-0.145449,0.000000,0.000000,0.000000,-1,0.823256,-0.514207,-0.668166,0.442685,0.008619,0.011293
"2019-04-05 09:51:29.811 +0000",1554457889.811037,-1.224701,-1.105826,3.107188,-0.421802,0.893835,-0.152106,0.000000,0.000000,0.000000,-1,0.413728,-0.244892,-0.539969,0.278567,0.236902,0.047400
"2019-04-05 09:51:29.831 +0000",1554457889.831085,-1.218822,-1.096407,3.114858,-0.428785,0.889572,-0.157479,0.000000,0.000000,0.000000,-1,0.204424,0.026364,-0.267465,0.296354,0.315979,0.160622
"2019-04-05 09:51:29.851 +0000",1554457889.851165,-1.225506,-1.093674,3.108797,-0.432113,0.888320,-0.155431,0.000000,0.000000,0.000000,-1,-0.251735,-0.193445,-0.158108,0.366561,0.284470,0.274373
"2019-04-05 09:51:29.871 +0000",1554457889.871216,-1.249303,-1.091705,3.088296,-0.437348,0.887414,-0.145658,0.000000,0.000000,0.000000,-1,-0.551124,-0.224038,-0.242593,0.149781,0.335868,0.285886
"2019-04-05 09:51:29.891 +0000",1554457889.891295,-1.281397,-1.096230,3.051120,-0.437944,0.889491,-0.130401,0.000000,0.000000,0.000000,-1,-1.068586,0.094208,0.151078,0.097017,0.634633,0.010742
"2019-04-05 09:51:29.911 +0000",1554457889.911345,-1.331217,-1.113878,3.000983,-0.428576,0.897416,-0.104689,0.000000,0.000000,0.000000,-1,-1.508092,-0.477743,0.834730,0.108310,0.607070,-0.238024
"2019-04-05 09:51:29.931 +0000",1554457889.931424,-1.419265,-1.145019,2.922877,-0.408288,0.910718,-0.062346,0.000000,0.000000,0.000000,-1,-2.222378,-1.160047,1.378331,0.099923,0.328235,-0.109040
"2019-04-05 09:51:29.951 +0000",1554457889.951474,-1.566978,-1.181388,2.797077,-0.379629,0.925134,-0.001449,0.000000,0.000000,0.000000,-1,-2.833186,-1.739241,1.775986,-0.078547,0.145438,0.104980
"2019-04-05 09:51:29.972 +0000",1554457889.971524,-1.754538,-1.211718,2.628266,-0.345485,0.936221,0.064204,0.000000,0.000000,0.000000,-1,-2.935678,-1.265936,1.715316,-0.390431,0.267468,0.353566
"2019-04-05 09:51:29.992 +0000",1554457889.991604,-1.915681,-1.216224,2.482802,-0.326734,0.937795,0.117377,0.000000,0.000000,0.000000,-1,-1.897886,-1.648062,0.067048,-0.720965,0.761256,0.163294
"2019-04-05 09:51:30.012 +0000",1554457890.011654,-2.001358,-1.187003,2.452271,-0.340255,0.927251,0.156280,0.000000,0.000000,0.000000,-1,-0.720088,-3.320261,-1.325101,-0.803604,0.262873,-0.055877
"2019-04-05 09:51:30.032 +0000",1554457890.031734,-2.090695,-1.179403,2.416308,-0.331062,0.924378,0.189509,0.000000,0.000000,0.000000,-1,-0.918036,-2.117986,0.981574,-0.739418,-0.291734,0.056066
"2019-04-05 09:51:30.052 +0000",1554457890.051784,-2.203283,-1.193251,2.312907,-0.297321,0.929572,0.217916,0.000000,0.000000,0.000000,-1,-1.498459,-0.241903,1.741204,-0.126080,0.077737,0.092402
"2019-04-05 09:51:30.072 +0000",1554457890.071865,-2.317395,-1.192924,2.185810,-0.270798,0.929452,0.250559,0.000000,0.000000,0.000000,-1,-1.933183,0.290220,1.355660,-0.035004,0.176460,0.008718
"2019-04-05 09:51:30.092 +0000",1554457890.091915,-2.419074,-1.184028,2.071131,-0.249425,0.926133,0.282944,0.000000,0.000000,0.000000,-1,-1.666525,0.163512,1.209969,-0.066554,0.159423,-0.021088
"2019-04-05 09:51:30.112 +0000",1554457890.111995,-2.501646,-1.181556,1.975491,-0.226603,0.925197,0.304386,0.000000,0.000000,0.000000,-1,-0.990173,0.416018,1.511105,-0.031682,-0.024639,-0.119678
"2019-04-05 09:51:30.132 +0000",1554457890.132043,-2.579210,-1.192394,1.873912,-0.196978,0.929256,0.312527,0.000000,0.000000,0.000000,-1,-0.444341,1.081150,2.098638,0.053209,-0.269481,-0.294933
"2019-04-05 09:51:30.152 +0000",1554457890.152124,-2.656297,-1.211610,1.753700,-0.163963,0.936183,0.310912,0.000000,0.000000,0.000000,-1,-0.233219,2.172997,2.524851,0.162696,-0.455653,-0.384993
"2019-04-05 09:51:30.172 +0000",1554457890.172173,-2.729899,-1.227503,1.615169,-0.134684,0.941651,0.308450,0.000000,0.000000,0.000000,-1,-0.400863,3.112144,2.370399,0.245005,-0.552323,-0.518900
"2019-04-05 09:51:30.192 +0000",1554457890.192225,-2.784240,-1.230833,1.493290,-0.116634,0.942767,0.312371,0.000000,0.000000,0.000000,-1,-0.808251,2.811673,1.709693,0.327831,-0.693698,-0.564629
"2019-04-05 09:51:30.212 +0000",1554457890.212304,-2.818782,-1.218938,1.405612,-0.109327,0.938734,0.326825,0.000000,0.000000,0.000000,-1,-1.154571,2.211319,0.881147,0.358472,-0.827330,-0.404995
"2019-04-05 09:51:30.232 +0000",1554457890.232354,-2.803369,-1.199297,1.371030,-0.120446,0.931784,0.342431,0.000000,0.000000,0.000000,-1,-1.060964,2.510323,-0.150286,0.369394,-0.966238,-0.071816
"2019-04-05 09:51:30.252 +0000",1554457890.252434,-2.709841,-1.179670,1.412028,-0.159523,0.924480,0.346231,0.000000,0.000000,0.000000,-1,-0.228353,2.804621,-1.588170,0.260109,-0.981350,0.228721
"2019-04-05 09:51:30.272 +0000",1554457890.272482,-2.570015,-1.175046,1.520687,-0.208531,0.922708,0.324211,0.000000,0.000000,0.000000,-1,1.504705,1.173211,-1.916905,0.071431,-0.737237,0.369271
"2019-04-05 09:51:30.293 +0000",1554457890.292562,-2.426062,-1.195167,1.676818,-0.240654,0.930277,0.276872,0.000000,0.000000,0.000000,-1,2.825758,-0.283607,-1.735362,-0.095726,-0.224665,0.398085
"2019-04-05 09:51:30.313 +0000",1554457890.312612,-2.339001,-1.165522,1.779978,-0.283532,0.918994,0.273946,0.000000,0.000000,0.000000,-1,-2.121309,-1.148447,-2.716850,-0.635673,1.321911,-0.031026
"2019-04-05 09:51:30.333 +0000",1554457890.332693,-2.424148,-1.103604,1.708948,-0.296099,0.892837,0.339347,0.000000,0.000000,0.000000,-1,-3.005056,0.139302,0.039939,-1.848432,2.451829,1.046853
"2019-04-05 09:51:30.353 +0000",1554457890.352742,-2.486523,-1.096244,1.632536,-0.278366,0.889498,0.362345,0.000000,0.000000,0.000000,-1,-0.590686,0.299764,1.743081,-1.064194,0.133223,1.035467
"2019-04-05 09:51:30.373 +0000",1554457890.372792,-2.554540,-1.118979,1.544753,-0.241829,0.899655,0.363492,0.000000,0.000000,0.000000,-1,-0.139309,0.436491,2.194704,0.057473,-0.906522,0.210163
"2019-04-05 09:51:30.393 +0000",1554457890.392872,-2.596570,-1.126081,1.508688,-0.223024,0.902733,0.367858,0.000000,0.000000,0.000000,-1,0.032848,-0.803043,0.119074,0.472872,-0.102806,-0.337737
"2019-04-05 09:51:30.413 +0000",1554457890.412922,-2.576560,-1.133998,1.566378,-0.226505,0.906111,0.357274,0.000000,0.000000,0.000000,-1,1.759231,-1.937581,-1.242626,0.259571,0.233507,-0.452656
"2019-04-05 09:51:30.433 +0000",1554457890.433001,-2.479451,-1.159481,1.712955,-0.245799,0.916596,0.315312,0.000000,0.000000,0.000000,-1,3.045201,-1.760780,-1.952509,0.051036,-0.040726,-0.456410
"2019-04-05 09:51:30.453 +0000",1554457890.453050,-2.338641,-1.175149,1.893675,-0.277252,0.922747,0.267685,0.000000,0.000000,0.000000,-1,2.820960,-0.755679,-2.030042,-0.139969,-0.152972,-0.459778
"2019-04-05 09:51:30.473 +0000",1554457890.473131,-2.193147,-1.182103,2.047162,-0.307912,0.925405,0.220915,0.000000,0.000000,0.000000,-1,2.089408,0.513293,-1.180597,-0.338893,-0.067022,-0.745238
"2019-04-05 09:51:30.493 +0000",1554457890.493181,-2.104574,-1.196244,2.130192,-0.314948,0.930671,0.186135,0.000000,0.000000,0.000000,-1,1.644687,0.537750,0.156792,-0.374841,0.065041,-0.837182
"2019-04-05 09:51:30.513 +0000",1554457890.513260,-2.016464,-1.217801,2.216361,-0.311927,0.938341,0.149015,0.000000,0.000000,0.000000,-1,1.808912,0.245178,0.210170,-0.018761,-0.072252,-0.565473
"2019-04-05 09:51:30.533 +0000",1554457890.533310,-1.948439,-1.225384,2.285298,-0.314710,0.940936,0.124840,0.000000,0.000000,0.000000,-1,0.815044,0.218402,-0.294206,0.110685,-0.081790,-0.339195
"2019-04-05 09:51:30.553 +0000",1554457890.553389,-1.899529,-1.218512,2.324200,-0.326550,0.938587,0.111389,0.000000,0.000000,0.000000,-1,0.400458,0.872788,-0.628478,0.170117,0.018643,-0.125580
"2019-04-05 09:51:30.573 +0000",1554457890.573449,-1.837877,-1.208075,2.356155,-0.342223,0.934935,0.093638,0.000000,0.000000,0.000000,-1,0.313505,2.067045,-0.600616,0.178832,0.091234,0.152837
"2019-04-05 09:51:30.593 +0000",1554457890.593498,-1.771437,-1.200908,2.370650,-0.354242,0.932368,0.072045,0.000000,0.000000,0.000000,-1,0.077310,2.743465,-0.283681,0.107477,-0.036936,0.329795
"2019-04-05 09:51:30.614 +0000",1554457890.613580,-1.714304,-1.193384,2.391524,-0.364713,0.929621,0.052701,0.000000,0.000000,0.000000,-1,0.551598,1.106601,-0.542203,-0.208972,-0.209589,0.182635
"2019-04-05 09:51:30.634 +0000",1554457890.633628,-1.656041,-1.184134,2.456738,-0.375715,0.926173,0.032106,0.000000,0.000000,0.000000,-1,1.467930,-0.702953,-0.453965,-0.316454,-0.402049,0.127639
"2019-04-05 09:51:30.654 +0000",1554457890.653708,-1.579965,-1.182849,2.553092,-0.378259,0.925687,0.003468,0.000000,0.000000,0.000000,-1,1.859539,-0.340733,-0.031611,-0.121329,-0.465559,-0.001134
"2019-04-05 09:51:30.674 +0000",1554457890.673759,-1.493226,-1.177600,2.640091,-0.381976,0.923689,-0.029689,0.000000,0.000000,0.000000,-1,1.522586,0.549657,-0.313493,0.115665,-0.238570,-0.102055
"2019-04-05 09:51:30.694 +0000",1554457890.693839,-1.411468,-1.165444,2.716198,-0.389335,0.918963,-0.062562,0.000000,0.000000,0.000000,-1,1.568571,0.493294,-0.441474,0.245429,-0.070437,0.064439
"2019-04-05 09:51:30.714 +0000",1554457890.713888,-1.333766,-1.151358,2.801815,-0.395848,0.913318,-0.095625,0.000000,0.000000,0.000000,-1,1.944008,-0.489623,-0.229058,0.346409,0.131146,0.193465
"2019-04-05 09:51:30.734 +0000",1554457890.733968,-1.272601,-1.136507,2.894494,-0.402185,0.907169,-0.123615,0.000000,0.000000,0.000000,-1,2.003076,-1.395685,-0.225469,0.349816,0.033825,0.242024
"2019-04-05 09:51:30.754 +0000",1554457890.754019,-1.237806,-1.120433,2.954852,-0.411370,0.900289,-0.142280,0.000000,0.000000,0.000000,-1,1.027685,-0.588842,-0.438825,0.327401,-0.052251,0.228325
"2019-04-05 09:51:30.774 +0000",1554457890.774098,-1.222866,-1.106824,2.974868,-0.420679,0.894282,-0.152574,0.000000,0.000000,0.000000,-1,0.556344,-0.067422,-0.438863,0.111841,0.093236,0.133867
"2019-04-05 09:51:30.794 +0000",1554457890.794148,-1.211386,-1.096644,2.991020,-0.427400,0.889680,-0.160587,0.000000,0.000000,0.000000,-1,0.403867,-0.194949,-0.306680,0.168474,0.384337,0.055225
"2019-04-05 09:51:30.814 +0000",1554457890.814199,-1.216455,-1.090356,2.988689,-0.433447,0.886792,-0.160356,0.000000,0.000000,0.000000,-1,-0.149304,-0.108394,-0.326441,0.385915,0.405262,0.082918
"2019-04-05 09:51:30.834 +0000",1554457890.834279,-1.236717,-1.085960,2.969590,-0.440285,0.884751,-0.152818,0.000000,0.000000,0.000000,-1,-0.456211,-0.221951,-0.310967,0.355294,0.278945,0.128633
"2019-04-05 09:51:30.854 +0000",1554457890.854327,-1.267084,-1.089876,2.940003,-0.441413,0.886569,-0.138342,0.000000,0.000000,0.000000,-1,-0.890465,-0.266413,0.186203,0.251716,0.516888,0.049674
"2019-04-05 09:51:30.874 +0000",1554457890.874408,-1.315904,-1.106754,2.898731,-0.433093,0.894251,-0.112847,0.000000,0.000000,0.000000,-1,-1.294732,-0.803277,0.784651,0.161761,0.610052,-0.123634
"2019-04-05 09:51:30.894 +0000",1554457890.894458,-1.394506,-1.135361,2.833299,-0.415253,0.906687,-0.073973,0.000000,0.000000,0.000000,-1,-1.991028,-1.081484,1.256513,0.118027,0.365790,-0.071367
"2019-04-05 09:51:30.915 +0000",1554457890.914537,-1.525809,-1.171699,2.715577,-0.388178,0.921412,-0.017475,0.000000,0.000000,0.000000,-1,-2.915460,-1.165970,1.686695,-0.105353,0.123143,0.053898
"2019-04-05 09:51:30.935 +0000",1554457890.934585,-1.703223,-1.202335,2.544864,-0.357008,0.932883,0.047556,0.000000,0.000000,0.000000,-1,-3.160668,-0.821220,1.589956,-0.390016,0.182672,0.187109
"2019-04-05 09:51:30.955 +0000",1554457890.954666,-1.879852,-1.210868,2.378130,-0.335501,0.935922,0.107121,0.000000,0.000000,0.000000,-1,-2.399323,-1.495712,0.493396,-0.706064,0.749106,0.165752
"2019-04-05 09:51:30.975 +0000",1554457890.974716,-1.999003,-1.182195,2.311718,-0.344666,0.925440,0.157324,0.000000,0.000000,0.000000,-1,-1.293240,-3.450568,-1.515548,-0.605498,0.430227,-0.030721
"2019-04-05 09:51:30.995 +0000",1554457890.994765,-2.089294,-1.150585,2.286920,-0.354317,0.913003,0.202162,0.000000,0.000000,0.000000,-1,-1.205037,-2.952169,-0.441648,-0.547599,-0.219384,0.061281
"2019-04-05 09:51:31.015 +0000",1554457891.014844,-2.192015,-1.147353,2.210630,-0.334117,0.911679,0.239145,0.000000,0.000000,0.000000,-1,-1.574272,-0.913751,1.141840,-0.186833,-0.114942,0.203376
"2019-04-05 09:51:31.035 +0000",1554457891.034895,-2.290902,-1.143419,2.103913,-0.311568,0.910056,0.273325,0.000000,0.000000,0.000000,-1,-1.909602,0.275363,1.219291,-0.048906,0.005655,0.102530
"2019-04-05 09:51:31.055 +0000",1554457891.054975,-2.368985,-1.136033,2.009842,-0.293981,0.906970,0.301599,0.000000,0.000000,0.000000,-1,-1.474555,0.263389,1.022273,-0.148935,0.212690,0.045767
"2019-04-05 09:51:31.075 +0000",1554457891.075025,-2.435560,-1.137968,1.936059,-0.272127,0.907783,0.319152,0.000000,0.000000,0.000000,-1,-0.664772,-0.081859,1.414661,-0.111327,0.137352,-0.050323
"2019-04-05 09:51:31.095 +0000",1554457891.095104,-2.501438,-1.156471,1.858911,-0.240450,0.915388,0.322846,0.000000,0.000000,0.000000,-1,-0.098773,0.594936,2.079889,0.059344,-0.151259,-0.233719
"2019-04-05 09:51:31.115 +0000",1554457891.115155,-2.565463,-1.184471,1.756190,-0.205254,0.926300,0.315945,0.000000,0.000000,0.000000,-1,0.015042,1.995200,2.670853,0.216652,-0.388153,-0.381298
"2019-04-05 09:51:31.135 +0000",1554457891.135234,-2.635140,-1.211412,1.625807,-0.170588,0.936114,0.307527,0.000000,0.000000,0.000000,-1,-0.144118,2.823723,2.614142,0.318110,-0.525683,-0.529069
"2019-04-05 09:51:31.155 +0000",1554457891.155283,-2.691472,-1.226352,1.504755,-0.146902,0.941263,0.304015,0.000000,0.000000,0.000000,-1,-0.478066,2.781610,1.924958,0.360830,-0.702295,-0.573379
"2019-04-05 09:51:31.175 +0000",1554457891.175364,-2.729417,-1.224278,1.410618,-0.136045,0.940561,0.311158,0.000000,0.000000,0.000000,-1,-0.902315,2.442913,1.091740,0.375699,-0.866022,-0.459031
"2019-04-05 09:51:31.195 +0000",1554457891.195413,-2.726789,-1.211369,1.358380,-0.141743,0.936099,0.321885,0.000000,0.000000,0.000000,-1,-0.937792,2.651582,0.227634,0.344380,-0.980090,-0.202973
"2019-04-05 09:51:31.215 +0000",1554457891.215463,-2.651935,-1.192718,1.372335,-0.173601,0.929376,0.325736,0.000000,0.000000,0.000000,-1,-0.525350,3.390691,-1.186062,0.352647,-0.910867,0.119912
"2019-04-05 09:51:31.236 +0000",1554457891.235543,-2.513472,-1.176368,1.453380,-0.225798,0.923216,0.310914,0.000000,0.000000,0.000000,-1,0.595773,2.721131,-1.824614,0.219466,-0.730315,0.278503
"2019-04-05 09:51:31.256 +0000",1554457891.255593,-2.377173,-1.176946,1.576059,-0.265581,0.923438,0.276965,0.000000,0.000000,0.000000,-1,2.012363,0.285945,-1.824965,-0.012495,-0.340675,0.432660
"2019-04-05 09:51:31.276 +0000",1554457891.275674,-2.264012,-1.163247,1.722801,-0.304861,0.918095,0.253265,0.000000,0.000000,0.000000,-1,0.944829,-2.601178,-2.905927,-0.442988,1.058193,0.408173
"2019-04-05 09:51:31.296 +0000",1554457891.295724,-2.291750,-1.122660,1.756915,-0.325458,0.901256,0.285999,0.000000,0.000000,0.000000,-1,-1.812994,-1.104477,-0.904309,-1.737759,2.566700,0.797680
"2019-04-05 09:51:31.316 +0000",1554457891.315802,-2.372961,-1.113484,1.658331,-0.306921,0.897242,0.317389,0.000000,0.000000,0.000000,-1,-1.423495,0.472567,2.086177,-1.467554,0.195791,0.809045
"2019-04-05 09:51:31.336 +0000",1554457891.335851,-2.472813,-1.143227,1.530604,-0.257087,0.909976,0.325316,0.000000,0.000000,0.000000,-1,-0.405628,0.517276,3.095206,0.169563,-0.937503,0.274309
"2019-04-05 09:51:31.356 +0000",1554457891.355932,-2.535182,-1.161017,1.466574,-0.227046,0.917209,0.327349,0.000000,0.000000,0.000000,-1,0.148312,-0.303454,0.581752,0.664927,-0.052112,-0.157046
"2019-04-05 09:51:31.376 +0000",1554457891.375981,-2.493210,-1.166647,1.529623,-0.237459,0.919437,0.313413,0.000000,0.000000,0.000000,-1,1.648325,-1.182413,-1.550863,0.456773,0.627392,-0.374433
"2019-04-05 09:51:31.396 +0000",1554457891.396032,-2.353528,-1.180244,1.700022,-0.269893,0.924699,0.268457,0.000000,0.000000,0.000000,-1,2.872138,-0.679146,-2.083273,-0.050633,0.136901,-0.471445
"2019-04-05 09:51:31.416 +0000",1554457891.416111,-2.223327,-1.183657,1.854247,-0.299954,0.925993,0.229227,0.000000,0.000000,0.000000,-1,1.880314,-0.548810,-1.513067,-0.409579,-0.268660,-0.564737
"2019-04-05 09:51:31.436 +0000",1554457891.436161,-2.155150,-1.186797,1.932732,-0.312448,0.927174,0.206656,0.000000,0.000000,0.000000,-1,0.981307,-0.021026,-0.168338,-0.605063,-0.181858,-0.646094
"2019-04-05 09:51:31.456 +0000",1554457891.456241,-2.115248,-1.197856,1.970427,-0.311652,0.931260,0.188705,0.000000,0.000000,0.000000,-1,0.954234,0.338361,0.080441,-0.278558,-0.165177,-0.441955
"2019-04-05 09:51:31.476 +0000",1554457891.476290,-2.036498,-1.207153,2.046895,-0.317781,0.934607,0.159707,0.000000,0.000000,0.000000,-1,1.628326,0.317776,-0.419572,-0.054854,-0.283072,-0.274484
"2019-04-05 09:51:31.496 +0000",1554457891.496371,-1.938784,-1.207568,2.145500,-0.331485,0.934755,0.127804,0.000000,0.000000,0.000000,-1,1.501904,0.249907,-0.793095,-0.015591,-0.180070,-0.252529
"2019-04-05 09:51:31.516 +0000",1554457891.516420,-1.849654,-1.200292,2.232641,-0.348077,0.932145,0.099661,0.000000,0.000000,0.000000,-1,1.227835,0.508511,-0.762145,-0.055671,0.063491,-0.228399
"2019-04-05 09:51:31.537 +0000",1554457891.536500,-1.780214,-1.194698,2.290240,-0.359248,0.930105,0.076352,0.000000,0.000000,0.000000,-1,0.760376,0.976656,-0.354496,-0.006979,0.179865,-0.122693
"2019-04-05 09:51:31.557 +0000",1554457891.556550,-1.722685,-1.193138,2.321754,-0.364478,0.929531,0.055790,0.000000,0.000000,0.000000,-1,0.432570,1.548931,-0.033256,0.089088,-0.022472,0.177624
"2019-04-05 09:51:31.577 +0000",1554457891.576611,-1.672131,-1.197110,2.352825,-0.363157,0.930988,0.036927,0.000000,0.000000,0.000000,-1,0.786648,0.601116,0.204829,-0.017169,-0.325962,0.277130
"2019-04-05 09:51:31.597 +0000",1554457891.596660,-1.608673,-1.203456,2.425457,-0.358855,0.933286,0.013599,0.000000,0.000000,0.000000,-1,1.645148,-0.604378,0.270845,-0.091508,-0.475705,0.184323
"2019-04-05 09:51:31.617 +0000",1554457891.616710,-1.513459,-1.204318,2.535587,-0.357720,0.933595,-0.020533,0.000000,0.000000,0.000000,-1,1.979838,0.068596,-0.095079,0.118294,-0.333009,-0.011586
"2019-04-05 09:51:31.637 +0000",1554457891.636791,-1.414829,-1.194178,2.626958,-0.363295,0.929914,-0.057126,0.000000,0.000000,0.000000,-1,1.522509,0.749574,-0.332308,0.101118,-0.085019,-0.185305
"2019-04-05 09:51:31.657 +0000",1554457891.656839,-1.339009,-1.184641,2.701942,-0.366539,0.926364,-0.086514,0.000000,0.000000,0.000000,-1,1.466195,-0.007576,-0.126936,0.100289,0.029187,0.028134
"2019-04-05 09:51:31.677 +0000",1554457891.676919,-1.275404,-1.173003,2.782330,-0.370590,0.921918,-0.112769,0.000000,0.000000,0.000000,-1,1.694712,-0.809542,-0.164048,0.158920,0.077395,0.311469
"2019-04-05 09:51:31.697 +0000",1554457891.696970,-1.222129,-1.156391,2.861373,-0.378403,0.915356,-0.137557,0.000000,0.000000,0.000000,-1,1.675839,-1.004076,-0.378352,0.204591,-0.053005,0.327361
"2019-04-05 09:51:31.717 +0000",1554457891.717049,-1.196958,-1.137061,2.908301,-0.391223,0.907402,-0.153471,0.000000,0.000000,0.000000,-1,0.908582,-0.741843,-0.622994,0.283160,-0.036888,0.128828
"2019-04-05 09:51:31.737 +0000",1554457891.737099,-1.195138,-1.119011,2.922775,-0.406115,0.899669,-0.160167,0.000000,0.000000,0.000000,-1,0.524877,-0.502264,-0.723830,0.220019,0.021535,0.058131
"2019-04-05 09:51:31.757 +0000",1554457891.757179,-1.195668,-1.104641,2.932462,-0.418187,0.893303,-0.164672,0.000000,0.000000,0.000000,-1,0.399931,-0.466073,-0.493473,0.180226,0.219139,0.104399
"2019-04-05 09:51:31.777 +0000",1554457891.777228,-1.198225,-1.096373,2.941215,-0.425472,0.889556,-0.166285,0.000000,0.000000,0.000000,-1,0.273933,-0.540484,-0.222847,0.446819,0.301148,0.172220
"2019-04-05 09:51:31.797 +0000",1554457891.797278,-1.207606,-1.092827,2.940558,-0.429959,0.887931,-0.163406,0.000000,0.000000,0.000000,-1,-0.148325,-0.353037,-0.112862,0.517255,0.305566,0.221267
"2019-04-05 09:51:31.817 +0000",1554457891.817358,-1.226311,-1.094731,2.922003,-0.431348,0.888805,-0.154764,0.000000,0.000000,0.000000,-1,-0.562142,-0.006087,0.002705,0.341581,0.445317,0.137873
"2019-04-05 09:51:31.837 +0000",1554457891.837408,-1.252851,-1.104173,2.896166,-0.427312,0.893092,-0.140633,0.000000,0.000000,0.000000,-1,-0.817168,-0.337793,0.469113,0.145177,0.625798,-0.067649
"2019-04-05 09:51:31.857 +0000",1554457891.857487,-1.298490,-1.126879,2.858237,-0.413641,0.903076,-0.115506,0.000000,0.000000,0.000000,-1,-1.383510,-0.691627,1.051250,0.054296,0.473099,-0.147464
"2019-04-05 09:51:31.878 +0000",1554457891.877536,-1.388472,-1.162364,2.780819,-0.390571,0.917744,-0.072010,0.000000,0.000000,0.000000,-1,-2.341931,-1.148295,1.551137,-0.026024,0.177303,-0.002651
"2019-04-05 09:51:31.898 +0000",1554457891.897618,-1.542793,-1.201949,2.640597,-0.360379,0.932743,-0.010094,0.000000,0.000000,0.000000,-1,-3.023100,-1.162705,1.684839,-0.247440,0.124447,0.155694
"2019-04-05 09:51:31.918 +0000",1554457891.917666,-1.731565,-1.228435,2.460289,-0.331361,0.941965,0.053736,0.000000,0.000000,0.000000,-1,-2.949359,-0.919161,1.362468,-0.521972,0.333075,0.324361
"2019-04-05 09:51:31.938 +0000",1554457891.937747,-1.888491,-1.222177,2.330609,-0.324484,0.939845,0.106701,0.000000,0.000000,0.000000,-1,-1.679251,-2.535963,-0.708047,-0.681147,0.704228,0.061665
"2019-04-05 09:51:31.958 +0000",1554457891.957797,-1.988238,-1.188212,2.296675,-0.341240,0.927703,0.151343,0.000000,0.000000,0.000000,-1,-1.091983,-3.645398,-1.235304,-0.657188,0.089356,-0.050055
"2019-04-05 09:51:31.978 +0000",1554457891.977876,-2.098981,-1.177071,2.237479,-0.331331,0.923486,0.193325,0.000000,0.000000,0.000000,-1,-1.356968,-2.008060,0.745429,-0.477873,-0.219171,0.195026
"2019-04-05 09:51:31.998 +0000",1554457891.997926,-2.211848,-1.176804,2.131945,-0.307646,0.923384,0.229560,0.000000,0.000000,0.000000,-1,-1.869925,-0.140455,1.188651,-0.129793,0.010118,0.208444
"2019-04-05 09:51:32.018 +0000",1554457892.017975,-2.304254,-1.168332,2.023779,-0.290953,0.920098,0.262196,0.000000,0.000000,0.000000,-1,-1.783600,0.509298,0.869090,-0.153032,0.175544,0.097347
"2019-04-05 09:51:32.038 +0000",1554457892.038056,-2.375665,-1.160873,1.942103,-0.276253,0.917152,0.287225,0.000000,0.000000,0.000000,-1,-1.152415,-0.168587,0.972799,-0.167656,0.131539,-0.014765
"2019-04-05 09:51:32.058 +0000",1554457892.058105,-2.452540,-1.168167,1.871484,-0.249118,0.920034,0.302421,0.000000,0.000000,0.000000,-1,-0.379970,-0.705252,1.495906,-0.018811,-0.108724,-0.146751
"2019-04-05 09:51:32.078 +0000",1554457892.078185,-2.531890,-1.189661,1.790498,-0.212986,0.928243,0.304930,0.000000,0.000000,0.000000,-1,0.042045,0.220492,2.138506,0.129994,-0.342733,-0.234556
"2019-04-05 09:51:32.098 +0000",1554457892.098236,-2.613478,-1.217557,1.674051,-0.174306,0.938257,0.298783,0.000000,0.000000,0.000000,-1,0.023539,2.028148,2.688990,0.212102,-0.464426,-0.350327
"2019-04-05 09:51:32.118 +0000",1554457892.118314,-2.693559,-1.241760,1.532523,-0.139965,0.946354,0.291210,0.000000,0.000000,0.000000,-1,-0.116340,2.867316,2.530035,0.316219,-0.534459,-0.478405
"2019-04-05 09:51:32.138 +0000",1554457892.138364,-2.758045,-1.251825,1.404221,-0.117337,0.949558,0.290776,0.000000,0.000000,0.000000,-1,-0.507685,2.697661,1.748139,0.376798,-0.694248,-0.501896
"2019-04-05 09:51:32.158 +0000",1554457892.158444,-2.790946,-1.248102,1.318549,-0.108923,0.948384,0.297796,0.000000,0.000000,0.000000,-1,-0.728336,2.369455,0.878231,0.400594,-0.811864,-0.333960
"2019-04-05 09:51:32.178 +0000",1554457892.178493,-2.760310,-1.237144,1.294093,-0.121853,0.944853,0.303949,0.000000,0.000000,0.000000,-1,-0.535542,2.907696,-0.340423,0.391705,-0.853254,-0.081461
"2019-04-05 09:51:32.199 +0000",1554457892.198543,-2.636644,-1.222969,1.357344,-0.164880,0.940115,0.298292,0.000000,0.000000,0.000000,-1,0.100863,3.215942,-1.685161,0.322503,-0.776831,0.144731
"2019-04-05 09:51:32.219 +0000",1554457892.218623,-2.478075,-1.216863,1.475043,-0.213445,0.938017,0.273033,0.000000,0.000000,0.000000,-1,1.366853,1.605027,-1.774194,0.102926,-0.634352,0.335411
"2019-04-05 09:51:32.239 +0000",1554457892.238672,-2.332416,-1.224847,1.630484,-0.245387,0.940754,0.233986,0.000000,0.000000,0.000000,-1,2.286680,-0.700061,-1.735811,-0.101750,-0.216892,0.476967
"2019-04-05 09:51:32.259 +0000",1554457892.258753,-2.229906,-1.210172,1.783337,-0.278928,0.935677,0.216080,0.000000,0.000000,0.000000,-1,0.732709,-3.322109,-2.514841,-0.573473,1.262505,0.296615
"2019-04-05 09:51:32.279 +0000",1554457892.278803,-2.273385,-1.174177,1.786911,-0.294797,0.922372,0.249611,0.000000,0.000000,0.000000,-1,-2.099535,-0.419574,-0.338087,-1.573031,2.111517,0.735008
"2019-04-05 09:51:32.299 +0000",1554457892.298885,-2.366254,-1.168046,1.679010,-0.274332,0.919987,0.279908,0.000000,0.000000,0.000000,-1,-1.152532,0.491564,1.828933,-0.970984,0.046627,0.869873
"2019-04-05 09:51:32.319 +0000",1554457892.318933,-2.443715,-1.191026,1.571256,-0.238198,0.928750,0.284020,0.000000,0.000000,0.000000,-1,-0.242847,0.861929,2.146729,0.256784,-0.801781,0.378501
"2019-04-05 09:51:32.339 +0000",1554457892.339012,-2.466126,-1.198042,1.546916,-0.227694,0.931328,0.284194,0.000000,0.000000,0.000000,-1,0.106716,-0.202133,-0.499732,0.566531,-0.099464,-0.074950
"2019-04-05 09:51:32.359 +0000",1554457892.359061,-2.388662,-1.191597,1.645350,-0.253103,0.928961,0.270095,0.000000,0.000000,0.000000,-1,1.608301,-1.385404,-1.921645,0.218206,0.633813,-0.224914
"2019-04-05 09:51:32.379 +0000",1554457892.379143,-2.251950,-1.199153,1.822265,-0.282091,0.931732,0.228655,0.000000,0.000000,0.000000,-1,3.010494,-0.943061,-1.750821,-0.335951,0.234681,-0.442110
"2019-04-05 09:51:32.399 +0000",1554457892.399192,-2.116207,-1.210615,1.979497,-0.301289,0.935833,0.182825,0.000000,0.000000,0.000000,-1,2.188512,-0.474821,-0.664053,-0.607235,-0.281048,-0.581522
"2019-04-05 09:51:32.419 +0000",1554457892.419242,-2.058738,-1.226112,2.051510,-0.298445,0.941182,0.158399,0.000000,0.000000,0.000000,-1,1.052402,-0.443387,0.358850,-0.461122,-0.326924,-0.596235
"2019-04-05 09:51:32.439 +0000",1554457892.439322,-2.026671,-1.236991,2.091076,-0.294158,0.944802,0.144232,0.000000,0.000000,0.000000,-1,0.816012,-0.178335,0.010673,-0.144562,-0.226418,-0.372427
"2019-04-05 09:51:32.459 +0000",1554457892.459371,-1.956947,-1.238115,2.164596,-0.302508,0.945170,0.122988,0.000000,0.000000,0.000000,-1,1.291909,0.124553,-0.692706,-0.054640,-0.245203,-0.153994
"2019-04-05 09:51:32.479 +0000",1554457892.479452,-1.861044,-1.226758,2.262303,-0.323160,0.941400,0.096522,0.000000,0.000000,0.000000,-1,1.307304,0.148058,-1.178220,-0.035345,-0.130472,-0.175593
"2019-04-05 09:51:32.500 +0000",1554457892.499501,-1.778321,-1.210886,2.350059,-0.344612,0.935928,0.072560,0.000000,0.000000,0.000000,-1,1.237982,-0.030575,-1.044204,-0.141518,0.130981,-0.223637
"2019-04-05 09:51:32.520 +0000",1554457892.519581,-1.703202,-1.200732,2.427649,-0.358488,0.932304,0.047745,0.000000,0.000000,0.000000,-1,1.285197,0.285072,-0.456038,-0.128359,0.195900,-0.156128
"2019-04-05 09:51:32.540 +0000",1554457892.539630,-1.627715,-1.199565,2.494780,-0.362155,0.931881,0.020636,0.000000,0.000000,0.000000,-1,1.109717,0.824242,-0.035152,-0.019101,-0.063229,0.034815
"2019-04-05 09:51:32.560 +0000",1554457892.559695,-1.566101,-1.201418,2.548687,-0.361011,0.932552,-0.001695,0.000000,0.000000,0.000000,-1,0.926526,0.183101,0.159028,-0.041210,-0.337673,0.119508
"2019-04-05 09:51:32.580 +0000",1554457892.579744,-1.512966,-1.204052,2.615981,-0.357960,0.933500,-0.020724,0.000000,0.000000,0.000000,-1,1.443896,-0.744573,0.161434,-0.139904,-0.478772,0.145831
"2019-04-05 09:51:32.600 +0000",1554457892.599794,-1.433171,-1.199450,2.712033,-0.359421,0.931840,-0.049780,0.000000,0.000000,0.000000,-1,1.794651,-0.230059,-0.203743,0.105698,-0.291276,0.054724
"2019-04-05 09:51:32.620 +0000",1554457892.619874,-1.356327,-1.186970,2.796310,-0.365875,0.927239,-0.079694,0.000000,0.000000,0.000000,-1,1.515532,-0.196850,-0.339273,0.088531,-0.047875,-0.047442
"2019-04-05 09:51:32.640 +0000",1554457892.639924,-1.300554,-1.174768,2.868681,-0.371741,0.922600,-0.102979,0.000000,0.000000,0.000000,-1,1.517846,-0.828545,-0.206229,0.103812,0.042381,0.150755
"2019-04-05 09:51:32.660 +0000",1554457892.660004,-1.247723,-1.160550,2.952911,-0.378187,0.917022,-0.126618,0.000000,0.000000,0.000000,-1,1.940185,-1.413734,-0.198727,0.181531,0.045426,0.297578
"2019-04-05 09:51:32.680 +0000",1554457892.680053,-1.194999,-1.142451,3.040085,-0.386366,0.909654,-0.152440,0.000000,0.000000,0.000000,-1,1.866527,-1.154206,-0.209800,0.280226,-0.016268,0.220662
"2019-04-05 09:51:32.700 +0000",1554457892.700133,-1.153917,-1.127986,3.100763,-0.391771,0.903551,-0.173490,0.000000,0.000000,0.000000,-1,1.161673,-0.466726,-0.188735,0.489702,0.037550,0.053083
"2019-04-05 09:51:32.720 +0000",1554457892.720182,-1.137722,-1.113995,3.123451,-0.400348,0.897468,-0.185100,0.000000,0.000000,0.000000,-1,0.524583,-0.132235,-0.610320,0.550723,0.046838,0.020732
"2019-04-05 09:51:32.740 +0000",1554457892.740264,-1.138826,-1.099325,3.129012,-0.412465,0.890901,-0.190150,0.000000,0.000000,0.000000,-1,0.379640,-0.377801,-0.493268,0.322270,0.138625,0.166361
"2019-04-05 09:51:32.760 +0000",1554457892.760314,-1.143032,-1.090005,3.131751,-0.420798,0.886629,-0.191849,0.000000,0.000000,0.000000,-1,0.141780,-0.286205,-0.350905,0.357505,0.235212,0.258072
"2019-04-05 09:51:32.780 +0000",1554457892.780394,-1.152818,-1.082697,3.123576,-0.428566,0.883226,-0.190347,0.000000,0.000000,0.000000,-1,-0.115099,0.010707,-0.476446,0.244301,0.239195,0.312326
"2019-04-05 09:51:32.800 +0000",1554457892.800445,-1.167360,-1.074671,3.102066,-0.437795,0.879434,-0.186873,0.000000,0.000000,0.000000,-1,-0.440237,0.322549,-0.561331,0.059453,0.234168,0.155989
"2019-04-05 09:51:32.820 +0000",1554457892.820493,-1.186989,-1.074255,3.074431,-0.441717,0.879235,-0.178381,0.000000,0.000000,0.000000,-1,-0.643108,0.029073,-0.044944,0.128867,0.492057,0.128652
"2019-04-05 09:51:32.841 +0000",1554457892.840573,-1.216503,-1.086055,3.053193,-0.437027,0.884796,-0.161657,0.000000,0.000000,0.000000,-1,-0.749925,-0.817479,0.615037,0.206161,0.638550,-0.004161
"2019-04-05 09:51:32.861 +0000",1554457892.860622,-1.268427,-1.110380,3.018214,-0.424151,0.895867,-0.132307,0.000000,0.000000,0.000000,-1,-1.441858,-1.154158,1.015449,0.174319,0.485740,-0.108476
"2019-04-05 09:51:32.881 +0000",1554457892.880703,-1.362030,-1.143547,2.947252,-0.405357,0.910109,-0.085876,0.000000,0.000000,0.000000,-1,-2.103794,-1.637589,1.334609,0.033958,0.182359,-0.003159
"2019-04-05 09:51:32.901 +0000",1554457892.900753,-1.490016,-1.181648,2.840127,-0.378146,0.925232,-0.030613,0.000000,0.000000,0.000000,-1,-2.541355,-1.217312,1.710158,-0.167569,0.004348,0.258702
"2019-04-05 09:51:32.921 +0000",1554457892.920831,-1.648359,-1.213987,2.686744,-0.348216,0.937016,0.027063,0.000000,0.000000,0.000000,-1,-2.814140,-0.628958,1.358380,-0.517964,0.362499,0.306082
"2019-04-05 09:51:32.941 +0000",1554457892.940882,-1.792960,-1.209296,2.564669,-0.344965,0.935367,0.077925,0.000000,0.000000,0.000000,-1,-1.620608,-2.300966,-0.846197,-0.671575,0.615277,-0.063460
"2019-04-05 09:51:32.961 +0000",1554457892.960962,-1.898860,-1.183439,2.521732,-0.357578,0.925911,0.121706,0.000000,0.000000,0.000000,-1,-0.986095,-3.640339,-0.543486,-0.965024,-0.093788,-0.125093
"2019-04-05 09:51:32.981 +0000",1554457892.981012,-2.024576,-1.190582,2.446248,-0.333542,0.928585,0.162677,0.000000,0.000000,0.000000,-1,-1.294822,-2.043393,1.502234,-0.529526,-0.281551,0.137525
"2019-04-05 09:51:33.001 +0000",1554457893.001061,-2.160049,-1.201579,2.322683,-0.300005,0.932610,0.200545,0.000000,0.000000,0.000000,-1,-1.898856,-0.544621,1.548958,-0.040648,0.031395,0.142350
"2019-04-05 09:51:33.021 +0000",1554457893.021141,-2.282281,-1.196195,2.195410,-0.277112,0.930654,0.238902,0.000000,0.000000,0.000000,-1,-1.947541,-0.059527,0.965393,-0.047152,0.225871,0.095753
"2019-04-05 09:51:33.041 +0000",1554457893.041191,-2.372821,-1.187515,2.099508,-0.259984,0.927442,0.268777,0.000000,0.000000,0.000000,-1,-1.292099,-0.090867,1.003096,-0.073329,0.176501,0.018989
"2019-04-05 09:51:33.061 +0000",1554457893.061270,-2.449757,-1.192253,2.016202,-0.235750,0.929204,0.284576,0.000000,0.000000,0.000000,-1,-0.635099,0.059513,1.522371,0.013445,-0.001668,-0.165008
"2019-04-05 09:51:33.081 +0000",1554457893.081320,-2.538957,-1.209076,1.916036,-0.200571,0.935290,0.291523,0.000000,0.000000,0.000000,-1,-0.324740,0.412159,2.198317,0.135691,-0.214495,-0.277088
"2019-04-05 09:51:33.101 +0000",1554457893.101401,-2.637719,-1.228801,1.787172,-0.161909,0.942087,0.293663,0.000000,0.000000,0.000000,-1,-0.341523,1.544635,2.429260,0.224119,-0.350367,-0.332802
"2019-04-05 09:51:33.121 +0000",1554457893.121450,-2.712173,-1.240584,1.663567,-0.134984,0.945973,0.294778,0.000000,0.000000,0.000000,-1,-0.411641,2.340267,1.807962,0.301381,-0.489263,-0.394204
"2019-04-05 09:51:33.142 +0000",1554457893.141530,-2.739345,-1.240556,1.583802,-0.126936,0.945964,0.298361,0.000000,0.000000,0.000000,-1,-0.599302,2.394895,0.797033,0.361738,-0.686595,-0.382223
"2019-04-05 09:51:33.162 +0000",1554457893.161580,-2.718502,-1.229517,1.552600,-0.137407,0.942327,0.305155,0.000000,0.000000,0.000000,-1,-0.746750,2.661063,-0.032621,0.373293,-0.849126,-0.194422
"2019-04-05 09:51:33.182 +0000",1554457893.181660,-2.644307,-1.212995,1.569847,-0.167054,0.936669,0.307774,0.000000,0.000000,0.000000,-1,-0.445335,2.955652,-1.040092,0.287706,-0.851571,-0.024937
"2019-04-05 09:51:33.202 +0000",1554457893.201709,-2.519553,-1.198914,1.641938,-0.211718,0.931645,0.295287,0.000000,0.000000,0.000000,-1,0.502837,2.691355,-1.589130,0.131137,-0.715825,0.146425
"2019-04-05 09:51:33.222 +0000",1554457893.221758,-2.376254,-1.200420,1.756522,-0.250746,0.932191,0.261013,0.000000,0.000000,0.000000,-1,1.924141,1.141935,-1.416519,0.026778,-0.662095,0.259113
"2019-04-05 09:51:33.242 +0000",1554457893.241839,-2.235725,-1.215147,1.904978,-0.273999,0.937421,0.214824,0.000000,0.000000,0.000000,-1,2.509993,-0.562102,-1.297459,0.003537,-0.279294,0.205510
"2019-04-05 09:51:33.262 +0000",1554457893.261889,-2.172686,-1.195283,2.014907,-0.302280,0.930320,0.207641,0.000000,0.000000,0.000000,-1,-0.306004,-3.077944,-2.002878,-0.410244,1.113565,-0.010741
"2019-04-05 09:51:33.282 +0000",1554457893.281969,-2.268299,-1.161851,1.964998,-0.304754,0.917541,0.255392,0.000000,0.000000,0.000000,-1,-2.403766,-0.456696,0.164095,-1.162684,2.252091,0.761057
"2019-04-05 09:51:33.302 +0000",1554457893.302021,-2.356513,-1.161713,1.851629,-0.281157,0.917486,0.281336,0.000000,0.000000,0.000000,-1,-0.871507,0.872009,1.985413,-0.725770,0.302881,1.022237
"2019-04-05 09:51:33.322 +0000",1554457893.322149,-2.411612,-1.192998,1.760670,-0.245968,0.929479,0.274861,0.000000,0.000000,0.000000,-1,0.206624,1.378392,2.185906,0.257885,-0.829763,0.363018
"2019-04-05 09:51:33.342 +0000",1554457893.342148,-2.418841,-1.208164,1.735823,-0.234622,0.934966,0.266027,0.000000,0.000000,0.000000,-1,0.244634,0.398497,-0.162570,0.531619,-0.354766,-0.248648
"2019-04-05 09:51:33.362 +0000",1554457893.362228,-2.351724,-1.191214,1.813787,-0.263157,0.928819,0.260814,0.000000,0.000000,0.000000,-1,0.651137,-0.817846,-2.121624,0.426883,0.108351,-0.182323
"2019-04-05 09:51:33.382 +0000",1554457893.382278,-2.252748,-1.177948,1.955880,-0.297182,0.923822,0.241280,0.000000,0.000000,0.000000,-1,2.050042,-1.818471,-2.205661,-0.339338,0.355276,-0.248467
"2019-04-05 09:51:33.402 +0000",1554457893.402326,-2.144070,-1.174088,2.102417,-0.324593,0.922338,0.209557,0.000000,0.000000,0.000000,-1,2.009387,-0.938141,-1.424635,-0.712089,0.048457,-0.422142
"2019-04-05 09:51:33.422 +0000",1554457893.422406,-2.076577,-1.181491,2.186656,-0.332004,0.925173,0.183874,0.000000,0.000000,0.000000,-1,1.326567,-0.333987,0.050650,-0.822521,-0.210070,-0.454230
"2019-04-05 09:51:33.442 +0000",1554457893.442456,-2.042174,-1.198137,2.223764,-0.324364,0.931362,0.165329,0.000000,0.000000,0.000000,-1,0.871850,0.168169,0.488139,-0.299171,-0.274975,-0.373459
"2019-04-05 09:51:33.463 +0000",1554457893.462538,-2.000963,-1.209138,2.262981,-0.321568,0.935311,0.147543,0.000000,0.000000,0.000000,-1,0.924580,0.189527,-0.028349,-0.011149,-0.267388,-0.278998
"2019-04-05 09:51:33.483 +0000",1554457893.482585,-1.941038,-1.210550,2.328120,-0.328595,0.935810,0.127541,0.000000,0.000000,0.000000,-1,1.149085,-0.206103,-0.518313,0.024091,-0.122608,-0.275033
"2019-04-05 09:51:33.503 +0000",1554457893.502667,-1.875404,-1.206009,2.407378,-0.340304,0.934200,0.106989,0.000000,0.000000,0.000000,-1,1.316790,-0.546466,-0.723756,-0.029599,0.138371,-0.284449
"2019-04-05 09:51:33.523 +0000",1554457893.522717,-1.804924,-1.201232,2.493804,-0.351331,0.932485,0.083793,0.000000,0.000000,0.000000,-1,1.476349,-0.373307,-0.500258,-0.054842,0.236659,-0.257697
"2019-04-05 09:51:33.543 +0000",1554457893.542796,-1.728844,-1.201408,2.573353,-0.356522,0.932548,0.056821,0.000000,0.000000,0.000000,-1,1.261381,0.411555,-0.149115,0.028641,0.087441,-0.161771
"2019-04-05 09:51:33.563 +0000",1554457893.562838,-1.665118,-1.201610,2.619256,-0.359228,0.932621,0.033984,0.000000,0.000000,0.000000,-1,0.545641,1.384013,-0.042345,0.061621,-0.091450,0.041807
"2019-04-05 09:51:33.583 +0000",1554457893.582917,-1.618504,-1.201787,2.641065,-0.360258,0.932685,0.017200,0.000000,0.000000,0.000000,-1,0.439205,1.031036,-0.009691,-0.015170,-0.231620,0.141873
"2019-04-05 09:51:33.603 +0000",1554457893.602967,-1.559392,-1.203038,2.700690,-0.359477,0.933136,-0.004100,0.000000,0.000000,0.000000,-1,1.505545,-0.369237,0.143837,-0.113072,-0.333679,0.119044
"2019-04-05 09:51:33.623 +0000",1554457893.623016,-1.471903,-1.204286,2.805346,-0.356587,0.933583,-0.035380,0.000000,0.000000,0.000000,-1,1.886075,-0.367385,0.101366,0.056599,-0.212896,0.044870
"2019-04-05 09:51:33.643 +0000",1554457893.643096,-1.389131,-1.198438,2.893267,-0.357805,0.931472,-0.065725,0.000000,0.000000,0.000000,-1,1.456551,0.071111,-0.108675,0.184053,-0.078964,0.008825
"2019-04-05 09:51:33.663 +0000",1554457893.663146,-1.329879,-1.190687,2.964483,-0.360287,0.928624,-0.088519,0.000000,0.000000,0.000000,-1,1.333276,-0.642338,-0.109617,0.154995,-0.038411,0.144061
"2019-04-05 09:51:33.683 +0000",1554457893.683226,-1.282380,-1.180170,3.036326,-0.365022,0.924671,-0.108298,0.000000,0.000000,0.000000,-1,1.491282,-1.045469,-0.176731,0.129014,-0.039524,0.256613
"2019-04-05 09:51:33.703 +0000",1554457893.703276,-1.239463,-1.165850,3.103346,-0.372524,0.919124,-0.128154,0.000000,0.000000,0.000000,-1,1.386917,-0.876268,-0.344401,0.194790,-0.067027,0.155650
"2019-04-05 09:51:33.723 +0000",1554457893.723357,-1.207198,-1.151087,-3.131789,-0.380839,0.913207,-0.144915,0.000000,0.000000,0.000000,-1,0.970973,-0.335752,-0.329639,0.338038,-0.004882,0.062854
"2019-04-05 09:51:33.743 +0000",1554457893.743406,-1.182879,-1.139401,-3.103686,-0.387055,0.908383,-0.158159,0.000000,0.000000,0.000000,-1,0.634125,-0.062185,-0.409237,0.470078,0.028964,0.039232
"2019-04-05 09:51:33.763 +0000",1554457893.763486,-1.185376,-1.126239,-3.097866,-0.398494,0.902801,-0.161674,0.000000,0.000000,0.000000,-1,0.202835,-0.550998,-0.521878,0.342952,0.147370,0.133949
"2019-04-05 09:51:33.784 +0000",1554457893.783535,-1.198576,-1.118249,-3.100078,-0.407302,0.899336,-0.159018,0.000000,0.000000,0.000000,-1,0.076858,-0.505225,-0.330897,0.306487,0.229830,0.286399
"2019-04-05 09:51:33.804 +0000",1554457893.803585,-1.207566,-1.111873,-3.102550,-0.414066,0.896530,-0.157385,0.000000,0.000000,0.000000,-1,0.034066,-0.190427,-0.328109,0.308506,0.258759,0.243994
"2019-04-05 09:51:33.824 +0000",1554457893.823665,-1.214223,-1.105664,-3.111698,-0.420313,0.893762,-0.156565,0.000000,0.000000,0.000000,-1,-0.135549,0.181898,-0.360040,0.230875,0.165671,0.129801
"2019-04-05 09:51:33.844 +0000",1554457893.843715,-1.219636,-1.102633,-3.122048,-0.423696,0.892399,-0.155218,0.000000,0.000000,0.000000,-1,-0.180566,0.145708,-0.088484,0.200749,0.285320,0.141196
"2019-04-05 09:51:33.864 +0000",1554457893.863795,-1.228716,-1.108197,-3.129476,-0.420404,0.894895,-0.149697,0.000000,0.000000,0.000000,-1,-0.307636,-0.295623,0.372088,0.239847,0.536837,0.105706
"2019-04-05 09:51:33.884 +0000",1554457893.883844,-1.251132,-1.123377,3.139583,-0.410707,0.901567,-0.135951,0.000000,0.000000,0.000000,-1,-0.734203,-0.572947,0.759164,0.203981,0.493483,-0.066289
"2019-04-05 09:51:33.904 +0000",1554457893.903924,-1.305378,-1.150294,3.095906,-0.393907,0.912884,-0.107077,0.000000,0.000000,0.000000,-1,-1.626576,-0.798887,1.175177,0.153764,0.362690,-0.087214
"2019-04-05 09:51:33.924 +0000",1554457893.923974,-1.410632,-1.185387,3.001410,-0.371107,0.926645,-0.059952,0.000000,0.000000,0.000000,-1,-2.429205,-0.959963,1.341932,0.039030,0.210212,0.043243
"2019-04-05 09:51:33.944 +0000",1554457893.944056,-1.557888,-1.216936,2.859337,-0.346469,0.938042,-0.004473,0.000000,0.000000,0.000000,-1,-2.816293,-0.561962,1.347855,-0.188046,0.071128,0.286592
"2019-04-05 09:51:33.964 +0000",1554457893.964107,-1.738216,-1.235485,2.679441,-0.324437,0.944308,0.054830,0.000000,0.000000,0.000000,-1,-2.879715,-0.672391,0.878274,-0.448512,0.317853,0.272013
"2019-04-05 09:51:33.984 +0000",1554457893.984185,-1.876456,-1.221610,2.564716,-0.326251,0.939651,0.102948,0.000000,0.000000,0.000000,-1,-1.390452,-2.050162,-0.913410,-0.541394,0.432328,0.010608
"2019-04-05 09:51:34.004 +0000",1554457894.004234,-1.952999,-1.196243,2.539209,-0.339436,0.930671,0.136443,0.000000,0.000000,0.000000,-1,-0.735902,-2.834439,-0.674725,-0.575161,-0.137580,-0.063933
"2019-04-05 09:51:34.024 +0000",1554457894.024283,-2.049450,-1.197071,2.482708,-0.324034,0.930974,0.168141,0.000000,0.000000,0.000000,-1,-1.056864,-1.605327,0.999855,-0.320207,-0.203984,0.119975
"2019-04-05 09:51:34.044 +0000",1554457894.044363,-2.155217,-1.202938,2.384730,-0.299911,0.933100,0.198393,0.000000,0.000000,0.000000,-1,-1.507420,-0.259818,1.119393,-0.068299,0.083624,0.095705
"2019-04-05 09:51:34.064 +0000",1554457894.064412,-2.240776,-1.199039,2.287414,-0.284710,0.931690,0.225554,0.000000,0.000000,0.000000,-1,-1.489254,0.462319,0.711756,-0.119602,0.286022,0.027590
"2019-04-05 09:51:34.084 +0000",1554457894.084494,-2.304831,-1.192867,2.209094,-0.273954,0.929431,0.247163,0.000000,0.000000,0.000000,-1,-1.127973,0.364197,0.784149,-0.088748,0.225171,-0.118898
"2019-04-05 09:51:34.105 +0000",1554457894.104542,-2.378914,-1.196698,2.123247,-0.252446,0.930838,0.264186,0.000000,0.000000,0.000000,-1,-0.950729,0.286240,1.566146,-0.006389,0.005152,-0.243831
"2019-04-05 09:51:34.125 +0000",1554457894.124623,-2.477294,-1.208954,2.004304,-0.218227,0.935246,0.278700,0.000000,0.000000,0.000000,-1,-0.918665,0.974078,2.197590,0.135951,-0.194310,-0.246199
"2019-04-05 09:51:34.145 +0000",1554457894.144673,-2.562626,-1.219671,1.879096,-0.188183,0.938986,0.287877,0.000000,0.000000,0.000000,-1,-0.755769,1.883234,1.914493,0.266064,-0.390128,-0.325459
"2019-04-05 09:51:34.165 +0000",1554457894.164752,-2.606054,-1.223415,1.784819,-0.173712,0.940267,0.292750,0.000000,0.000000,0.000000,-1,-0.696656,2.422524,1.151879,0.331687,-0.512319,-0.363535
"2019-04-05 09:51:34.185 +0000",1554457894.184802,-2.607057,-1.215174,1.731014,-0.177360,0.937430,0.299582,0.000000,0.000000,0.000000,-1,-0.914261,2.464387,0.248541,0.357765,-0.635947,-0.329276
"2019-04-05 09:51:34.205 +0000",1554457894.204850,-2.572983,-1.196567,1.714946,-0.196823,0.930790,0.308013,0.000000,0.000000,0.000000,-1,-0.872959,2.440096,-0.540570,0.326950,-0.717167,-0.162246
"2019-04-05 09:51:34.225 +0000",1554457894.224931,-2.495172,-1.175687,1.744800,-0.231829,0.922955,0.307232,0.000000,0.000000,0.000000,-1,-0.263653,2.512144,-1.313894,0.164965,-0.784634,0.067402
"2019-04-05 09:51:34.245 +0000",1554457894.244981,-2.384801,-1.162273,1.814550,-0.272737,0.917708,0.288805,0.000000,0.000000,0.000000,-1,0.785442,2.090286,-1.456733,-0.057174,-0.735946,0.260252
"2019-04-05 09:51:34.265 +0000",1554457894.265060,-2.271062,-1.165812,1.910470,-0.301267,0.919109,0.253891,0.000000,0.000000,0.000000,-1,1.849253,0.734584,-0.929400,-0.150011,-0.643779,0.323731
"2019-04-05 09:51:34.285 +0000",1554457894.285110,-2.175370,-1.178395,2.010982,-0.314607,0.923994,0.217353,0.000000,0.000000,0.000000,-1,1.771755,-0.300100,-0.718073,-0.160613,-0.259504,0.260750
"2019-04-05 09:51:34.305 +0000",1554457894.305192,-2.158697,-1.160950,2.068892,-0.331551,0.917182,0.220986,0.000000,0.000000,0.000000,-1,-0.595332,-2.893873,-1.589784,-0.530433,0.782525,0.074302
"2019-04-05 09:51:34.325 +0000",1554457894.325240,-2.249837,-1.132672,2.030367,-0.330120,0.905549,0.266432,0.000000,0.000000,0.000000,-1,-1.548379,-1.650479,0.147089,-0.867802,1.820663,0.850115
"2019-04-05 09:51:34.345 +0000",1554457894.345320,-2.312733,-1.141059,1.960490,-0.307112,0.909075,0.281513,0.000000,0.000000,0.000000,-1,-0.208004,0.523872,1.587066,-0.263521,0.535612,0.857617
"2019-04-05 09:51:34.365 +0000",1554457894.365369,-2.338886,-1.168220,1.918435,-0.281776,0.920055,0.272187,0.000000,0.000000,0.000000,-1,0.400791,0.581966,1.331177,0.210564,-0.231288,0.273910
"2019-04-05 09:51:34.385 +0000",1554457894.385450,-2.337088,-1.173669,1.919108,-0.278649,0.922176,0.268199,0.000000,0.000000,0.000000,-1,0.006595,-0.249913,-0.531508,0.392845,0.227208,-0.312968
"2019-04-05 09:51:34.405 +0000",1554457894.405499,-2.312871,-1.156790,1.956926,-0.296494,0.915516,0.271855,0.000000,0.000000,0.000000,-1,0.214388,-0.853898,-1.259231,0.068497,0.409206,-0.286412
"2019-04-05 09:51:34.426 +0000",1554457894.425548,-2.267003,-1.154372,2.031022,-0.310344,0.914541,0.259393,0.000000,0.000000,0.000000,-1,1.506931,-1.030417,-0.906084,-0.279179,-0.086660,-0.245401
"2019-04-05 09:51:34.446 +0000",1554457894.445629,-2.202551,-1.165595,2.118313,-0.318103,0.919023,0.232790,0.000000,0.000000,0.000000,-1,1.687472,-0.677621,-0.438500,-0.375470,-0.561235,-0.204515
"2019-04-05 09:51:34.466 +0000",1554457894.465679,-2.142317,-1.181425,2.195930,-0.319262,0.925148,0.205323,0.000000,0.000000,0.000000,-1,1.746707,-0.436357,-0.109224,-0.395566,-0.490684,-0.232834
"2019-04-05 09:51:34.486 +0000",1554457894.485758,-2.054099,-1.195718,2.290804,-0.324367,0.930479,0.170233,0.000000,0.000000,0.000000,-1,1.952361,0.231377,-0.398175,-0.302876,-0.178556,-0.299307
"2019-04-05 09:51:34.506 +0000",1554457894.505808,-1.945941,-1.201223,2.406585,-0.336077,0.932481,0.132345,0.000000,0.000000,0.000000,-1,2.062703,-0.267361,-0.714484,-0.242658,-0.092958,-0.344793
"2019-04-05 09:51:34.526 +0000",1554457894.525889,-1.851500,-1.197992,2.524039,-0.349954,0.931310,0.100897,0.000000,0.000000,0.000000,-1,1.841565,-1.010468,-0.890914,-0.179450,-0.070500,-0.402380
"2019-04-05 09:51:34.546 +0000",1554457894.545938,-1.788235,-1.186823,2.619911,-0.365768,0.927184,0.080810,0.000000,0.000000,0.000000,-1,1.463464,-1.358959,-0.972564,-0.142639,0.113557,-0.384567
"2019-04-05 09:51:34.566 +0000",1554457894.566029,-1.733113,-1.176678,2.702957,-0.378929,0.923335,0.062052,0.000000,0.000000,0.000000,-1,1.418080,-0.827314,-0.616965,-0.084114,0.198323,-0.263072
"2019-04-05 09:51:34.586 +0000",1554457894.586078,-1.681024,-1.173546,2.763957,-0.384519,0.922128,0.042557,0.000000,0.000000,0.000000,-1,0.901255,0.184248,-0.142226,0.040433,0.100943,-0.098145
"2019-04-05 09:51:34.606 +0000",1554457894.606128,-1.639635,-1.175173,2.791921,-0.384454,0.922757,0.026507,0.000000,0.000000,0.000000,-1,0.385780,1.025715,0.134171,0.128900,-0.042477,0.096250
"2019-04-05 09:51:34.626 +0000",1554457894.626207,-1.599516,-1.181123,2.818974,-0.379712,0.925033,0.010908,0.000000,0.000000,0.000000,-1,0.768519,0.355432,0.350310,0.141248,-0.150863,0.178926
"2019-04-05 09:51:34.646 +0000",1554457894.646257,-1.538386,-1.187993,2.899304,-0.373310,0.927621,-0.012103,0.000000,0.000000,0.000000,-1,1.936384,-1.222458,0.316946,0.134052,-0.213693,0.149936
"2019-04-05 09:51:34.666 +0000",1554457894.666337,-1.450746,-1.187620,3.019878,-0.371161,0.927482,-0.044773,0.000000,0.000000,0.000000,-1,2.208204,-0.789794,0.058296,0.185553,-0.218528,0.065068
"2019-04-05 09:51:34.686 +0000",1554457894.686388,-1.369666,-1.179736,3.106301,-0.373470,0.924505,-0.076145,0.000000,0.000000,0.000000,-1,1.392626,0.227494,-0.203003,0.207561,-0.133383,-0.120723
"2019-04-05 09:51:34.706 +0000",1554457894.706467,-1.318170,-1.171050,-3.115025,-0.376817,0.921160,-0.097272,0.000000,0.000000,0.000000,-1,1.204301,-0.584823,-0.118777,0.243608,-0.017870,0.071149
"2019-04-05 09:51:34.727 +0000",1554457894.726517,-1.280044,-1.162355,-3.057423,-0.380495,0.917741,-0.113856,0.000000,0.000000,0.000000,-1,1.223580,-0.769869,-0.121279,0.231111,-0.010927,0.317042
"2019-04-05 09:51:34.747 +0000",1554457894.746598,-1.241672,-1.150158,-3.001389,-0.386412,0.912829,-0.131978,0.000000,0.000000,0.000000,-1,1.259895,-0.539090,-0.313681,0.263152,-0.045580,0.301671
"2019-04-05 09:51:34.767 +0000",1554457894.766648,-1.205340,-1.135902,-2.953838,-0.393479,0.906914,-0.150563,0.000000,0.000000,0.000000,-1,1.073230,-0.250770,-0.306322,0.384949,0.012580,0.122120
"2019-04-05 09:51:34.787 +0000",1554457894.786727,-1.186541,-1.121921,-2.927328,-0.402296,0.900936,-0.162671,0.000000,0.000000,0.000000,-1,0.575769,-0.240759,-0.576568,0.464491,0.089848,-0.006092
"2019-04-05 09:51:34.807 +0000",1554457894.806779,-1.191263,-1.106511,-2.928802,-0.415907,0.894142,-0.165894,0.000000,0.000000,0.000000,-1,0.115441,-0.157434,-0.712622,0.397703,0.199150,0.103912
"2019-04-05 09:51:34.827 +0000",1554457894.826828,-1.201366,-1.095378,-2.936732,-0.426819,0.889101,-0.165268,0.000000,0.000000,0.000000,-1,0.001177,-0.126562,-0.504661,0.404389,0.236692,0.238815
"2019-04-05 09:51:34.847 +0000",1554457894.846907,-1.208543,-1.087509,-2.946124,-0.434524,0.885472,-0.164674,0.000000,0.000000,0.000000,-1,-0.102440,0.230804,-0.447345,0.374053,0.223155,0.194933
"2019-04-05 09:51:34.867 +0000",1554457894.866956,-1.210755,-1.080129,-2.961327,-0.440990,0.882019,-0.166011,0.000000,0.000000,0.000000,-1,-0.252947,0.709450,-0.456778,0.207866,0.174118,0.126643
"2019-04-05 09:51:34.887 +0000",1554457894.887036,-1.208558,-1.076047,-2.977481,-0.443988,0.880088,-0.168254,0.000000,0.000000,0.000000,-1,-0.296941,0.820016,-0.215846,0.135486,0.321038,0.145182
"2019-04-05 09:51:34.907 +0000",1554457894.907086,-1.209679,-1.079753,-2.990334,-0.441121,0.881842,-0.166602,0.000000,0.000000,0.000000,-1,-0.383457,0.269124,0.245498,0.212072,0.589365,0.119971
"2019-04-05 09:51:34.927 +0000",1554457894.927167,-1.223694,-1.092883,-3.005554,-0.432487,0.887957,-0.156451,0.000000,0.000000,0.000000,-1,-0.776910,-0.073083,0.591918,0.211967,0.580610,-0.036114
"2019-04-05 09:51:34.947 +0000",1554457894.947217,-1.267408,-1.115939,-3.048741,-0.419257,0.898324,-0.131250,0.000000,0.000000,0.000000,-1,-1.557221,-0.440517,0.924354,0.120261,0.447105,-0.084006
"2019-04-05 09:51:34.967 +0000",1554457894.967296,-1.352104,-1.148176,-3.125208,-0.400369,0.912017,-0.088981,0.000000,0.000000,0.000000,-1,-2.205249,-0.952661,1.205100,0.025613,0.291535,0.026313
"2019-04-05 09:51:34.987 +0000",1554457894.987346,-1.481417,-1.180743,3.041149,-0.378704,0.924889,-0.033939,0.000000,0.000000,0.000000,-1,-2.712583,-1.089480,1.289176,-0.111790,0.096672,0.221546
"2019-04-05 09:51:35.007 +0000",1554457895.007395,-1.652164,-1.206888,2.879767,-0.354733,0.934513,0.028928,0.000000,0.000000,0.000000,-1,-3.025844,-1.069017,1.196298,-0.298404,0.173107,0.281604
"2019-04-05 09:51:35.027 +0000",1554457895.027476,-1.817632,-1.206936,2.738008,-0.345078,0.934530,0.086951,0.000000,0.000000,0.000000,-1,-1.916461,-2.121177,-0.300002,-0.491546,0.514124,0.032342
"2019-04-05 09:51:35.048 +0000",1554457895.047525,-1.904844,-1.178629,2.701735,-0.361048,0.924083,0.125303,0.000000,0.000000,0.000000,-1,-0.771509,-2.814056,-1.309180,-0.540075,0.113881,-0.089521
"2019-04-05 09:51:35.068 +0000",1554457895.067605,-1.994485,-1.167145,2.654487,-0.358031,0.919633,0.161474,0.000000,0.000000,0.000000,-1,-1.299390,-1.716707,0.587150,-0.532426,-0.316911,0.027919
"2019-04-05 09:51:35.088 +0000",1554457895.087654,-2.104760,-1.171609,2.549440,-0.334548,0.921377,0.197803,0.000000,0.000000,0.000000,-1,-1.927505,-0.193614,1.254713,-0.110062,-0.038778,0.085126
"2019-04-05 09:51:35.108 +0000",1554457895.107735,-2.212730,-1.166808,2.431096,-0.314824,0.919501,0.235348,0.000000,0.000000,0.000000,-1,-2.010453,0.084077,0.931729,-0.055949,0.167184,-0.015362
"2019-04-05 09:51:35.128 +0000",1554457895.127785,-2.298220,-1.158683,2.338858,-0.299149,0.916276,0.266329,0.000000,0.000000,0.000000,-1,-1.414536,-0.117343,0.894752,-0.065155,0.193984,-0.064363
"2019-04-05 09:51:35.148 +0000",1554457895.147866,-2.377212,-1.162532,2.256119,-0.274757,0.917811,0.286556,0.000000,0.000000,0.000000,-1,-0.878043,-0.134930,1.570549,-0.003701,0.054937,-0.155620
"2019-04-05 09:51:35.168 +0000",1554457895.167915,-2.472824,-1.180547,2.148456,-0.235854,0.924814,0.298453,0.000000,0.000000,0.000000,-1,-0.584048,0.489899,2.487642,0.123198,-0.104441,-0.190101
"2019-04-05 09:51:35.188 +0000",1554457895.187995,-2.571615,-1.205264,2.011378,-0.192870,0.933933,0.300918,0.000000,0.000000,0.000000,-1,-0.400760,2.015657,2.819923,0.271880,-0.303730,-0.251846
"2019-04-05 09:51:35.208 +0000",1554457895.208044,-2.648009,-1.223654,1.874293,-0.161175,0.940349,0.299582,0.000000,0.000000,0.000000,-1,-0.453887,2.791054,2.270949,0.374035,-0.472651,-0.427252
"2019-04-05 09:51:35.228 +0000",1554457895.228093,-2.692995,-1.227532,1.768468,-0.145957,0.941661,0.303238,0.000000,0.000000,0.000000,-1,-0.772547,2.624588,1.275931,0.428351,-0.628245,-0.455963
"2019-04-05 09:51:35.248 +0000",1554457895.248175,-2.690968,-1.215126,1.714779,-0.151648,0.937413,0.313434,0.000000,0.000000,0.000000,-1,-1.011258,2.730331,0.131063,0.422140,-0.744786,-0.272419
"2019-04-05 09:51:35.268 +0000",1554457895.268223,-2.626131,-1.195103,1.717804,-0.180855,0.930253,0.319220,0.000000,0.000000,0.000000,-1,-0.673723,3.271603,-0.882454,0.319756,-0.796007,-0.044257
"2019-04-05 09:51:35.288 +0000",1554457895.288302,-2.512059,-1.177937,1.771125,-0.225385,0.923818,0.309424,0.000000,0.000000,0.000000,-1,0.157235,3.035052,-1.468416,0.095487,-0.742513,0.126703
"2019-04-05 09:51:35.308 +0000",1554457895.308353,-2.386694,-1.173094,1.858272,-0.265368,0.921953,0.282070,0.000000,0.000000,0.000000,-1,1.371722,1.575132,-1.301518,-0.052411,-0.571962,0.293033
"2019-04-05 09:51:35.328 +0000",1554457895.328433,-2.281690,-1.189522,1.964723,-0.281955,0.928191,0.242787,0.000000,0.000000,0.000000,-1,2.220246,-0.316429,-0.509469,-0.209973,-0.282775,0.385753
"2019-04-05 09:51:35.348 +0000",1554457895.348483,-2.229177,-1.198676,2.040297,-0.287577,0.931558,0.222445,0.000000,0.000000,0.000000,-1,0.452760,-1.284878,-0.692014,-0.402868,0.501105,0.272306
"2019-04-05 09:51:35.369 +0000",1554457895.368563,-2.305995,-1.170647,1.998016,-0.288916,0.921003,0.261274,0.000000,0.000000,0.000000,-1,-2.298479,-1.653030,-0.084216,-0.956811,1.936404,0.298526
"2019-04-05 09:51:35.389 +0000",1554457895.388613,-2.396153,-1.155446,1.895008,-0.273684,0.914975,0.296479,0.000000,0.000000,0.000000,-1,-1.495204,0.786558,1.162721,-0.648771,1.003040,0.920196
"2019-04-05 09:51:35.409 +0000",1554457895.408663,-2.439021,-1.163655,1.820214,-0.255865,0.918256,0.302193,0.000000,0.000000,0.000000,-1,-0.373655,1.498101,1.539145,0.052099,-0.940870,0.445030
"2019-04-05 09:51:35.429 +0000",1554457895.428742,-2.459028,-1.173353,1.778307,-0.244138,0.922054,0.300326,0.000000,0.000000,0.000000,-1,-0.008474,0.370919,0.357603,0.393461,-0.422725,0.090482
"2019-04-05 09:51:35.449 +0000",1554457895.448791,-2.438969,-1.167821,1.813262,-0.253405,0.919898,0.299257,0.000000,0.000000,0.000000,-1,0.405173,-1.011421,-1.202486,0.474078,0.046868,-0.053041
"2019-04-05 09:51:35.469 +0000",1554457895.468872,-2.365067,-1.167040,1.930493,-0.275313,0.919592,0.280242,0.000000,0.000000,0.000000,-1,2.376010,-2.004863,-1.955524,0.055739,0.310038,-0.188506
"2019-04-05 09:51:35.489 +0000",1554457895.488921,-2.221555,-1.176026,2.123891,-0.305977,0.923085,0.232972,0.000000,0.000000,0.000000,-1,3.107025,-1.388592,-2.143663,-0.246345,0.175594,-0.459031
"2019-04-05 09:51:35.509 +0000",1554457895.509002,-2.103999,-1.171292,2.266375,-0.334949,0.921254,0.197696,0.000000,0.000000,0.000000,-1,1.558187,-0.289127,-1.387234,-0.570523,-0.029073,-0.527988
"2019-04-05 09:51:35.529 +0000",1554457895.529050,-2.046800,-1.170598,2.329421,-0.346272,0.920984,0.178518,0.000000,0.000000,0.000000,-1,0.906690,0.063049,-0.201011,-0.648936,-0.152871,-0.631551
"2019-04-05 09:51:35.549 +0000",1554457895.549130,-2.004235,-1.179625,2.374703,-0.345996,0.924463,0.160123,0.000000,0.000000,0.000000,-1,1.069548,-0.025398,0.050768,-0.260404,-0.244699,-0.439069
"2019-04-05 09:51:35.569 +0000",1554457895.569166,-1.942202,-1.188186,2.440229,-0.347868,0.927693,0.135488,0.000000,0.000000,0.000000,-1,1.439557,0.151979,-0.216027,0.002074,-0.218678,-0.243398
"2019-04-05 09:51:35.589 +0000",1554457895.589247,-1.858140,-1.189328,2.527292,-0.357001,0.928119,0.105502,0.000000,0.000000,0.000000,-1,1.568894,0.122197,-0.576281,0.060538,0.012860,-0.237200
"2019-04-05 09:51:35.609 +0000",1554457895.609297,-1.783598,-1.186619,2.607160,-0.366324,0.927107,0.079153,0.000000,0.000000,0.000000,-1,1.274590,-0.011623,-0.364964,-0.004587,0.242083,-0.230596
"2019-04-05 09:51:35.629 +0000",1554457895.629347,-1.727341,-1.189339,2.664269,-0.367703,0.928123,0.058037,0.000000,0.000000,0.000000,-1,0.947817,0.360698,0.089014,0.058148,0.178750,-0.079796
"2019-04-05 09:51:35.649 +0000",1554457895.649427,-1.673965,-1.194322,2.701984,-0.365670,0.929967,0.037860,0.000000,0.000000,0.000000,-1,0.595581,1.236119,0.175541,0.160821,-0.040318,0.182797
"2019-04-05 09:51:35.669 +0000",1554457895.669476,-1.620624,-1.198093,2.735407,-0.363663,0.931346,0.018136,0.000000,0.000000,0.000000,-1,0.725922,0.770272,0.094545,0.059327,-0.272182,0.181236
"2019-04-05 09:51:35.690 +0000",1554457895.689555,-1.565764,-1.199458,2.796676,-0.362839,0.931843,-0.001826,0.000000,0.000000,0.000000,-1,1.402329,-0.564796,0.067093,0.004548,-0.477451,0.022517
"2019-04-05 09:51:35.710 +0000",1554457895.709606,-1.485047,-1.198127,2.892192,-0.362747,0.931359,-0.031182,0.000000,0.000000,0.000000,-1,1.808353,-0.083331,-0.128988,0.145904,-0.430581,-0.052955
