timestamp,timeIntervalSince1970,attitude.roll,attitude.pitch,attitude.yaw,gravity.x,gravity.y,gravity.z,magneticField.x,magneticField.y,magneticField.z,magneticField.accuracy,rotationRate.x,rotationRate.y,rotationRate.z,userAcceleration.x,userAcceleration.y,userAcceleration.z
"2019-10-15 11:04:00.270 +0000",1571137440.269525,-0.051737,0.820920,0.022519,-0.035245,-0.731773,-0.680636,0.000000,0.000000,0.000000,-1,-1.081487,0.072798,-0.204761,-0.123736,-0.154274,0.517611
"2019-10-15 11:04:00.290 +0000",1571137440.289624,-0.057078,0.798403,0.019186,-0.039811,-0.716242,-0.696715,0.000000,0.000000,0.000000,-1,-1.021206,-0.527036,0.012684,0.152558,0.141108,-0.180085
"2019-10-15 11:04:00.310 +0000",1571137440.309721,-0.061426,0.793209,0.017431,-0.043067,-0.712608,-0.700239,0.000000,0.000000,0.000000,-1,-0.010554,-0.132808,-0.121652,-0.069848,0.155174,-0.305864
"2019-10-15 11:04:00.330 +0000",1571137440.329819,-0.055576,0.800114,0.008753,-0.038696,-0.717435,-0.695549,0.000000,0.000000,0.000000,-1,0.373114,-0.031239,-0.366117,-0.027283,0.065702,-0.189537
"2019-10-15 11:04:00.350 +0000",1571137440.349917,-0.052034,0.803701,-0.000007,-0.036098,-0.719930,-0.693107,0.000000,0.000000,0.000000,-1,0.056698,-0.158143,-0.282499,0.015117,0.009603,-0.043267
"2019-10-15 11:04:00.370 +0000",1571137440.370016,-0.046230,0.797910,-0.006258,-0.032267,-0.715898,-0.697459,0.000000,0.000000,0.000000,-1,-0.413202,0.175427,-0.178410,-0.016958,0.029329,0.035258
"2019-10-15 11:04:00.390 +0000",1571137440.390112,-0.032325,0.785723,-0.010327,-0.022846,-0.707336,-0.706508,0.000000,0.000000,0.000000,-1,-0.659627,0.670042,-0.092567,-0.006710,0.014847,-0.013066
"2019-10-15 11:04:00.410 +0000",1571137440.410210,-0.013204,0.772052,-0.012988,-0.009460,-0.697607,-0.716418,0.000000,0.000000,0.000000,-1,-0.677975,0.903062,-0.082950,-0.014557,0.016363,-0.057096
"2019-10-15 11:04:00.430 +0000",1571137440.430308,0.009600,0.757942,-0.019063,0.006972,-0.687428,-0.726219,0.000000,0.000000,0.000000,-1,-0.720971,0.916364,-0.268223,-0.036651,0.018437,-0.015083
"2019-10-15 11:04:00.450 +0000",1571137440.450405,0.033806,0.739801,-0.028676,0.024965,-0.674141,-0.738180,0.000000,0.000000,0.000000,-1,-0.953700,0.872409,-0.386638,-0.029252,-0.017372,0.014395
"2019-10-15 11:04:00.471 +0000",1571137440.470503,0.058083,0.718343,-0.035768,0.043706,-0.658138,-0.751628,0.000000,0.000000,0.000000,-1,-1.084209,1.015914,-0.276511,0.001811,0.027263,0.032618
"2019-10-15 11:04:00.491 +0000",1571137440.490601,0.078355,0.695732,-0.037338,0.060082,-0.640947,-0.765230,0.000000,0.000000,0.000000,-1,-1.122163,0.910698,-0.085795,0.046516,0.050707,-0.058409
"2019-10-15 11:04:00.511 +0000",1571137440.510700,0.091597,0.676458,-0.032408,0.071327,-0.626035,-0.776526,0.000000,0.000000,0.000000,-1,-0.877093,0.820753,0.161671,0.053246,0.069089,-0.142877
"2019-10-15 11:04:00.531 +0000",1571137440.530796,0.096467,0.652396,-0.012159,0.076537,-0.607092,-0.790937,0.000000,0.000000,0.000000,-1,-1.432785,0.820441,0.870083,0.060747,0.070760,0.004377
"2019-10-15 11:04:00.551 +0000",1571137440.550895,0.086666,0.622392,0.026662,0.070327,-0.582980,-0.809437,0.000000,0.000000,0.000000,-1,-1.661309,0.616834,1.579483,0.091554,0.110660,0.094654
"2019-10-15 11:04:00.571 +0000",1571137440.570993,0.072717,0.595437,0.078957,0.060150,-0.560871,-0.825715,0.000000,0.000000,0.000000,-1,-1.423761,0.867013,2.162563,0.125168,0.108402,0.006868
"2019-10-15 11:04:00.591 +0000",1571137440.591090,0.075564,0.538852,0.126482,0.064795,-0.513151,-0.855849,0.000000,0.000000,0.000000,-1,-1.006088,1.201440,2.054348,0.019235,0.119459,-0.096970
"2019-10-15 11:04:00.611 +0000",1571137440.611187,0.099116,0.529507,0.151659,0.085402,-0.505108,-0.858820,0.000000,0.000000,0.000000,-1,-0.352896,2.036625,0.586988,-0.133422,0.195629,-0.084539
"2019-10-15 11:04:00.631 +0000",1571137440.631285,0.137625,0.507020,0.136870,0.119932,-0.485574,-0.865930,0.000000,0.000000,0.000000,-1,0.267598,1.044512,-0.800929,-0.158323,0.016794,-0.206351
"2019-10-15 11:04:00.651 +0000",1571137440.651383,0.162232,0.514750,0.106753,0.140591,-0.492317,-0.858987,0.000000,0.000000,0.000000,-1,0.658865,0.345698,-1.342709,-0.105160,0.094841,-0.050575
"2019-10-15 11:04:00.671 +0000",1571137440.671480,0.190619,0.509484,0.066792,0.165404,-0.487727,-0.857184,0.000000,0.000000,0.000000,-1,0.896824,0.208554,-1.525083,-0.042449,0.096522,-0.026117
"2019-10-15 11:04:00.692 +0000",1571137440.691578,0.216023,0.523989,0.024709,0.185588,-0.500338,-0.845706,0.000000,0.000000,0.000000,-1,1.135357,0.222966,-1.673930,-0.044246,0.046465,-0.033261
"2019-10-15 11:04:00.712 +0000",1571137440.711676,0.242704,0.527409,-0.025615,0.207671,-0.503296,-0.838788,0.000000,0.000000,0.000000,-1,1.222366,-0.357659,-1.836684,-0.072722,0.013687,-0.015505
"2019-10-15 11:04:00.732 +0000",1571137440.731774,0.241296,0.538703,-0.075031,0.205118,-0.513023,-0.833507,0.000000,0.000000,0.000000,-1,0.981371,-1.671138,-1.941871,0.006857,-0.078972,0.000789
"2019-10-15 11:04:00.752 +0000",1571137440.751871,0.228660,0.528453,-0.123992,0.195752,-0.504198,-0.841110,0.000000,0.000000,0.000000,-1,0.154162,-2.177524,-1.890896,0.084506,-0.095671,0.168502
"2019-10-15 11:04:00.772 +0000",1571137440.771970,0.222519,0.508672,-0.154819,0.192746,-0.487018,-0.851858,0.000000,0.000000,0.000000,-1,-0.884374,-0.673957,-1.352280,0.029544,0.007983,0.313559
"2019-10-15 11:04:00.792 +0000",1571137440.792067,0.230425,0.472860,-0.169360,0.203330,-0.455434,-0.866739,0.000000,0.000000,0.000000,-1,-1.420776,-0.072443,-0.705892,-0.018424,0.027670,0.155054
"2019-10-15 11:04:00.812 +0000",1571137440.812165,0.225370,0.438767,-0.170015,0.202300,-0.424823,-0.882383,0.000000,0.000000,0.000000,-1,-1.689854,-0.341481,-0.319650,0.033952,0.029163,0.062834
"2019-10-15 11:04:00.832 +0000",1571137440.832262,0.218229,0.402669,-0.162016,0.199185,-0.391875,-0.898198,0.000000,0.000000,0.000000,-1,-1.515958,-0.317805,0.226227,-0.008512,0.000884,0.052433
"2019-10-15 11:04:00.852 +0000",1571137440.852360,0.199551,0.379399,-0.144977,0.184133,-0.370362,-0.910454,0.000000,0.000000,0.000000,-1,-1.222675,-0.745281,0.594784,-0.051687,0.021485,0.094201
"2019-10-15 11:04:00.872 +0000",1571137440.872458,0.170869,0.356051,-0.127005,0.159374,-0.348576,-0.923631,0.000000,0.000000,0.000000,-1,-1.017604,-1.225138,0.671142,-0.064953,0.020435,0.192980
"2019-10-15 11:04:00.893 +0000",1571137440.892555,0.138530,0.337260,-0.107175,0.130308,-0.330902,-0.934625,0.000000,0.000000,0.000000,-1,-1.107182,-1.277325,0.815509,-0.056501,0.035950,0.314202
"2019-10-15 11:04:00.913 +0000",1571137440.912653,0.100050,0.307426,-0.083638,0.095200,-0.302606,-0.948349,0.000000,0.000000,0.000000,-1,-1.525848,-1.604699,0.969284,-0.051774,0.058343,0.337296
"2019-10-15 11:04:00.933 +0000",1571137440.932751,0.050832,0.274513,-0.057902,0.048907,-0.271078,-0.961314,0.000000,0.000000,0.000000,-1,-1.761251,-2.224835,1.136953,-0.066608,0.081854,0.256129
"2019-10-15 11:04:00.953 +0000",1571137440.952850,-0.004165,0.240286,-0.032210,-0.004046,-0.237980,-0.971262,0.000000,0.000000,0.000000,-1,-1.459418,-2.267541,1.154693,-0.065397,0.160557,0.254541
"2019-10-15 11:04:00.973 +0000",1571137440.972946,-0.057294,0.214611,-0.012687,-0.055949,-0.212968,-0.975456,0.000000,0.000000,0.000000,-1,-1.198914,-2.541935,0.925702,-0.075780,0.181504,0.166374
"2019-10-15 11:04:00.993 +0000",1571137440.993044,-0.127483,0.190579,0.007221,-0.124836,-0.189428,-0.973927,0.000000,0.000000,0.000000,-1,-0.804302,-3.298938,1.082440,-0.002361,0.157506,0.037724
"2019-10-15 11:04:01.013 +0000",1571137441.013142,-0.204388,0.174731,0.027661,-0.199878,-0.173844,-0.964276,0.000000,0.000000,0.000000,-1,-0.599918,-3.719899,1.092623,-0.085584,0.166550,0.210461
"2019-10-15 11:04:01.033 +0000",1571137441.033241,-0.277773,0.146949,0.040044,-0.271259,-0.146421,-0.951304,0.000000,0.000000,0.000000,-1,-1.252440,-3.126525,0.775517,-0.164989,0.125470,0.402262
"2019-10-15 11:04:01.053 +0000",1571137441.053338,-0.329783,0.108218,0.045447,-0.321943,-0.108007,-0.940578,0.000000,0.000000,0.000000,-1,-1.895196,-2.443431,0.890790,-0.030931,0.242727,0.244960
"2019-10-15 11:04:01.073 +0000",1571137441.073435,-0.390157,0.067988,0.054543,-0.379455,-0.067935,-0.922713,0.000000,0.000000,0.000000,-1,-1.551564,-3.150784,1.169255,-0.034363,0.252231,-0.177858
"2019-10-15 11:04:01.094 +0000",1571137441.093533,-0.467114,0.042100,0.067486,-0.449912,-0.042087,-0.892081,0.000000,0.000000,0.000000,-1,-0.694430,-3.978302,1.086655,-0.083001,0.231540,-0.240335
"2019-10-15 11:04:01.114 +0000",1571137441.113632,-0.550604,0.020381,0.083864,-0.523094,-0.020380,-0.852032,0.000000,0.000000,0.000000,-1,-0.555866,-4.119916,1.300785,0.057808,0.196817,-0.004170
"2019-10-15 11:04:01.134 +0000",1571137441.133729,-0.633603,-0.012528,0.100700,-0.592005,0.012528,-0.805837,0.000000,0.000000,0.000000,-1,-1.001036,-4.125825,1.729267,0.199107,0.169814,0.105733
"2019-10-15 11:04:01.154 +0000",1571137441.153826,-0.716144,-0.056178,0.116246,-0.655445,0.056148,-0.753152,0.000000,0.000000,0.000000,-1,-1.269892,-4.100092,2.019953,0.142964,0.147785,0.011774
"2019-10-15 11:04:01.174 +0000",1571137441.173924,-0.791621,-0.106658,0.128590,-0.707451,0.106456,-0.698699,0.000000,0.000000,0.000000,-1,-1.456669,-3.717925,2.199436,0.093925,0.165501,-0.114915
"2019-10-15 11:04:01.194 +0000",1571137441.194023,-0.868678,-0.159400,0.142440,-0.753797,0.158726,-0.637649,0.000000,0.000000,0.000000,-1,-1.151336,-4.055520,2.498866,0.193434,0.198284,-0.450730
"2019-10-15 11:04:01.214 +0000",1571137441.214120,-0.949790,-0.215051,0.168263,-0.794559,0.213397,-0.568451,0.000000,0.000000,0.000000,-1,-0.546726,-4.302142,3.123185,0.170430,0.152341,-0.499786
"2019-10-15 11:04:01.234 +0000",1571137441.234218,-1.016264,-0.275637,0.203731,-0.818056,0.272160,-0.506669,0.000000,0.000000,0.000000,-1,-0.173487,-3.472414,3.552286,0.009310,0.139476,-0.294585
"2019-10-15 11:04:01.254 +0000",1571137441.254316,-1.058553,-0.342685,0.235620,-0.820966,0.336017,-0.461636,0.000000,0.000000,0.000000,-1,-0.483585,-2.308377,3.648949,-0.166079,0.006527,-0.182652
"2019-10-15 11:04:01.274 +0000",1571137441.274413,-1.088176,-0.410555,0.258239,-0.812173,0.399119,-0.425535,0.000000,0.000000,0.000000,-1,-0.728540,-1.831365,3.388679,-0.222510,0.035848,-0.327716
"2019-10-15 11:04:01.295 +0000",1571137441.294511,-1.118527,-0.472039,0.280885,-0.801096,0.454703,-0.389218,0.000000,0.000000,0.000000,-1,-0.358910,-2.040901,3.132237,-0.224889,-0.011390,-0.463230
"2019-10-15 11:04:01.315 +0000",1571137441.314609,-1.146526,-0.530010,0.312299,-0.786306,0.505542,-0.355177,0.000000,0.000000,0.000000,-1,0.152225,-2.160456,3.223742,-0.233789,0.026425,-0.457324
"2019-10-15 11:04:01.335 +0000",1571137441.334707,-1.168707,-0.582933,0.355889,-0.768268,0.550475,-0.326712,0.000000,0.000000,0.000000,-1,0.783917,-2.302549,3.094364,-0.337260,0.060364,-0.405741
"2019-10-15 11:04:01.355 +0000",1571137441.354804,-1.185750,-0.626613,0.403314,-0.750710,0.586404,-0.304244,0.000000,0.000000,0.000000,-1,0.977314,-2.106638,2.619813,-0.407980,-0.032877,-0.185289
"2019-10-15 11:04:01.375 +0000",1571137441.374902,-1.196541,-0.664456,0.446282,-0.732759,0.616631,-0.287803,0.000000,0.000000,0.000000,-1,0.867730,-1.741280,2.337837,-0.270826,-0.117914,-0.123666
"2019-10-15 11:04:01.395 +0000",1571137441.395000,-1.201049,-0.700542,0.488648,-0.712827,0.644632,-0.276272,0.000000,0.000000,0.000000,-1,0.879658,-1.490896,2.218482,-0.278520,-0.141215,-0.073674
"2019-10-15 11:04:01.415 +0000",1571137441.415097,-1.202177,-0.730841,0.531004,-0.694595,0.667496,-0.268305,0.000000,0.000000,0.000000,-1,0.965155,-1.450745,1.907746,-0.297500,-0.097795,-0.117362
"2019-10-15 11:04:01.435 +0000",1571137441.435196,-1.200890,-0.756999,0.578163,-0.677734,0.686743,-0.262795,0.000000,0.000000,0.000000,-1,1.212054,-1.530058,1.829734,-0.254714,-0.086280,-0.147607
"2019-10-15 11:04:01.455 +0000",1571137441.455293,-1.191923,-0.780055,0.634365,-0.660461,0.703318,-0.262934,0.000000,0.000000,0.000000,-1,1.528123,-1.482201,1.774379,-0.352157,-0.097805,-0.081320
"2019-10-15 11:04:01.475 +0000",1571137441.475391,-1.171077,-0.794577,0.692911,-0.645360,0.713567,-0.272640,0.000000,0.000000,0.000000,-1,1.642669,-0.823361,1.315332,-0.524058,-0.182715,0.127345
"2019-10-15 11:04:01.495 +0000",1571137441.495489,-1.137250,-0.799709,0.741865,-0.632438,0.717153,-0.292768,0.000000,0.000000,0.000000,-1,1.375181,0.203794,0.789338,-0.513572,-0.166831,0.263013
"2019-10-15 11:04:01.516 +0000",1571137441.515585,-1.099465,-0.799226,0.777692,-0.621235,0.716817,-0.316607,0.000000,0.000000,0.000000,-1,1.043774,0.671250,0.462594,-0.383113,-0.190847,0.261568
"2019-10-15 11:04:01.536 +0000",1571137441.535684,-1.069668,-0.795831,0.802155,-0.613658,0.714445,-0.336143,0.000000,0.000000,0.000000,-1,0.751112,0.587970,0.157752,-0.352055,-0.205993,0.302664
"2019-10-15 11:04:01.556 +0000",1571137441.555782,-1.051502,-0.790014,0.813213,-0.611049,0.710363,-0.349291,0.000000,0.000000,0.000000,-1,0.399011,0.490643,-0.121254,-0.288960,-0.148459,0.262727
"2019-10-15 11:04:01.576 +0000",1571137441.575880,-1.036332,-0.786214,0.820213,-0.607998,0.707684,-0.359892,0.000000,0.000000,0.000000,-1,0.287558,0.517195,0.003583,-0.123798,-0.118665,0.182325
"2019-10-15 11:04:01.596 +0000",1571137441.595977,-1.023594,-0.784371,0.827229,-0.604477,0.706380,-0.368285,0.000000,0.000000,0.000000,-1,0.255006,0.314094,0.056131,-0.067779,-0.115698,0.101699
"2019-10-15 11:04:01.616 +0000",1571137441.616075,-1.012675,-0.783076,0.834992,-0.601196,0.705463,-0.375348,0.000000,0.000000,0.000000,-1,0.269963,0.287264,0.109241,-0.005081,-0.099796,0.095562
"2019-10-15 11:04:01.636 +0000",1571137441.636173,-0.995551,-0.783570,0.845504,-0.594388,0.705813,-0.385397,0.000000,0.000000,0.000000,-1,0.312425,0.548246,0.257808,0.045042,-0.049380,0.034308
"2019-10-15 11:04:01.656 +0000",1571137441.656270,-0.971588,-0.785749,0.860246,-0.583711,0.707355,-0.398660,0.000000,0.000000,0.000000,-1,0.397395,0.708811,0.414091,0.097353,-0.063755,0.034814
"2019-10-15 11:04:01.676 +0000",1571137441.676368,-0.945740,-0.786311,0.880792,-0.572891,0.707752,-0.413381,0.000000,0.000000,0.000000,-1,0.643944,0.493448,0.437019,0.103851,-0.039814,-0.024531
"2019-10-15 11:04:01.696 +0000",1571137441.696466,-0.925461,-0.784379,0.902733,-0.565482,0.706386,-0.425734,0.000000,0.000000,0.000000,-1,0.603790,0.090491,0.324498,-0.023111,-0.000362,0.122588
"2019-10-15 11:04:01.717 +0000",1571137441.716565,-0.918096,-0.781495,0.908965,-0.563947,0.704341,-0.431123,0.000000,0.000000,0.000000,-1,0.167889,0.220698,-0.057440,-0.206103,-0.103451,0.312668
"2019-10-15 11:04:01.737 +0000",1571137441.736662,-0.911217,-0.781354,0.904816,-0.561047,0.704241,-0.435053,0.000000,0.000000,0.000000,-1,-0.192630,0.605368,-0.094537,-0.144642,-0.077823,0.316629
"2019-10-15 11:04:01.757 +0000",1571137441.756759,-0.898174,-0.783777,0.901407,-0.553988,0.705959,-0.441269,0.000000,0.000000,0.000000,-1,-0.136879,0.741801,0.058741,-0.073590,-0.034817,0.035645
"2019-10-15 11:04:01.777 +0000",1571137441.776858,-0.898318,-0.782122,0.904199,-0.554965,0.704786,-0.441917,0.000000,0.000000,0.000000,-1,0.242212,-0.445561,-0.035007,-0.167569,-0.074644,-0.241113
"2019-10-15 11:04:01.797 +0000",1571137441.796955,-0.915811,-0.769915,0.920560,-0.569391,0.696074,-0.437350,0.000000,0.000000,0.000000,-1,1.047833,-1.696948,-0.105899,-0.074530,-0.004409,-0.401167
"2019-10-15 11:04:01.817 +0000",1571137441.817052,-0.928927,-0.759342,0.946005,-0.580940,0.688445,-0.434226,0.000000,0.000000,0.000000,-1,0.933394,-1.388886,0.187406,-0.021461,0.058015,0.010428
"2019-10-15 11:04:01.837 +0000",1571137441.837150,-0.932686,-0.757286,0.956283,-0.583704,0.686952,-0.432882,0.000000,0.000000,0.000000,-1,0.198040,-0.235155,0.121842,-0.042928,-0.044480,0.161642
"2019-10-15 11:04:01.857 +0000",1571137441.857249,-0.926513,-0.753093,0.962327,-0.583319,0.683899,-0.438203,0.000000,0.000000,0.000000,-1,0.418392,0.159206,-0.108846,-0.073511,-0.094177,-0.135146
"2019-10-15 11:04:01.877 +0000",1571137441.877347,-0.922641,-0.740090,0.980212,-0.588658,0.674354,-0.445789,0.000000,0.000000,0.000000,-1,1.015841,-0.686433,-0.093586,0.214146,-0.120674,-0.143948
"2019-10-15 11:04:01.897 +0000",1571137441.897444,-0.931943,-0.727679,0.999905,-0.599452,0.665139,-0.445250,0.000000,0.000000,0.000000,-1,0.898364,-1.216575,-0.009463,0.203181,-0.103691,0.264037
"2019-10-15 11:04:01.918 +0000",1571137441.917542,-0.957076,-0.724245,1.002488,-0.612316,0.662570,-0.431359,0.000000,0.000000,0.000000,-1,0.026797,-1.178191,-0.083443,-0.064747,-0.036853,0.480461
"2019-10-15 11:04:01.938 +0000",1571137441.937639,-0.972712,-0.721412,1.002960,-0.620534,0.660446,-0.422788,0.000000,0.000000,0.000000,-1,0.101625,-0.756407,-0.081225,-0.203593,-0.078308,-0.021396
"2019-10-15 11:04:01.958 +0000",1571137441.957738,-0.988071,-0.717079,1.003940,-0.629338,0.657186,-0.414778,0.000000,0.000000,0.000000,-1,0.199835,-0.800936,-0.198220,-0.164577,-0.047125,-0.109499
"2019-10-15 11:04:01.978 +0000",1571137441.977834,-1.007553,-0.712613,1.006808,-0.639774,0.653813,-0.404003,0.000000,0.000000,0.000000,-1,0.186658,-1.152635,-0.093940,-0.081921,-0.067525,-0.017155
"2019-10-15 11:04:01.998 +0000",1571137441.997933,-1.031977,-0.716085,1.004582,-0.647497,0.656436,-0.387090,0.000000,0.000000,0.000000,-1,-0.284737,-1.089042,0.169441,-0.010141,-0.048099,0.049154
"2019-10-15 11:04:02.018 +0000",1571137442.018031,-1.052546,-0.724706,0.997516,-0.650381,0.662915,-0.370874,0.000000,0.000000,0.000000,-1,-0.452025,-0.684471,0.247016,-0.040765,0.035067,-0.167197
"2019-10-15 11:04:02.038 +0000",1571137442.038129,-1.069049,-0.732837,0.995747,-0.651665,0.668981,-0.357486,0.000000,0.000000,0.000000,-1,-0.187998,-0.821853,0.361051,0.028207,0.021418,-0.314664
"2019-10-15 11:04:02.058 +0000",1571137442.058227,-1.089821,-0.741841,0.995840,-0.653583,0.675646,-0.341073,0.000000,0.000000,0.000000,-1,-0.259546,-1.126130,0.388360,-0.172680,-0.123843,0.023080
"2019-10-15 11:04:02.078 +0000",1571137442.078323,-1.120035,-0.749825,0.986281,-0.658712,0.681511,-0.318813,0.000000,0.000000,0.000000,-1,-0.548785,-1.189471,0.132731,-0.333262,-0.205101,0.039516
"2019-10-15 11:04:02.098 +0000",1571137442.098423,-1.153421,-0.754685,0.970637,-0.665951,0.685059,-0.295301,0.000000,0.000000,0.000000,-1,-0.638296,-1.076709,-0.038229,-0.152301,-0.078492,-0.078616
"2019-10-15 11:04:02.119 +0000",1571137442.118520,-1.173787,-0.759658,0.956577,-0.668676,0.688674,-0.280358,0.000000,0.000000,0.000000,-1,-0.524068,-0.376960,0.037677,0.012228,0.099259,-0.021095
"2019-10-15 11:04:02.139 +0000",1571137442.138616,-1.190849,-0.763474,0.946337,-0.670917,0.691435,-0.267932,0.000000,0.000000,0.000000,-1,-0.375422,-0.573608,0.046415,0.044254,0.006318,0.126666
"2019-10-15 11:04:02.159 +0000",1571137442.158715,-1.210326,-0.766001,0.944108,-0.674371,0.693259,-0.254198,0.000000,0.000000,0.000000,-1,-0.028054,-1.009351,0.102164,0.067789,0.016854,0.020493
"2019-10-15 11:04:02.179 +0000",1571137442.178813,-1.233892,-0.770246,0.947360,-0.677390,0.696312,-0.237261,0.000000,0.000000,0.000000,-1,-0.019637,-1.374561,0.322039,0.184928,0.004890,0.111361
"2019-10-15 11:04:02.199 +0000",1571137442.198910,-1.245490,-0.795355,0.947052,-0.663317,0.714112,-0.223729,0.000000,0.000000,0.000000,-1,-0.506509,-0.222246,1.513203,0.539721,-0.013932,0.198063
"2019-10-15 11:04:02.219 +0000",1571137442.219007,-1.250097,-0.832696,0.956551,-0.638577,0.739748,-0.212113,0.000000,0.000000,0.000000,-1,-0.138080,-0.834837,1.918890,0.398054,-0.030245,-0.224472
"2019-10-15 11:04:02.239 +0000",1571137442.239106,-1.256472,-0.864789,0.992946,-0.617013,0.760958,-0.200592,0.000000,0.000000,0.000000,-1,0.850625,-1.899782,1.852850,0.265604,-0.048954,-0.322709
"2019-10-15 11:04:02.259 +0000",1571137442.259205,-1.251777,-0.883531,1.030277,-0.602415,0.772984,-0.198979,0.000000,0.000000,0.000000,-1,0.774692,-0.801888,1.013959,-0.403002,-0.211202,-0.097393
"2019-10-15 11:04:02.279 +0000",1571137442.279301,-1.235810,-0.891980,1.029565,-0.592972,0.778316,-0.206417,0.000000,0.000000,0.000000,-1,-0.527724,1.335847,0.158373,-0.509261,-0.260952,0.292735
"2019-10-15 11:04:02.299 +0000",1571137442.299399,-1.225820,-0.900244,0.989303,-0.584807,0.783479,-0.210148,0.000000,0.000000,0.000000,-1,-1.414230,2.302735,0.012543,-0.207032,-0.221483,0.313342
"2019-10-15 11:04:02.319 +0000",1571137442.319497,-1.210971,-0.909928,0.965943,-0.574494,0.789459,-0.216127,0.000000,0.000000,0.000000,-1,-0.558344,1.314367,0.281306,-0.080123,-0.131440,-0.243545
"2019-10-15 11:04:02.340 +0000",1571137442.339595,-1.194649,-0.918624,0.984067,-0.564483,0.794767,-0.222944,0.000000,0.000000,0.000000,-1,0.623134,-0.282327,0.698445,-0.042816,-0.192504,-0.297031
"2019-10-15 11:04:02.360 +0000",1571137442.359693,-1.174879,-0.933769,1.024832,-0.548796,0.803867,-0.229391,0.000000,0.000000,0.000000,-1,0.839136,-0.708182,1.324554,0.078078,-0.084569,0.099446
"2019-10-15 11:04:02.380 +0000",1571137442.379789,-1.160913,-0.958359,1.075601,-0.527246,0.818249,-0.229085,0.000000,0.000000,0.000000,-1,0.875833,-1.666967,1.829183,0.106165,-0.014920,-0.217083
"2019-10-15 11:04:02.400 +0000",1571137442.399888,-1.165403,-0.996066,1.125858,-0.499548,0.839339,-0.214388,0.000000,0.000000,0.000000,-1,0.419968,-2.490235,2.407733,0.055532,-0.219650,0.050218
"2019-10-15 11:04:02.420 +0000",1571137442.419985,-1.169845,-1.048742,1.177853,-0.459113,0.866797,-0.194625,0.000000,0.000000,0.000000,-1,0.223742,-2.288695,3.315296,0.391410,-0.171149,-0.088868
"2019-10-15 11:04:02.440 +0000",1571137442.440083,-1.139186,-1.108187,1.246596,-0.405357,0.894891,-0.186696,0.000000,0.000000,0.000000,-1,0.099692,-1.365115,3.170203,-0.225365,0.185049,-0.311351
"2019-10-15 11:04:02.460 +0000",1571137442.460181,-1.130296,-1.157391,1.264697,-0.363380,0.915758,-0.171294,0.000000,0.000000,0.000000,-1,-0.905927,-0.251505,2.053322,-0.698174,0.087232,-0.038820
"2019-10-15 11:04:02.480 +0000",1571137442.480279,-1.159524,-1.196701,1.238248,-0.334958,0.930839,-0.146090,0.000000,0.000000,0.000000,-1,-1.366583,-0.242187,1.456479,-0.204806,0.238777,0.307650
"2019-10-15 11:04:02.500 +0000",1571137442.500378,-1.205941,-1.226078,1.196026,-0.315687,0.941171,-0.120579,0.000000,0.000000,0.000000,-1,-1.143445,-0.404699,0.950015,-0.086290,0.226813,0.107349
"2019-10-15 11:04:02.520 +0000",1571137442.520474,-1.252064,-1.247187,1.152338,-0.301975,0.948094,-0.099647,0.000000,0.000000,0.000000,-1,-1.028684,-0.111278,0.706125,0.043918,0.018763,0.118994
"2019-10-15 11:04:02.541 +0000",1571137442.540573,-1.291226,-1.271362,1.104619,-0.283527,0.955503,-0.081398,0.000000,0.000000,0.000000,-1,-1.027001,0.453833,1.079293,0.208119,-0.320052,0.067817
"2019-10-15 11:04:02.561 +0000",1571137442.560670,-1.298085,-1.301940,1.081170,-0.255812,0.964075,-0.071545,0.000000,0.000000,0.000000,-1,-0.577365,0.843236,1.455814,0.261931,-0.571178,-0.048328
"2019-10-15 11:04:02.581 +0000",1571137442.580767,-1.256735,-1.331428,1.113606,-0.225492,0.971488,-0.073242,0.000000,0.000000,0.000000,-1,0.154366,0.370145,1.574518,0.030332,-0.573204,-0.131974
"2019-10-15 11:04:02.601 +0000",1571137442.600865,-1.190959,-1.360882,1.167858,-0.193524,0.978049,-0.077259,0.000000,0.000000,0.000000,-1,-0.051472,0.753106,1.546713,-0.303989,-0.448646,0.275318
"2019-10-15 11:04:02.621 +0000",1571137442.620963,-1.153018,-1.385954,1.173970,-0.167985,0.982965,-0.074570,0.000000,0.000000,0.000000,-1,-0.527292,1.821272,1.035573,-0.336120,-0.290507,0.304062
"2019-10-15 11:04:02.641 +0000",1571137442.641061,-1.096462,-1.404259,1.201402,-0.147468,0.986165,-0.075715,0.000000,0.000000,0.000000,-1,-0.029735,1.242554,0.888501,0.097114,0.017100,-0.140900
"2019-10-15 11:04:02.661 +0000",1571137442.661158,-1.014177,-1.424275,1.270537,-0.123959,0.989285,-0.077133,0.000000,0.000000,0.000000,-1,-0.068814,0.483708,1.178445,0.106732,0.417727,-0.154557
"2019-10-15 11:04:02.681 +0000",1571137442.681256,-0.947407,-1.428782,1.328776,-0.114916,0.989933,-0.082629,0.000000,0.000000,0.000000,-1,0.215078,0.594333,0.160320,-0.485334,0.975367,0.003770
"2019-10-15 11:04:02.701 +0000",1571137442.701353,-0.933028,-1.419840,1.327883,-0.120823,0.988628,-0.089539,0.000000,0.000000,0.000000,-1,0.333250,0.756262,-0.516863,-0.168957,1.085132,0.089584
"2019-10-15 11:04:02.721 +0000",1571137442.721452,-0.943487,-1.392652,1.298740,-0.143466,0.984174,-0.104013,0.000000,0.000000,0.000000,-1,0.649910,0.992067,-1.537541,-0.449674,0.551148,0.074623
"2019-10-15 11:04:02.742 +0000",1571137442.741549,-0.992919,-1.356917,1.235865,-0.177788,0.977215,-0.115943,0.000000,0.000000,0.000000,-1,0.446380,0.382289,-1.791657,-0.159370,-0.017530,-0.207880
"2019-10-15 11:04:02.762 +0000",1571137442.761647,-1.035973,-1.378922,1.213042,-0.164070,0.981649,-0.097197,0.000000,0.000000,0.000000,-1,-1.177845,-1.399379,1.603282,0.475944,-1.179099,0.093610
"2019-10-15 11:04:02.782 +0000",1571137442.781744,-1.003356,-1.418986,1.284165,-0.127528,0.988499,-0.081282,0.000000,0.000000,0.000000,-1,-0.053377,-1.752782,2.061729,-0.282750,-0.001089,-0.008442
"2019-10-15 11:04:02.802 +0000",1571137442.801842,-0.776955,-1.436914,1.512382,-0.093586,0.991051,-0.095180,0.000000,0.000000,0.000000,-1,0.782053,0.397256,1.519947,-0.184734,0.012121,0.269342
"2019-10-15 11:04:02.822 +0000",1571137442.821939,-0.667916,-1.444614,1.624093,-0.077944,0.992050,-0.098805,0.000000,0.000000,0.000000,-1,-0.045923,-0.289164,0.549602,-0.062818,0.208952,-0.033170
"2019-10-15 11:04:02.842 +0000",1571137442.842037,-0.663429,-1.449524,1.636917,-0.074500,0.992656,-0.095315,0.000000,0.000000,0.000000,-1,-0.104592,-0.252058,0.160224,0.008963,0.069705,0.106224
"2019-10-15 11:04:02.862 +0000",1571137442.862135,-0.639510,-1.450221,1.660823,-0.071785,0.992740,-0.096513,0.000000,0.000000,0.000000,-1,0.093048,0.018401,0.110910,0.040550,0.040889,-0.005845
"2019-10-15 11:04:02.882 +0000",1571137442.882232,-0.634817,-1.450945,1.665857,-0.070906,0.992826,-0.096272,0.000000,0.000000,0.000000,-1,-0.054825,-0.015885,-0.015926,0.044127,0.035996,0.023562
"2019-10-15 11:04:02.902 +0000",1571137442.902331,-0.673565,-1.452923,1.622325,-0.073356,0.993061,-0.091917,0.000000,0.000000,0.000000,-1,-0.273033,0.289103,-0.155745,-0.025536,-0.098165,0.076489
"2019-10-15 11:04:02.922 +0000",1571137442.922429,-0.655819,-1.453907,1.637149,-0.071118,0.993176,-0.092429,0.000000,0.000000,0.000000,-1,0.079297,0.058949,0.192275,-0.052189,-0.138045,-0.097773
"2019-10-15 11:04:02.943 +0000",1571137442.942527,-0.541692,-1.462371,1.758724,-0.055794,0.994128,-0.092722,0.000000,0.000000,0.000000,-1,0.064643,-0.450489,1.058067,-0.037910,-0.253360,-0.099082
"2019-10-15 11:04:02.963 +0000",1571137442.962624,-0.343569,-1.471160,1.968173,-0.033507,0.995040,-0.093659,0.000000,0.000000,0.000000,-1,0.055323,-0.507883,1.102924,-0.138261,0.094695,0.049193
"2019-10-15 11:04:02.983 +0000",1571137442.982722,-0.304033,-1.473720,2.013775,-0.029016,0.995292,-0.092480,0.000000,0.000000,0.000000,-1,-0.098505,-0.210721,-0.038738,-0.027929,0.280723,0.076243
"2019-10-15 11:04:03.003 +0000",1571137443.002820,-0.320303,-1.475231,2.004030,-0.030043,0.995437,-0.090566,0.000000,0.000000,0.000000,-1,-0.114359,-0.351215,0.022297,-0.157320,-0.052018,-0.022640
"2019-10-15 11:04:03.023 +0000",1571137443.022918,-0.319713,-1.477729,2.010098,-0.029208,0.995672,-0.088222,0.000000,0.000000,0.000000,-1,-0.081763,-0.229516,0.059931,-0.132108,0.112313,0.012080
"2019-10-15 11:04:03.043 +0000",1571137443.043015,-0.327016,-1.479703,2.005134,-0.029221,0.995854,-0.086148,0.000000,0.000000,0.000000,-1,-0.106219,-0.066550,-0.006945,-0.079910,0.066081,0.058437
"2019-10-15 11:04:03.063 +0000",1571137443.063113,-0.334635,-1.480828,1.998498,-0.029508,0.995956,-0.084862,0.000000,0.000000,0.000000,-1,-0.044878,-0.071967,-0.003434,-0.012744,-0.128693,0.005684
"2019-10-15 11:04:03.083 +0000",1571137443.083211,-0.292919,-1.481037,2.047583,-0.025883,0.995974,-0.085821,0.000000,0.000000,0.000000,-1,0.122600,-0.444722,0.315540,0.135487,-0.415058,-0.101527
"2019-10-15 11:04:03.103 +0000",1571137443.103308,-0.191513,-1.479549,2.156045,-0.017344,0.995840,-0.089454,0.000000,0.000000,0.000000,-1,0.206644,-0.297795,0.483354,0.029048,-0.394782,0.014975
"2019-10-15 11:04:03.123 +0000",1571137443.123406,-0.112875,-1.480697,2.242783,-0.010135,0.995944,-0.089405,0.000000,0.000000,0.000000,-1,-0.085298,-0.397122,0.335646,-0.048810,-0.437565,0.076418
"2019-10-15 11:04:03.144 +0000",1571137443.143504,-0.060106,-1.486586,2.304031,-0.005052,0.996456,-0.083957,0.000000,0.000000,0.000000,-1,-0.313226,-0.389258,0.332427,-0.023634,-0.127897,0.046312
"2019-10-15 11:04:03.164 +0000",1571137443.163602,0.140962,-1.494582,2.512331,0.010697,0.997097,-0.075385,0.000000,0.000000,0.000000,-1,-0.462834,-0.300404,1.002664,0.042266,0.074510,0.062246
"2019-10-15 11:04:03.184 +0000",1571137443.183699,0.505278,-1.490765,2.875033,0.038699,0.996799,-0.069957,0.000000,0.000000,0.000000,-1,-0.178755,0.324928,1.495517,-0.054629,-0.012212,0.066080
"2019-10-15 11:04:03.204 +0000",1571137443.203797,0.824319,-1.470199,-3.096347,0.073722,0.994944,-0.068196,0.000000,0.000000,0.000000,-1,-0.042010,0.425341,1.797877,-0.057151,-0.150800,0.050601
"2019-10-15 11:04:03.224 +0000",1571137443.223895,1.070066,-1.443843,-2.855516,0.111069,0.991952,-0.060782,0.000000,0.000000,0.000000,-1,-0.463328,0.273941,1.836776,-0.049774,-0.197368,0.086553
"2019-10-15 11:04:03.244 +0000",1571137443.243993,1.254904,-1.417535,-2.669731,0.145109,0.988278,-0.047427,0.000000,0.000000,0.000000,-1,-0.718832,-0.007301,1.701717,-0.107038,0.174912,0.006226
"2019-10-15 11:04:03.264 +0000",1571137443.264090,1.365908,-1.380287,-2.556897,0.185398,0.981908,-0.038527,0.000000,0.000000,0.000000,-1,-0.328679,0.038630,2.076411,-0.192158,0.460168,-0.126362
"2019-10-15 11:04:03.284 +0000",1571137443.284187,1.419427,-1.343216,-2.505397,0.223042,0.974215,-0.034022,0.000000,0.000000,0.000000,-1,-0.118419,0.205088,1.783380,0.117244,-0.108647,-0.012489
"2019-10-15 11:04:03.304 +0000",1571137443.304286,1.440774,-1.313793,-2.487343,0.252038,0.967156,-0.032957,0.000000,0.000000,0.000000,-1,0.061305,0.154556,1.393906,-0.177927,0.381658,-0.154790
"2019-10-15 11:04:03.324 +0000",1571137443.324384,1.439477,-1.294253,-2.494497,0.270681,0.962005,-0.035751,0.000000,0.000000,0.000000,-1,0.274523,0.317136,0.819125,-0.278876,0.286864,0.019682
"2019-10-15 11:04:03.344 +0000",1571137443.344481,1.442880,-1.276830,-2.503315,0.287383,0.957102,-0.036963,0.000000,0.000000,0.000000,-1,0.166502,0.604587,0.912472,0.025284,-0.009915,0.057240
"2019-10-15 11:04:03.365 +0000",1571137443.364579,1.460923,-1.249467,-2.493971,0.313924,0.948816,-0.034631,0.000000,0.000000,0.000000,-1,-0.117367,0.422423,1.686777,0.235499,-0.173778,-0.008705
"2019-10-15 11:04:03.385 +0000",1571137443.384677,1.485768,-1.204896,-2.471126,0.356497,0.933802,-0.030386,0.000000,0.000000,0.000000,-1,-0.179661,0.043400,2.408336,0.044930,0.030842,-0.062755
"2019-10-15 11:04:03.405 +0000",1571137443.404774,1.502251,-1.148774,-2.456524,0.408644,0.912262,-0.028055,0.000000,0.000000,0.000000,-1,-0.075851,0.359893,2.883699,-0.109131,0.117140,0.076072
"2019-10-15 11:04:03.425 +0000",1571137443.424872,1.522639,-1.092557,-2.447628,0.459684,0.887806,-0.022154,0.000000,0.000000,0.000000,-1,0.051620,0.619074,2.765645,-0.201399,0.109446,0.000150
"2019-10-15 11:04:03.445 +0000",1571137443.444970,1.527669,-1.074901,-2.449891,0.475377,0.879543,-0.020515,0.000000,0.000000,0.000000,-1,0.113766,-0.135011,0.080535,-0.235617,1.023638,-0.250758
"2019-10-15 11:04:03.465 +0000",1571137443.465069,1.533611,-1.047142,-2.446893,0.499703,0.865998,-0.018590,0.000000,0.000000,0.000000,-1,0.024505,0.205099,1.881015,0.183661,-0.992510,0.343799
"2019-10-15 11:04:03.485 +0000",1571137443.485165,1.534810,-1.032756,-2.444365,0.512122,0.858715,-0.018438,0.000000,0.000000,0.000000,-1,-0.059092,-0.153743,0.319211,-0.584755,0.485735,-0.157224
"2019-10-15 11:04:03.505 +0000",1571137443.505263,1.534350,-1.036167,-2.445290,0.509184,0.860457,-0.018566,0.000000,0.000000,0.000000,-1,0.017668,0.078627,-0.282326,0.012833,0.354201,0.064050
"2019-10-15 11:04:03.525 +0000",1571137443.525361,1.537965,-1.047420,-2.448434,0.499538,0.866137,-0.016406,0.000000,0.000000,0.000000,-1,0.074239,0.430831,-0.653554,-0.001385,0.380550,0.148362
"2019-10-15 11:04:03.545 +0000",1571137443.545460,1.542754,-1.065863,-2.454863,0.483559,0.875207,-0.013563,0.000000,0.000000,0.000000,-1,0.153063,0.528967,-0.999832,-0.019510,0.257772,0.089535
"2019-10-15 11:04:03.566 +0000",1571137443.565556,1.543087,-1.087370,-2.464170,0.464637,0.885408,-0.012878,0.000000,0.000000,0.000000,-1,0.188711,0.368307,-1.088295,-0.090523,0.102200,0.053769
"2019-10-15 11:04:03.586 +0000",1571137443.585654,1.538073,-1.109675,-2.470448,0.444715,0.895554,-0.014558,0.000000,0.000000,0.000000,-1,0.047342,-0.074242,-1.131442,-0.097487,0.017652,0.021330
"2019-10-15 11:04:03.606 +0000",1571137443.605752,1.536340,-1.131190,-2.466310,0.425331,0.904919,-0.014661,0.000000,0.000000,0.000000,-1,-0.167932,-0.390415,-1.027879,-0.135873,-0.038237,0.000468
"2019-10-15 11:04:03.626 +0000",1571137443.625849,1.528122,-1.147758,-2.457963,0.410159,0.911846,-0.017514,0.000000,0.000000,0.000000,-1,-0.287274,-0.920924,-0.745344,-0.025364,-0.173338,0.012781
"2019-10-15 11:04:03.646 +0000",1571137443.645947,1.535845,-1.152119,-2.438214,0.406304,0.913628,-0.014207,0.000000,0.000000,0.000000,-1,-0.382148,-0.706502,-0.229227,-0.179483,0.016592,0.004439
"2019-10-15 11:04:03.666 +0000",1571137443.666046,1.544079,-1.157199,-2.413197,0.401763,0.915681,-0.010737,0.000000,0.000000,0.000000,-1,-0.555451,-0.756376,-0.265276,-0.029679,0.089734,0.034385
"2019-10-15 11:04:03.686 +0000",1571137443.686144,1.562267,-1.165554,-2.379912,0.394227,0.919007,-0.003363,0.000000,0.000000,0.000000,-1,-0.659144,-0.680736,-0.438551,0.104170,0.150342,-0.006756
"2019-10-15 11:04:03.706 +0000",1571137443.706240,1.583820,-1.173762,-2.348069,0.386653,0.922212,0.005036,0.000000,0.000000,0.000000,-1,-0.582822,-0.303835,-0.384964,0.024266,-0.207798,0.060025
"2019-10-15 11:04:03.726 +0000",1571137443.726338,1.610359,-1.178591,-2.318638,0.381929,0.924068,0.015118,0.000000,0.000000,0.000000,-1,-0.568253,-0.010783,-0.177776,0.013151,-0.065718,0.082139
"2019-10-15 11:04:03.746 +0000",1571137443.746437,1.638083,-1.180043,-2.287885,0.380023,0.924622,0.025609,0.000000,0.000000,0.000000,-1,-0.560114,-0.051907,-0.115983,0.043484,0.081357,0.028008
"2019-10-15 11:04:03.767 +0000",1571137443.766534,1.659595,-1.182230,-2.263352,0.377369,0.925453,0.033598,0.000000,0.000000,0.000000,-1,-0.425997,-0.082179,-0.170717,-0.025518,0.111166,0.030532
"2019-10-15 11:04:03.787 +0000",1571137443.786632,1.681519,-1.187092,-2.239472,0.372066,0.927284,0.041365,0.000000,0.000000,0.000000,-1,-0.430555,0.035771,-0.335363,-0.138989,0.079839,0.147628
"2019-10-15 11:04:03.807 +0000",1571137443.806729,1.756387,-1.157428,-2.167565,0.394799,0.915773,0.074124,0.000000,0.000000,0.000000,-1,-0.501803,0.045927,-0.404812,-0.172601,0.021099,0.035676
"2019-10-15 11:04:03.827 +0000",1571137443.826828,1.781604,-1.161975,-2.139731,0.388728,0.917590,0.083183,0.000000,0.000000,0.000000,-1,-0.498091,-0.050607,-0.302016,-0.204448,-0.024129,-0.008066
"2019-10-15 11:04:03.847 +0000",1571137443.846925,1.792293,-1.176460,-2.121619,0.374810,0.923252,0.084404,0.000000,0.000000,0.000000,-1,-0.526576,-0.326161,-0.164662,-0.133158,0.017923,-0.044871
"2019-10-15 11:04:03.867 +0000",1571137443.867023,1.836131,-1.204257,-2.072870,0.345845,0.933573,0.093981,0.000000,0.000000,0.000000,-1,-0.453947,-0.213420,0.115262,-0.068029,-0.025235,0.052409
"2019-10-15 11:04:03.887 +0000",1571137443.887121,1.882299,-1.224166,-2.023578,0.323381,0.940523,0.104124,0.000000,0.000000,0.000000,-1,-0.431072,-0.136954,0.197406,-0.003649,-0.029453,0.049209
"2019-10-15 11:04:03.907 +0000",1571137443.907218,1.912471,-1.250238,-1.990431,0.296882,0.949059,0.105578,0.000000,0.000000,0.000000,-1,-0.360591,-0.098267,0.004843,0.011497,-0.015667,0.036036
"2019-10-15 11:04:03.927 +0000",1571137443.927315,1.918830,-1.262552,-1.977883,0.285196,0.952868,0.103470,0.000000,0.000000,0.000000,-1,-0.328423,-0.271748,-0.088984,0.030538,-0.069387,0.010602
"2019-10-15 11:04:03.947 +0000",1571137443.947413,1.938246,-1.264583,-1.951358,0.281327,0.953482,0.108292,0.000000,0.000000,0.000000,-1,-0.272435,-0.344916,-0.188759,-0.016741,0.097327,0.012157
"2019-10-15 11:04:03.968 +0000",1571137443.967511,1.954620,-1.261016,-1.927785,0.282669,0.952401,0.114157,0.000000,0.000000,0.000000,-1,-0.162309,-0.330548,-0.283792,0.006331,0.003254,0.049139
"2019-10-15 11:04:03.988 +0000",1571137443.987609,1.962302,-1.257179,-1.912099,0.285159,0.951224,0.117718,0.000000,0.000000,0.000000,-1,-0.155144,-0.406057,-0.238563,-0.004368,-0.097452,0.032241
"2019-10-15 11:04:04.008 +0000",1571137444.007707,1.966624,-1.256283,-1.897155,0.285433,0.950947,0.119278,0.000000,0.000000,0.000000,-1,-0.242557,-0.520190,-0.152131,-0.000492,-0.097526,0.018139
"2019-10-15 11:04:04.028 +0000",1571137444.027805,1.969679,-1.254987,-1.882817,0.286203,0.950545,0.120628,0.000000,0.000000,0.000000,-1,-0.262896,-0.655307,0.196969,-0.011332,-0.124148,0.016468
"2019-10-15 11:04:04.048 +0000",1571137444.047902,1.981280,-1.252573,-1.862943,0.286889,0.949793,0.124856,0.000000,0.000000,0.000000,-1,-0.236316,-0.385906,-0.024434,-0.031748,-0.078794,0.011691
"2019-10-15 11:04:04.068 +0000",1571137444.068000,1.987903,-1.250271,-1.846661,0.288053,0.949070,0.127638,0.000000,0.000000,0.000000,-1,-0.138339,-0.433515,-0.059191,-0.003798,-0.098961,0.047071
"2019-10-15 11:04:04.088 +0000",1571137444.088098,1.987795,-1.249763,-1.835095,0.288508,0.948910,0.127803,0.000000,0.000000,0.000000,-1,-0.093916,-0.555578,-0.104728,0.025730,-0.096786,0.025117
"2019-10-15 11:04:04.108 +0000",1571137444.108195,1.984119,-1.249166,-1.825294,0.289494,0.948721,0.126968,0.000000,0.000000,0.000000,-1,-0.185416,-0.575241,-0.051412,0.028483,-0.016810,0.047496
"2019-10-15 11:04:04.128 +0000",1571137444.128293,1.985981,-1.249439,-1.810356,0.289020,0.948808,0.127403,0.000000,0.000000,0.000000,-1,-0.230921,-0.626101,-0.117767,-0.047963,-0.030110,0.052631
"2019-10-15 11:04:04.148 +0000",1571137444.148391,1.991401,-1.249082,-1.793160,0.288635,0.948695,0.129106,0.000000,0.000000,0.000000,-1,-0.274676,-0.581959,-0.096025,-0.047379,-0.044081,0.036356
"2019-10-15 11:04:04.168 +0000",1571137444.168488,1.994957,-1.248971,-1.773582,0.288270,0.948660,0.130175,0.000000,0.000000,0.000000,-1,-0.286998,-0.807305,-0.123559,0.031736,-0.047281,0.026727
"2019-10-15 11:04:04.189 +0000",1571137444.188586,1.994269,-1.248330,-1.754345,0.288914,0.948457,0.130226,0.000000,0.000000,0.000000,-1,-0.194173,-0.948464,-0.185774,-0.001332,-0.027547,0.056308
"2019-10-15 11:04:04.209 +0000",1571137444.208684,1.993275,-1.252435,-1.735075,0.285489,0.949750,0.128341,0.000000,0.000000,0.000000,-1,-0.100360,-1.081425,-0.220103,-0.038039,0.038405,0.064082
"2019-10-15 11:04:04.229 +0000",1571137444.228782,1.992840,-1.255357,-1.713019,0.283013,0.950660,0.127080,0.000000,0.000000,0.000000,-1,-0.071950,-1.159340,-0.177496,0.015570,0.016255,0.078787
"2019-10-15 11:04:04.249 +0000",1571137444.248879,1.977238,-1.256352,-1.705102,0.284092,0.950968,0.122275,0.000000,0.000000,0.000000,-1,-0.014210,-1.162149,-0.149566,-0.002873,-0.034606,0.147405
"2019-10-15 11:04:04.269 +0000",1571137444.268977,1.959107,-1.257651,-1.698093,0.285118,0.951369,0.116637,0.000000,0.000000,0.000000,-1,0.025723,-1.278579,-0.132082,0.008933,-0.114673,0.144574
"2019-10-15 11:04:04.289 +0000",1571137444.289075,1.939950,-1.260171,-1.692736,0.285063,0.952143,0.110288,0.000000,0.000000,0.000000,-1,0.038569,-1.223451,-0.096630,0.030396,-0.196883,0.195417
"2019-10-15 11:04:04.309 +0000",1571137444.309172,1.915110,-1.260706,-1.693403,0.287235,0.952306,0.103002,0.000000,0.000000,0.000000,-1,-0.048343,-1.129980,0.010497,0.007991,-0.144265,0.258444
"2019-10-15 11:04:04.329 +0000",1571137444.329270,1.892565,-1.259850,-1.697608,0.290258,0.952044,0.096758,0.000000,0.000000,0.000000,-1,0.088403,-0.749082,0.084219,0.065576,-0.201759,0.259255
"2019-10-15 11:04:04.349 +0000",1571137444.349368,1.871059,-1.259728,-1.703839,0.292382,0.952007,0.090528,0.000000,0.000000,0.000000,-1,0.153473,-0.585908,-0.011681,0.083700,-0.093399,0.176450
"2019-10-15 11:04:04.369 +0000",1571137444.369465,1.866053,-1.264236,-1.716466,0.288723,0.953377,0.087814,0.000000,0.000000,0.000000,-1,0.398128,0.535210,-0.268524,-0.134366,0.027301,0.358394
"2019-10-15 11:04:04.390 +0000",1571137444.389564,1.883036,-1.270889,-1.713701,0.281147,0.955364,0.090754,0.000000,0.000000,0.000000,-1,0.318145,0.590928,-0.389728,0.018611,-0.076843,0.277681
"2019-10-15 11:04:04.410 +0000",1571137444.409661,1.903934,-1.276912,-1.715783,0.273747,0.957126,0.094726,0.000000,0.000000,0.000000,-1,0.467402,1.283835,-0.473059,0.006663,-0.025962,0.332348
"2019-10-15 11:04:04.430 +0000",1571137444.429758,1.921356,-1.293794,-1.737181,0.256841,0.961880,0.093917,0.000000,0.000000,0.000000,-1,0.583618,2.140894,-0.690339,0.149484,0.235687,0.258816
"2019-10-15 11:04:04.450 +0000",1571137444.449856,1.954348,-1.307246,-1.761357,0.241582,0.965471,0.097487,0.000000,0.000000,0.000000,-1,0.469476,2.972678,-0.409054,0.459406,0.521463,0.063290
"2019-10-15 11:04:04.470 +0000",1571137444.469954,1.975708,-1.307838,-1.791578,0.238919,0.965625,0.102399,0.000000,0.000000,0.000000,-1,0.371255,2.300842,0.384001,0.828997,0.139519,-0.305071
"2019-10-15 11:04:04.490 +0000",1571137444.490051,1.979303,-1.298949,-1.823031,0.246417,0.963277,0.106663,0.000000,0.000000,0.000000,-1,0.198514,1.630093,0.584691,0.156765,-0.174279,-0.236459
"2019-10-15 11:04:04.510 +0000",1571137444.510150,1.982544,-1.294522,-1.854059,0.249976,0.962078,0.109167,0.000000,0.000000,0.000000,-1,0.338881,1.651818,0.281610,-0.226005,-0.293076,-0.310084
"2019-10-15 11:04:04.530 +0000",1571137444.530247,1.981877,-1.293880,-1.889078,0.250615,0.961903,0.109247,0.000000,0.000000,0.000000,-1,0.455191,1.624066,0.216762,-0.121999,-0.288048,-0.352172
"2019-10-15 11:04:04.550 +0000",1571137444.550344,1.963696,-1.294401,-1.939203,0.252097,0.962045,0.104481,0.000000,0.000000,0.000000,-1,0.709982,1.468303,0.220542,0.031716,-0.064649,-0.376351
"2019-10-15 11:04:04.570 +0000",1571137444.570442,1.927194,-1.298469,-2.009395,0.252071,0.963148,0.093845,0.000000,0.000000,0.000000,-1,1.048761,1.611020,0.102397,0.025637,0.096450,-0.285378
"2019-10-15 11:04:04.591 +0000",1571137444.590540,1.881957,-1.308284,-2.092812,0.247045,0.965741,0.079452,0.000000,0.000000,0.000000,-1,1.214571,1.862492,-0.202864,-0.018683,0.153563,-0.120533
"2019-10-15 11:04:04.611 +0000",1571137444.610637,1.836404,-1.320641,-2.178406,0.238874,0.968874,0.064982,0.000000,0.000000,0.000000,-1,1.142626,1.563192,-0.298524,0.070863,0.012323,-0.116576
"2019-10-15 11:04:04.631 +0000",1571137444.630735,1.785987,-1.328896,-2.265573,0.234023,0.970884,0.051152,0.000000,0.000000,0.000000,-1,1.113592,1.644007,-0.087183,0.101608,-0.132311,-0.134591
"2019-10-15 11:04:04.651 +0000",1571137444.650834,1.725000,-1.332373,-2.358917,0.233369,0.971711,0.036274,0.000000,0.000000,0.000000,-1,1.126703,1.445432,0.061351,0.018736,-0.074056,-0.168115
"2019-10-15 11:04:04.671 +0000",1571137444.670930,1.659036,-1.335120,-2.456873,0.232592,0.972357,0.020577,0.000000,0.000000,0.000000,-1,1.155475,1.466042,-0.028600,-0.092319,0.066350,-0.074583
"2019-10-15 11:04:04.691 +0000",1571137444.691029,1.596713,-1.338723,-2.549851,0.229918,0.973192,0.005960,0.000000,0.000000,0.000000,-1,1.050414,1.393506,-0.142926,-0.109360,0.078043,0.013673
"2019-10-15 11:04:04.711 +0000",1571137444.711126,1.543626,-1.342858,-2.631903,0.225887,0.974134,-0.006139,0.000000,0.000000,0.000000,-1,0.908085,1.398207,-0.224854,-0.110318,0.039579,0.115296
"2019-10-15 11:04:04.731 +0000",1571137444.731223,1.500556,-1.345890,-2.703892,0.222466,0.974815,-0.015652,0.000000,0.000000,0.000000,-1,0.761920,1.328961,-0.168908,-0.043100,-0.031552,0.117103
"2019-10-15 11:04:04.751 +0000",1571137444.751321,1.461670,-1.346294,-2.769583,0.221297,0.974905,-0.024246,0.000000,0.000000,0.000000,-1,0.712588,1.225563,-0.057071,-0.081665,-0.101558,0.116725
"2019-10-15 11:04:04.771 +0000",1571137444.771419,1.426222,-1.344109,-2.829099,0.222406,0.974416,-0.032380,0.000000,0.000000,0.000000,-1,0.663819,1.125392,0.040922,-0.170222,-0.133631,0.144207
"2019-10-15 11:04:04.792 +0000",1571137444.791516,1.398761,-1.339330,-2.877325,0.226018,0.973331,-0.039271,0.000000,0.000000,0.000000,-1,0.535270,0.887722,0.202856,-0.168357,-0.108040,0.206183
"2019-10-15 11:04:04.812 +0000",1571137444.811614,1.381606,-1.331938,-2.911612,0.232372,0.971609,-0.044495,0.000000,0.000000,0.000000,-1,0.417389,0.718517,0.325260,-0.266828,-0.059733,0.266750
"2019-10-15 11:04:04.832 +0000",1571137444.831712,1.372659,-1.323972,-2.932077,0.239546,0.969693,-0.048094,0.000000,0.000000,0.000000,-1,0.291890,0.485184,0.347551,-0.335937,-0.019701,0.210977
"2019-10-15 11:04:04.852 +0000",1571137444.851810,1.372451,-1.314269,-2.937214,0.248748,0.967277,-0.049995,0.000000,0.000000,0.000000,-1,0.121946,0.208635,0.509112,-0.193848,-0.021817,0.207461
"2019-10-15 11:04:04.872 +0000",1571137444.871907,1.379859,-1.302515,-2.932184,0.260257,0.964228,-0.050306,0.000000,0.000000,0.000000,-1,0.045468,0.132349,0.600967,-0.187978,0.130067,0.195061
"2019-10-15 11:04:04.892 +0000",1571137444.892005,1.376060,-1.293306,-2.940269,0.268766,0.961746,-0.053010,0.000000,0.000000,0.000000,-1,0.246884,0.217279,0.354452,-0.347136,0.198955,0.278714
"2019-10-15 11:04:04.912 +0000",1571137444.912102,1.358613,-1.289459,-2.963648,0.271414,0.960685,-0.058470,0.000000,0.000000,0.000000,-1,0.378647,0.238793,0.058944,-0.324577,0.235767,0.248391
"2019-10-15 11:04:04.932 +0000",1571137444.932200,1.330085,-1.286564,-2.994339,0.272335,0.959877,-0.066850,0.000000,0.000000,0.000000,-1,0.475542,-0.030464,0.062591,-0.235624,0.154452,0.113446
"2019-10-15 11:04:04.952 +0000",1571137444.952299,1.294518,-1.283493,-3.026219,0.272621,0.959011,-0.077296,0.000000,0.000000,0.000000,-1,0.444729,-0.346915,0.008529,-0.175531,0.298521,0.105230
"2019-10-15 11:04:04.972 +0000",1571137444.972395,1.257082,-1.285629,-3.058254,0.267588,0.959615,-0.086813,0.000000,0.000000,0.000000,-1,0.382830,-0.307654,-0.316418,-0.048595,0.287436,0.155564
"2019-10-15 11:04:04.992 +0000",1571137444.992493,1.222489,-1.294084,-3.088879,0.256790,0.961959,-0.093244,0.000000,0.000000,0.000000,-1,0.213543,-0.230674,-0.611180,-0.053422,0.240155,-0.015632
"2019-10-15 11:04:05.013 +0000",1571137445.012591,1.202563,-1.311523,-3.105758,0.239192,0.966577,-0.092288,0.000000,0.000000,0.000000,-1,-0.207437,-0.192438,-0.981812,-0.055478,0.100130,-0.105989
"2019-10-15 11:04:05.033 +0000",1571137445.032689,1.220230,-1.339271,-3.082118,0.215506,0.973318,-0.078804,0.000000,0.000000,0.000000,-1,-0.957033,-0.279234,-1.255010,0.152977,0.111578,-0.136898
"2019-10-15 11:04:05.053 +0000",1571137445.052787,1.302981,-1.373084,-2.995513,0.189424,0.980518,-0.051979,0.000000,0.000000,0.000000,-1,-1.501979,0.006918,-1.321051,0.552335,0.203956,-0.078274
"2019-10-15 11:04:05.073 +0000",1571137445.072885,1.449982,-1.403011,-2.855206,0.165782,0.985957,-0.020127,0.000000,0.000000,0.000000,-1,-1.505728,0.619069,-1.172202,0.683430,0.228043,-0.079701
"2019-10-15 11:04:05.093 +0000",1571137445.092981,1.631966,-1.424286,-2.692958,0.145713,0.989287,0.008924,0.000000,0.000000,0.000000,-1,-1.238924,1.199315,-0.932534,0.526070,0.223462,-0.132449
"2019-10-15 11:04:05.113 +0000",1571137445.113079,1.848292,-1.435078,-2.500479,0.130126,0.990804,0.037066,0.000000,0.000000,0.000000,-1,-1.250052,1.299259,-0.713483,0.280442,0.281301,-0.118827
"2019-10-15 11:04:05.133 +0000",1571137445.133177,2.100839,-1.435370,-2.268582,0.116487,0.990844,0.068258,0.000000,0.000000,0.000000,-1,-1.491184,1.022452,-0.592899,0.179106,0.299008,-0.167812
"2019-10-15 11:04:05.153 +0000",1571137445.153275,2.319472,-1.422467,-2.062234,0.108267,0.989019,0.100594,0.000000,0.000000,0.000000,-1,-1.549491,0.609112,-0.267743,0.233011,0.078298,-0.181028
"2019-10-15 11:04:05.173 +0000",1571137445.173372,2.462027,-1.400860,-1.926574,0.106285,0.985596,0.131550,0.000000,0.000000,0.000000,-1,-1.504712,0.347394,-0.002887,0.108070,-0.081349,-0.156610
"2019-10-15 11:04:05.193 +0000",1571137445.193470,2.554450,-1.377141,-1.833274,0.106613,0.981307,0.160218,0.000000,0.000000,0.000000,-1,-1.421038,-0.067841,0.028415,-0.005845,-0.142536,-0.169699
"2019-10-15 11:04:05.214 +0000",1571137445.213568,2.612371,-1.352990,-1.769644,0.109094,0.976374,0.186527,0.000000,0.000000,0.000000,-1,-1.339189,-0.249858,0.112014,0.037252,-0.253357,-0.105067
"2019-10-15 11:04:05.234 +0000",1571137445.233665,2.644007,-1.330044,-1.731411,0.113805,0.971159,0.209519,0.000000,0.000000,0.000000,-1,-1.153870,-0.287121,0.205616,0.047007,-0.384174,-0.148674
"2019-10-15 11:04:05.254 +0000",1571137445.253763,2.652793,-1.311157,-1.714844,0.120553,0.966483,0.226669,0.000000,0.000000,0.000000,-1,-0.835557,-0.394203,0.278232,-0.002176,-0.452815,-0.222707
"2019-10-15 11:04:05.274 +0000",1571137445.273860,2.642093,-1.298498,-1.715905,0.128822,0.963155,0.236087,0.000000,0.000000,0.000000,-1,-0.457425,-0.510504,0.319798,-0.035698,-0.479258,-0.218912
"2019-10-15 11:04:05.294 +0000",1571137445.293958,2.618829,-1.290711,-1.727255,0.138019,0.961032,0.239518,0.000000,0.000000,0.000000,-1,-0.208545,-0.647283,0.325020,-0.017063,-0.460136,-0.123709
"2019-10-15 11:04:05.314 +0000",1571137445.314055,2.592295,-1.286438,-1.742565,0.146468,0.959842,0.239272,0.000000,0.000000,0.000000,-1,-0.025775,-0.536042,0.272804,-0.056121,-0.425194,-0.001240
"2019-10-15 11:04:05.334 +0000",1571137445.334154,2.565462,-1.289195,-1.763494,0.151392,0.960612,0.233036,0.000000,0.000000,0.000000,-1,0.380151,-0.289588,0.142634,-0.056193,-0.423980,-0.059366
"2019-10-15 11:04:05.354 +0000",1571137445.354252,2.527722,-1.298757,-1.797735,0.154778,0.963225,0.219639,0.000000,0.000000,0.000000,-1,0.731905,-0.232662,0.118903,0.034689,-0.406345,-0.042643
"2019-10-15 11:04:05.374 +0000",1571137445.374349,2.475571,-1.310879,-1.846907,0.158791,0.966411,0.202076,0.000000,0.000000,0.000000,-1,0.908195,-0.234948,0.168101,-0.006601,-0.301407,0.072347
"2019-10-15 11:04:05.394 +0000",1571137445.394446,2.423591,-1.320484,-1.897942,0.162962,0.968835,0.186554,0.000000,0.000000,0.000000,-1,0.675121,-0.085208,0.198281,0.038987,-0.017302,0.286234
"2019-10-15 11:04:05.415 +0000",1571137445.414545,2.402212,-1.320669,-1.921644,0.166791,0.968881,0.182894,0.000000,0.000000,0.000000,-1,0.042656,0.171033,0.209415,0.087420,0.247606,0.330802
"2019-10-15 11:04:05.435 +0000",1571137445.434642,2.415168,-1.318180,-1.915202,0.166009,0.968262,0.186842,0.000000,0.000000,0.000000,-1,-0.171758,0.332074,-0.060227,-0.034708,0.502147,-0.011128
"2019-10-15 11:04:05.455 +0000",1571137445.454740,2.434769,-1.318214,-1.898684,0.162294,0.968270,0.190035,0.000000,0.000000,0.000000,-1,-0.125203,0.129448,-0.152778,0.096281,0.489763,0.395912
"2019-10-15 11:04:05.475 +0000",1571137445.474837,2.446063,-1.318277,-1.887529,0.160098,0.968286,0.191809,0.000000,0.000000,0.000000,-1,-0.071409,-0.000655,-0.108880,-0.133320,0.277254,0.560337
"2019-10-15 11:04:05.495 +0000",1571137445.494934,2.462038,-1.312921,-1.870268,0.160270,0.966934,0.198373,0.000000,0.000000,0.000000,-1,-0.466384,-0.100792,0.076385,-0.073952,0.166621,0.602494
"2019-10-15 11:04:05.515 +0000",1571137445.515032,2.463770,-1.299629,-1.862910,0.167972,0.963459,0.208644,0.000000,0.000000,0.000000,-1,-0.562450,-0.299442,0.413022,0.105099,0.321403,0.279784
"2019-10-15 11:04:05.535 +0000",1571137445.535131,2.459354,-1.285110,-1.865512,0.177694,0.959468,0.218735,0.000000,0.000000,0.000000,-1,-0.548844,0.002139,0.498445,0.169595,0.244872,0.266412
"2019-10-15 11:04:05.555 +0000",1571137445.555227,2.459341,-1.270948,-1.872232,0.186247,0.955381,0.229257,0.000000,0.000000,0.000000,-1,-0.438195,0.421176,0.530127,0.160585,0.368909,-0.109146
"2019-10-15 11:04:05.575 +0000",1571137445.575325,2.473698,-1.258092,-1.876911,0.190528,0.951505,0.241531,0.000000,0.000000,0.000000,-1,-0.477257,1.115310,0.419133,0.378929,0.570386,-0.253332
"2019-10-15 11:04:05.595 +0000",1571137445.595424,2.483122,-1.254052,-1.886671,0.190593,0.950255,0.246354,0.000000,0.000000,0.000000,-1,0.101842,0.818754,0.146599,0.281101,0.224240,-0.522163
"2019-10-15 11:04:05.616 +0000",1571137445.615521,2.480758,-1.255573,-1.901121,0.190288,0.950727,0.244762,0.000000,0.000000,0.000000,-1,0.208421,0.471759,0.126227,-0.183148,-0.698016,-0.330553
"2019-10-15 11:04:05.636 +0000",1571137445.635619,2.474243,-1.254175,-1.910320,0.192701,0.950293,0.244561,0.000000,0.000000,0.000000,-1,-0.042370,-0.000768,0.172236,-0.119537,-0.558544,-0.328322
"2019-10-15 11:04:05.656 +0000",1571137445.655716,2.457331,-1.250596,-1.924824,0.198959,0.949172,0.243901,0.000000,0.000000,0.000000,-1,0.061542,-0.189353,0.332789,0.017181,-0.048329,-0.519741
"2019-10-15 11:04:05.676 +0000",1571137445.675813,2.413431,-1.257851,-1.962108,0.204882,0.951431,0.229788,0.000000,0.000000,0.000000,-1,0.878524,-0.521830,0.131801,-0.055820,0.191157,-0.783765
"2019-10-15 11:04:05.696 +0000",1571137445.695911,2.353561,-1.278323,-2.012622,0.204411,0.957534,0.203337,0.000000,0.000000,0.000000,-1,1.321991,-0.547683,-0.248778,0.026622,-0.000111,-0.265798
"2019-10-15 11:04:05.716 +0000",1571137445.716008,2.307089,-1.301087,-2.056430,0.197431,0.963848,0.178935,0.000000,0.000000,0.000000,-1,1.161902,-0.121977,-0.428118,0.173356,-0.115953,0.072997
"2019-10-15 11:04:05.736 +0000",1571137445.736106,2.264538,-1.319673,-2.102605,0.191055,0.968634,0.158890,0.000000,0.000000,0.000000,-1,1.031221,0.164002,-0.253449,0.244643,-0.246593,0.008843
"2019-10-15 11:04:05.756 +0000",1571137445.756204,2.202724,-1.335363,-2.172831,0.188219,0.972413,0.137790,0.000000,0.000000,0.000000,-1,1.195234,0.366300,-0.039315,0.182370,-0.239097,-0.138147
"2019-10-15 11:04:05.776 +0000",1571137445.776301,2.112535,-1.348908,-2.273908,0.188560,0.975484,0.113475,0.000000,0.000000,0.000000,-1,1.347855,0.412843,0.101809,0.073508,-0.160807,-0.167375
"2019-10-15 11:04:05.796 +0000",1571137445.796399,2.003742,-1.358667,-2.392956,0.191115,0.977585,0.088332,0.000000,0.000000,0.000000,-1,1.345948,0.348691,0.206464,0.010193,-0.091726,-0.119832
"2019-10-15 11:04:05.816 +0000",1571137445.816497,1.889908,-1.365893,-2.519912,0.193200,0.979081,0.063834,0.000000,0.000000,0.000000,-1,1.330895,0.566895,0.134362,-0.067316,-0.135382,-0.006650
"2019-10-15 11:04:05.837 +0000",1571137445.836594,1.784376,-1.369065,-2.640948,0.195814,0.979721,0.042470,0.000000,0.000000,0.000000,-1,1.192880,0.716260,0.169530,-0.038909,-0.192220,0.094015
"2019-10-15 11:04:05.857 +0000",1571137445.856692,1.685749,-1.367506,-2.754874,0.200560,0.979408,0.023157,0.000000,0.000000,0.000000,-1,1.091967,0.610609,0.287360,-0.080474,-0.178159,0.030213
"2019-10-15 11:04:05.877 +0000",1571137445.876789,1.592473,-1.362288,-2.861790,0.206952,0.978341,0.004487,0.000000,0.000000,0.000000,-1,1.056532,0.561509,0.333938,-0.197599,-0.129927,0.001077
"2019-10-15 11:04:05.897 +0000",1571137445.896888,1.516321,-1.354244,-2.947939,0.214545,0.976644,-0.011699,0.000000,0.000000,0.000000,-1,0.870386,0.441190,0.414477,-0.127449,-0.072917,0.066259
"2019-10-15 11:04:05.917 +0000",1571137445.916986,1.470622,-1.342650,-3.002474,0.225038,0.974087,-0.022619,0.000000,0.000000,0.000000,-1,0.558192,0.348219,0.564912,-0.046160,-0.025133,0.214478
"2019-10-15 11:04:05.937 +0000",1571137445.937082,1.451044,-1.328796,-3.030629,0.237928,0.970861,-0.028629,0.000000,0.000000,0.000000,-1,0.343287,0.335277,0.659800,-0.069244,-0.048564,0.234862
"2019-10-15 11:04:05.957 +0000",1571137445.957181,1.446549,-1.314197,-3.046125,0.251836,0.967259,-0.031452,0.000000,0.000000,0.000000,-1,0.256501,0.545207,0.701347,-0.054709,-0.083673,0.139555
"2019-10-15 11:04:05.977 +0000",1571137445.977278,1.445847,-1.302053,-3.059226,0.263451,0.964105,-0.033090,0.000000,0.000000,0.000000,-1,0.246569,0.596044,0.520349,-0.244547,0.083665,0.128712
"2019-10-15 11:04:05.997 +0000",1571137445.997375,1.432377,-1.296555,-3.082204,0.268227,0.962631,-0.037367,0.000000,0.000000,0.000000,-1,0.373115,0.355893,0.125701,-0.415537,0.221630,0.070397
"2019-10-15 11:04:06.017 +0000",1571137446.017473,1.404059,-1.297490,-3.114562,0.266173,0.962884,-0.044797,0.000000,0.000000,0.000000,-1,0.439810,0.061847,-0.170175,-0.381531,0.263964,0.102913
"2019-10-15 11:04:06.038 +0000",1571137446.037571,1.364022,-1.297472,3.128697,0.264184,0.962879,-0.055419,0.000000,0.000000,0.000000,-1,0.563792,-0.149628,-0.046355,-0.182139,0.184089,0.179636
"2019-10-15 11:04:06.058 +0000",1571137446.057669,1.312007,-1.296825,3.080324,0.261547,0.962704,-0.069238,0.000000,0.000000,0.000000,-1,0.637944,-0.343170,-0.164719,-0.222151,0.387053,0.212010
"2019-10-15 11:04:06.078 +0000",1571137446.077766,1.252295,-1.301863,3.026862,0.252340,0.964055,-0.083203,0.000000,0.000000,0.000000,-1,0.609795,-0.442542,-0.522327,-0.264457,0.450445,0.115959
"2019-10-15 11:04:06.098 +0000",1571137446.097863,1.195568,-1.311093,2.981324,0.238928,0.966466,-0.094111,0.000000,0.000000,0.000000,-1,0.298108,-0.686015,-0.660983,-0.109565,0.368429,0.059835
"2019-10-15 11:04:06.118 +0000",1571137446.117962,1.167056,-1.327646,2.967176,0.221404,0.970584,-0.094586,0.000000,0.000000,0.000000,-1,-0.287977,-0.761041,-0.880795,0.155685,0.226279,-0.020516
"2019-10-15 11:04:06.138 +0000",1571137446.138059,1.176269,-1.351104,2.991422,0.201188,0.975965,-0.083766,0.000000,0.000000,0.000000,-1,-0.863626,-0.689604,-0.989057,0.295729,0.076032,-0.188975
"2019-10-15 11:04:06.158 +0000",1571137446.158156,1.248571,-1.380632,3.073259,0.179292,0.981973,-0.059859,0.000000,0.000000,0.000000,-1,-1.430764,-0.251259,-1.101835,0.520063,0.240449,-0.058448
"2019-10-15 11:04:06.178 +0000",1571137446.178254,1.391588,-1.408664,-3.068717,0.158837,0.986885,-0.028773,0.000000,0.000000,0.000000,-1,-1.531087,0.352231,-1.014106,0.671393,0.343080,-0.133631
"2019-10-15 11:04:06.198 +0000",1571137446.198352,1.574938,-1.429725,-2.898754,0.140603,0.990066,0.000582,0.000000,0.000000,0.000000,-1,-1.301574,0.867115,-0.895588,0.569662,0.282039,-0.171852
"2019-10-15 11:04:06.218 +0000",1571137446.218449,1.799687,-1.440813,-2.693598,0.126236,0.991564,0.029410,0.000000,0.000000,0.000000,-1,-1.333029,1.119116,-0.638100,0.458602,0.216164,-0.064892
"2019-10-15 11:04:06.239 +0000",1571137446.238547,2.051499,-1.439156,-2.460394,0.116386,0.991348,0.060696,0.000000,0.000000,0.000000,-1,-1.476093,0.964049,-0.387518,0.334343,0.224300,-0.163698
"2019-10-15 11:04:06.259 +0000",1571137446.258644,2.260242,-1.426220,-2.263861,0.111166,0.989567,0.091646,0.000000,0.000000,0.000000,-1,-1.462073,0.611778,-0.151330,0.209741,-0.027216,-0.222496
"2019-10-15 11:04:06.279 +0000",1571137446.278742,2.399114,-1.407214,-2.130356,0.110108,0.986650,0.119990,0.000000,0.000000,0.000000,-1,-1.364705,0.241434,0.011173,0.039290,-0.213340,-0.215912
"2019-10-15 11:04:06.299 +0000",1571137446.298840,2.487265,-1.385759,-2.041464,0.111977,0.982929,0.145982,0.000000,0.000000,0.000000,-1,-1.299775,-0.068178,0.107330,-0.035363,-0.284448,-0.173911
"2019-10-15 11:04:06.319 +0000",1571137446.318938,2.542088,-1.363417,-1.981062,0.116173,0.978574,0.169990,0.000000,0.000000,0.000000,-1,-1.215991,-0.235237,0.199295,0.006721,-0.346926,-0.096159
"2019-10-15 11:04:06.339 +0000",1571137446.339035,2.571361,-1.343487,-1.947300,0.121654,0.974276,0.189701,0.000000,0.000000,0.000000,-1,-0.954327,-0.158752,0.252667,0.056583,-0.447548,-0.127481
"2019-10-15 11:04:06.359 +0000",1571137446.359133,2.578609,-1.329451,-1.937604,0.127562,0.971017,0.202122,0.000000,0.000000,0.000000,-1,-0.545798,-0.098088,0.288710,0.054719,-0.524047,-0.207362
"2019-10-15 11:04:06.379 +0000",1571137446.379230,2.565639,-1.321723,-1.948680,0.134256,0.969141,0.206738,0.000000,0.000000,0.000000,-1,-0.166217,-0.131395,0.325520,-0.023387,-0.561584,-0.214908
"2019-10-15 11:04:06.399 +0000",1571137446.399328,2.534172,-1.318707,-1.975265,0.142361,0.968393,0.204811,0.000000,0.000000,0.000000,-1,0.131922,-0.333027,0.367384,-0.063261,-0.544540,-0.156386
"2019-10-15 11:04:06.419 +0000",1571137446.419425,2.486177,-1.319645,-2.015989,0.151470,0.968627,0.197025,0.000000,0.000000,0.000000,-1,0.397650,-0.452954,0.373614,-0.038571,-0.473439,-0.045664
"2019-10-15 11:04:06.440 +0000",1571137446.439524,2.430837,-1.323121,-2.063388,0.159938,0.969485,0.185792,0.000000,0.000000,0.000000,-1,0.518531,-0.464368,0.326774,-0.011913,-0.369164,0.126869
"2019-10-15 11:04:06.460 +0000",1571137446.459621,2.383803,-1.325893,-2.104980,0.166648,0.970161,0.176114,0.000000,0.000000,0.000000,-1,0.396334,-0.266443,0.256693,0.003181,-0.246381,0.253536
"2019-10-15 11:04:06.480 +0000",1571137446.479719,2.355176,-1.326943,-2.132665,0.170900,0.970415,0.170552,0.000000,0.000000,0.000000,-1,0.237798,-0.039759,0.183931,0.009000,-0.080482,0.228733
"2019-10-15 11:04:06.500 +0000",1571137446.499815,2.340708,-1.326663,-2.147877,0.173544,0.970347,0.168251,0.000000,0.000000,0.000000,-1,0.087215,0.011714,0.115699,0.046166,0.177368,0.218278
"2019-10-15 11:04:06.520 +0000",1571137446.519914,2.350503,-1.325151,-2.140946,0.172932,0.969981,0.170975,0.000000,0.000000,0.000000,-1,-0.194435,0.275675,-0.053001,-0.015996,0.415528,0.293390
"2019-10-15 11:04:06.540 +0000",1571137446.540012,2.398370,-1.321203,-2.099401,0.167143,0.969013,0.181872,0.000000,0.000000,0.000000,-1,-0.571711,0.390397,-0.292167,-0.000060,0.621970,0.394401
"2019-10-15 11:04:06.560 +0000",1571137446.560108,2.443076,-1.315857,-2.057254,0.162177,0.967679,0.193124,0.000000,0.000000,0.000000,-1,-0.506807,0.122081,-0.159658,0.179192,0.380659,0.547898
"2019-10-15 11:04:06.580 +0000",1571137446.580207,2.461535,-1.308974,-2.037042,0.162769,0.965920,0.201259,0.000000,0.000000,0.000000,-1,-0.449204,-0.131405,0.062947,-0.054860,0.077486,0.530455
"2019-10-15 11:04:06.600 +0000",1571137446.600304,2.464353,-1.298754,-2.032636,0.168379,0.963224,0.209399,0.000000,0.000000,0.000000,-1,-0.412473,-0.024397,0.340294,0.157548,0.134488,0.277884
"2019-10-15 11:04:06.620 +0000",1571137446.620402,2.463544,-1.285182,-2.037428,0.176733,0.959489,0.219424,0.000000,0.000000,0.000000,-1,-0.537758,0.246190,0.514511,0.329706,0.349329,0.237601
"2019-10-15 11:04:06.640 +0000",1571137446.640500,2.468198,-1.264070,-2.043838,0.188302,0.953327,0.236028,0.000000,0.000000,0.000000,-1,-0.797561,0.679770,0.816589,0.314184,0.313559,-0.043347
"2019-10-15 11:04:06.661 +0000",1571137446.660597,2.471561,-1.242870,-2.060103,0.200016,0.946712,0.252448,0.000000,0.000000,0.000000,-1,-0.613418,0.986880,0.831892,0.362834,0.377365,-0.495969
"2019-10-15 11:04:06.681 +0000",1571137446.680695,2.469116,-1.231163,-2.081894,0.207522,0.942877,0.260610,0.000000,0.000000,0.000000,-1,-0.106200,0.806297,0.566410,0.293606,0.102788,-0.487133
"2019-10-15 11:04:06.701 +0000",1571137446.700792,2.458201,-1.228231,-2.105280,0.212099,0.941896,0.260472,0.000000,0.000000,0.000000,-1,0.226696,0.476806,0.319171,-0.131350,-0.366492,-0.415020
"2019-10-15 11:04:06.721 +0000",1571137446.720891,2.449156,-1.232650,-2.125866,0.211787,0.943371,0.255337,0.000000,0.000000,0.000000,-1,0.435672,0.536421,0.078019,-0.178600,-0.200837,-0.328189
"2019-10-15 11:04:06.741 +0000",1571137446.740989,2.431307,-1.241206,-2.154262,0.211040,0.946175,0.245387,0.000000,0.000000,0.000000,-1,0.705428,0.374319,0.081965,-0.060803,0.071765,-0.510652
"2019-10-15 11:04:06.761 +0000",1571137446.761086,2.381772,-1.255989,-2.204129,0.213273,0.950856,0.224472,0.000000,0.000000,0.000000,-1,1.200081,-0.283246,0.083527,-0.005647,0.168524,-0.581778
"2019-10-15 11:04:06.781 +0000",1571137446.781183,2.311108,-1.276865,-2.269954,0.213886,0.957112,0.195420,0.000000,0.000000,0.000000,-1,1.471406,-0.369954,-0.115171,-0.060033,0.084936,-0.211859
"2019-10-15 11:04:06.801 +0000",1571137446.801281,2.241941,-1.298493,-2.339844,0.210618,0.963154,0.167256,0.000000,0.000000,0.000000,-1,1.415131,0.003266,-0.197954,0.068052,-0.023172,-0.023570
"2019-10-15 11:04:06.821 +0000",1571137446.821379,2.167512,-1.317362,-2.419730,0.207400,0.968057,0.140892,0.000000,0.000000,0.000000,-1,1.383526,0.161017,-0.122761,0.144986,-0.153930,-0.139128
"2019-10-15 11:04:06.841 +0000",1571137446.841476,2.075808,-1.333305,-2.518278,0.205897,0.971931,0.113825,0.000000,0.000000,0.000000,-1,1.444097,0.213042,-0.034497,0.061268,-0.252622,-0.171021
"2019-10-15 11:04:06.862 +0000",1571137446.861574,1.969987,-1.344937,-2.632999,0.206336,0.974602,0.087041,0.000000,0.000000,0.000000,-1,1.410374,0.323391,0.073314,-0.005486,-0.260709,-0.129466
"2019-10-15 11:04:06.882 +0000",1571137446.881672,1.860012,-1.350508,-2.752798,0.209436,0.975834,0.062320,0.000000,0.000000,0.000000,-1,1.306310,0.349611,0.218939,0.059193,-0.213541,-0.102913
"2019-10-15 11:04:06.902 +0000",1571137446.901769,1.757105,-1.349667,-2.868392,0.215536,0.975650,0.040627,0.000000,0.000000,0.000000,-1,1.172669,0.554096,0.366616,0.086922,-0.255379,0.022020
"2019-10-15 11:04:06.922 +0000",1571137446.921867,1.672316,-1.343523,-2.969966,0.224161,0.974284,0.022835,0.000000,0.000000,0.000000,-1,1.038670,0.751082,0.494799,0.035954,-0.253174,0.013949
"2019-10-15 11:04:06.942 +0000",1571137446.941964,1.596489,-1.333502,-3.062843,0.234996,0.971978,0.006039,0.000000,0.000000,0.000000,-1,1.026956,0.710612,0.574635,-0.066174,-0.244412,-0.044481
"2019-10-15 11:04:06.962 +0000",1571137446.962062,1.532359,-1.321037,3.141571,0.246988,0.968972,-0.009498,0.000000,0.000000,0.000000,-1,0.911165,0.575788,0.629706,-0.159755,-0.230497,0.010806
"2019-10-15 11:04:06.982 +0000",1571137446.982160,1.497179,-1.307076,3.094388,0.259968,0.965427,-0.019173,0.000000,0.000000,0.000000,-1,0.514249,0.468221,0.659040,-0.180898,-0.126351,0.173023
"2019-10-15 11:04:07.002 +0000",1571137447.002257,1.486881,-1.292147,3.073821,0.274089,0.961428,-0.023054,0.000000,0.000000,0.000000,-1,0.279952,0.445675,0.742456,-0.119336,-0.030494,0.145441
"2019-10-15 11:04:07.022 +0000",1571137447.022355,1.486134,-1.276730,3.061884,0.288808,0.957073,-0.024510,0.000000,0.000000,0.000000,-1,0.187084,0.513909,0.723359,-0.189475,0.021103,0.113800
"2019-10-15 11:04:07.042 +0000",1571137447.042453,1.491120,-1.263942,3.055476,0.301103,0.953289,-0.024042,0.000000,0.000000,0.000000,-1,0.116467,0.488701,0.588251,-0.198504,0.111587,0.131276
"2019-10-15 11:04:07.063 +0000",1571137447.062550,1.489418,-1.256291,3.047234,0.308322,0.950950,-0.025146,0.000000,0.000000,0.000000,-1,0.169715,0.241243,0.274899,-0.373555,0.281269,0.093440
"2019-10-15 11:04:07.083 +0000",1571137447.082648,1.478570,-1.255458,3.034193,0.308820,0.950692,-0.028562,0.000000,0.000000,0.000000,-1,0.221197,0.022813,-0.043606,-0.419310,0.273883,0.133859
"2019-10-15 11:04:07.103 +0000",1571137447.102745,1.458171,-1.255248,3.016875,0.308371,0.950626,-0.034878,0.000000,0.000000,0.000000,-1,0.294300,-0.264450,0.007452,-0.308327,0.163215,0.148735
"2019-10-15 11:04:07.123 +0000",1571137447.122843,1.420592,-1.256849,2.987908,0.305338,0.951122,-0.046211,0.000000,0.000000,0.000000,-1,0.466749,-0.601175,-0.223135,-0.334972,0.270034,0.150577
"2019-10-15 11:04:07.143 +0000",1571137447.142940,1.377392,-1.266545,2.956857,0.293994,0.954071,-0.057579,0.000000,0.000000,0.000000,-1,0.347586,-0.717618,-0.653258,-0.263539,0.307003,0.115834
"2019-10-15 11:04:07.163 +0000",1571137447.163038,1.336292,-1.282193,2.933105,0.276823,0.958642,-0.066133,0.000000,0.000000,0.000000,-1,0.095289,-0.982147,-0.890294,-0.112045,0.102099,-0.026446
"2019-10-15 11:04:07.183 +0000",1571137447.183136,1.324302,-1.304102,2.943149,0.255578,0.964647,-0.064306,0.000000,0.000000,0.000000,-1,-0.559300,-1.113320,-1.059157,0.149954,0.132822,-0.064085
"2019-10-15 11:04:07.203 +0000",1571137447.203233,1.351964,-1.329639,2.991497,0.233131,0.971062,-0.051847,0.000000,0.000000,0.000000,-1,-0.987564,-0.869447,-1.099301,0.247978,0.213000,-0.201194
"2019-10-15 11:04:07.223 +0000",1571137447.223331,1.432995,-1.357020,3.086265,0.210141,0.977237,-0.029142,0.000000,0.000000,0.000000,-1,-1.369827,-0.445161,-1.170741,0.381380,0.450753,-0.244757
"2019-10-15 11:04:07.243 +0000",1571137447.243428,1.559056,-1.381725,-3.067475,0.187935,0.982179,-0.002207,0.000000,0.000000,0.000000,-1,-1.365788,0.098367,-1.093756,0.548057,0.472376,-0.213862
"2019-10-15 11:04:07.264 +0000",1571137447.263526,1.716508,-1.399489,-2.916995,0.168664,0.985363,0.024752,0.000000,0.000000,0.000000,-1,-1.268196,0.593277,-0.928858,0.570593,0.374023,-0.109290
"2019-10-15 11:04:07.284 +0000",1571137447.283623,1.904094,-1.406921,-2.743150,0.154165,0.986603,0.053374,0.000000,0.000000,0.000000,-1,-1.329858,0.842577,-0.612340,0.515298,0.342724,-0.098392
"2019-10-15 11:04:07.304 +0000",1571137447.303721,2.082355,-1.402768,-2.576518,0.145829,0.985916,0.081870,0.000000,0.000000,0.000000,-1,-1.340568,0.625908,-0.313875,0.320875,0.196742,-0.181072
"2019-10-15 11:04:07.324 +0000",1571137447.323819,2.224758,-1.390801,-2.438869,0.142088,0.983845,0.108907,0.000000,0.000000,0.000000,-1,-1.300097,0.261499,-0.108958,0.161378,-0.023095,-0.151499
"2019-10-15 11:04:07.344 +0000",1571137447.343916,2.328045,-1.374691,-2.334236,0.141603,0.980833,0.133847,0.000000,0.000000,0.000000,-1,-1.258196,-0.053309,-0.011846,0.037611,-0.136172,-0.142886
"2019-10-15 11:04:07.364 +0000",1571137447.364014,2.403739,-1.356543,-2.249160,0.143028,0.977135,0.157319,0.000000,0.000000,0.000000,-1,-1.244435,-0.498668,0.022948,-0.061959,-0.202024,-0.149695
"2019-10-15 11:04:07.384 +0000",1571137447.384111,2.451751,-1.338249,-2.183939,0.146667,0.973082,0.177763,0.000000,0.000000,0.000000,-1,-1.131140,-0.849184,0.046367,-0.106446,-0.328479,-0.133411
"2019-10-15 11:04:07.404 +0000",1571137447.404209,2.475491,-1.322237,-2.138607,0.152015,0.969268,0.193421,0.000000,0.000000,0.000000,-1,-0.884165,-1.063327,0.089156,-0.070534,-0.495288,-0.206808
"2019-10-15 11:04:07.424 +0000",1571137447.424307,2.475578,-1.311156,-2.115634,0.158625,0.966482,0.201867,0.000000,0.000000,0.000000,-1,-0.530529,-1.101924,0.104998,-0.041515,-0.583003,-0.236693
"2019-10-15 11:04:07.444 +0000",1571137447.444404,2.463809,-1.305641,-2.106582,0.164329,0.965052,0.204134,0.000000,0.000000,0.000000,-1,-0.211838,-0.993794,0.064803,0.004799,-0.619536,-0.198952
"2019-10-15 11:04:07.465 +0000",1571137447.464501,2.445804,-1.305165,-2.106592,0.168272,0.964927,0.201496,0.000000,0.000000,0.000000,-1,0.034305,-0.857699,-0.009567,0.031449,-0.602947,-0.079538
"2019-10-15 11:04:07.485 +0000",1571137447.484599,2.423183,-1.308955,-2.113949,0.170378,0.965915,0.194883,0.000000,0.000000,0.000000,-1,0.260537,-0.750845,-0.060816,0.024445,-0.525566,0.003995
"2019-10-15 11:04:07.505 +0000",1571137447.504697,2.393557,-1.315111,-2.128418,0.172029,0.967490,0.185389,0.000000,0.000000,0.000000,-1,0.359303,-0.786776,-0.076892,-0.004091,-0.414821,0.101761
"2019-10-15 11:04:07.525 +0000",1571137447.524794,2.368865,-1.320061,-2.139340,0.173208,0.968730,0.177654,0.000000,0.000000,0.000000,-1,0.229708,-0.650228,-0.067721,-0.054373,-0.243240,0.193862
"2019-10-15 11:04:07.545 +0000",1571137447.544892,2.348354,-1.324287,-2.149771,0.173896,0.969770,0.171190,0.000000,0.000000,0.000000,-1,0.267770,-0.483862,-0.065571,-0.098656,-0.053927,0.092629
"2019-10-15 11:04:07.565 +0000",1571137447.564990,2.339240,-1.327480,-2.150303,0.173222,0.970544,0.167445,0.000000,0.000000,0.000000,-1,0.036009,-0.421384,-0.119484,0.012324,0.244097,0.197799
"2019-10-15 11:04:07.585 +0000",1571137447.585087,2.347515,-1.324398,-2.137687,0.173962,0.969797,0.170969,0.000000,0.000000,0.000000,-1,-0.298924,-0.102926,0.049817,0.177080,0.360917,0.246140
"2019-10-15 11:04:07.605 +0000",1571137447.605185,2.367334,-1.316613,-2.117876,0.175814,0.967869,0.179776,0.000000,0.000000,0.000000,-1,-0.492982,0.066429,0.099021,0.071805,0.531837,0.298124
"2019-10-15 11:04:07.625 +0000",1571137447.625282,2.392937,-1.304798,-2.095897,0.178925,0.964831,0.192581,0.000000,0.000000,0.000000,-1,-0.668879,0.272459,0.248575,0.285567,0.424355,0.573084
"2019-10-15 11:04:07.645 +0000",1571137447.645380,2.423503,-1.288065,-2.075802,0.183554,0.960297,0.210089,0.000000,0.000000,0.000000,-1,-0.877078,0.690673,0.383470,0.228860,0.428233,0.566287
"2019-10-15 11:04:07.665 +0000",1571137447.665477,2.470616,-1.264011,-2.048307,0.187766,0.953309,0.236527,0.000000,0.000000,0.000000,-1,-1.284041,1.120138,0.463050,0.284599,0.773599,0.350884
"2019-10-15 11:04:07.686 +0000",1571137447.685575,2.509666,-1.240610,-2.031490,0.191517,0.945982,0.261610,0.000000,0.000000,0.000000,-1,-0.974678,1.200746,0.494438,-0.002873,0.847348,-0.191258
"2019-10-15 11:04:07.706 +0000",1571137447.705674,2.536015,-1.230922,-2.030557,0.189766,0.942797,0.274087,0.000000,0.000000,0.000000,-1,-0.166705,1.151355,0.182597,-0.058602,0.089944,-0.594268
"2019-10-15 11:04:07.726 +0000",1571137447.725770,2.531938,-1.228845,-2.043378,0.192003,0.942102,0.274917,0.000000,0.000000,0.000000,-1,0.000472,0.169112,0.267798,-0.037311,-0.564619,-0.336599
"2019-10-15 11:04:07.746 +0000",1571137447.745868,2.511419,-1.223183,-2.059158,0.200743,0.940188,0.275224,0.000000,0.000000,0.000000,-1,-0.084910,-0.404373,0.396496,-0.020568,-0.475914,-0.401955
"2019-10-15 11:04:07.766 +0000",1571137447.765965,2.479246,-1.221099,-2.084543,0.210697,0.939476,0.270169,0.000000,0.000000,0.000000,-1,0.303162,-0.386725,0.406778,0.059352,-0.026472,-0.570559
"2019-10-15 11:04:07.786 +0000",1571137447.786063,2.428196,-1.229870,-2.131752,0.218807,0.942445,0.252824,0.000000,0.000000,0.000000,-1,1.023379,-0.344124,0.293912,0.037524,0.259851,-0.638161
"2019-10-15 11:04:07.806 +0000",1571137447.806160,2.358833,-1.247890,-2.194767,0.223789,0.948317,0.224973,0.000000,0.000000,0.000000,-1,1.417052,-0.527694,0.077920,-0.012609,0.102123,-0.336720
"2019-10-15 11:04:07.826 +0000",1571137447.826257,2.291223,-1.269511,-2.254456,0.223013,0.954956,0.195766,0.000000,0.000000,0.000000,-1,1.370800,-0.509426,-0.246162,-0.104957,0.018748,-0.094347
"2019-10-15 11:04:07.846 +0000",1571137447.846356,2.224361,-1.291453,-2.314768,0.218904,0.961237,0.167646,0.000000,0.000000,0.000000,-1,1.365265,-0.437210,-0.295372,0.063184,-0.074798,-0.140599
"2019-10-15 11:04:07.866 +0000",1571137447.866453,2.133969,-1.311879,-2.401360,0.216494,0.966668,0.136689,0.000000,0.000000,0.000000,-1,1.558975,-0.291850,-0.156393,0.179715,-0.195891,-0.140297
"2019-10-15 11:04:07.887 +0000",1571137447.886551,2.020997,-1.327995,-2.515550,0.216468,0.970668,0.104619,0.000000,0.000000,0.000000,-1,1.632807,-0.048726,0.025084,0.160942,-0.311066,-0.065807
"2019-10-15 11:04:07.907 +0000",1571137447.906648,1.897704,-1.337948,-2.645556,0.218530,0.973013,0.074098,0.000000,0.000000,0.000000,-1,1.561825,0.232660,0.130741,0.067419,-0.268871,-0.060615
"2019-10-15 11:04:07.927 +0000",1571137447.926746,1.783905,-1.343310,-2.772349,0.220428,0.974236,0.047699,0.000000,0.000000,0.000000,-1,1.421800,0.566045,0.120834,-0.025666,-0.160704,-0.044043
"2019-10-15 11:04:07.947 +0000",1571137447.946843,1.684613,-1.344280,-2.888485,0.223132,0.974455,0.025506,0.000000,0.000000,0.000000,-1,1.229713,0.717737,0.179563,0.016171,-0.220722,-0.044967
"2019-10-15 11:04:07.967 +0000",1571137447.966940,1.596599,-1.339674,-2.992923,0.228994,0.973410,0.005910,0.000000,0.000000,0.000000,-1,1.151147,0.663986,0.356674,0.032967,-0.281597,-0.104930
"2019-10-15 11:04:07.987 +0000",1571137447.987037,1.510645,-1.329690,-3.093456,0.238345,0.971074,-0.014354,0.000000,0.000000,0.000000,-1,1.166642,0.563989,0.501043,-0.026081,-0.208324,-0.070002
"2019-10-15 11:04:08.007 +0000",1571137448.007136,1.443970,-1.316973,3.108385,0.249090,0.967960,-0.031762,0.000000,0.000000,0.000000,-1,0.989988,0.629687,0.541251,-0.109076,-0.079415,0.124468
"2019-10-15 11:04:08.027 +0000",1571137448.027234,1.418275,-1.303742,3.065659,0.260828,0.964552,-0.040093,0.000000,0.000000,0.000000,-1,0.479268,0.831104,0.581720,-0.094371,-0.062748,0.313800
"2019-10-15 11:04:08.047 +0000",1571137448.047330,1.424053,-1.289807,3.054028,0.274326,0.960782,-0.040547,0.000000,0.000000,0.000000,-1,0.227517,0.805602,0.686438,-0.067754,-0.010729,0.115355
"2019-10-15 11:04:08.067 +0000",1571137448.067428,1.429817,-1.274576,3.044196,0.289011,0.956447,-0.041017,0.000000,0.000000,0.000000,-1,0.238403,0.788286,0.741784,-0.131954,-0.056473,0.128139
"2019-10-15 11:04:08.088 +0000",1571137448.087526,1.439226,-1.259431,3.039399,0.303710,0.951916,-0.040192,0.000000,0.000000,0.000000,-1,0.168659,0.655022,0.720705,-0.276719,0.005567,0.073267
"2019-10-15 11:04:08.108 +0000",1571137448.107623,1.436406,-1.249516,3.029380,0.312934,0.948832,-0.042310,0.000000,0.000000,0.000000,-1,0.229815,0.224540,0.356726,-0.494882,0.190186,0.052574
"2019-10-15 11:04:08.128 +0000",1571137448.127721,1.422122,-1.247675,3.013499,0.314025,0.948249,-0.047034,0.000000,0.000000,0.000000,-1,0.266169,-0.020873,-0.027864,-0.462083,0.293506,0.107759
"2019-10-15 11:04:08.148 +0000",1571137448.147819,1.398402,-1.248213,2.991294,0.312318,0.948420,-0.054382,0.000000,0.000000,0.000000,-1,0.361506,-0.141183,-0.077512,-0.243396,0.216568,0.224512
"2019-10-15 11:04:08.168 +0000",1571137448.167917,1.357772,-1.247961,2.952435,0.310085,0.948340,-0.067073,0.000000,0.000000,0.000000,-1,0.682622,-0.239864,-0.149613,-0.210951,0.208744,0.228140
"2019-10-15 11:04:08.188 +0000",1571137448.188014,1.303172,-1.253708,2.902301,0.300702,0.950147,-0.082453,0.000000,0.000000,0.000000,-1,0.668068,-0.389619,-0.564013,-0.344496,0.347058,0.192342
"2019-10-15 11:04:08.208 +0000",1571137448.208112,1.243084,-1.265045,2.854371,0.284990,0.953621,-0.096888,0.000000,0.000000,0.000000,-1,0.460378,-0.825344,-0.812487,-0.304828,0.160204,-0.010828
"2019-10-15 11:04:08.228 +0000",1571137448.228209,1.199146,-1.285451,2.827803,0.262271,0.959565,-0.102224,0.000000,0.000000,0.000000,-1,-0.171941,-0.936408,-1.170352,0.011836,0.089838,0.102249
"2019-10-15 11:04:08.248 +0000",1571137448.248307,1.185083,-1.313114,2.832531,0.236117,0.966983,-0.095876,0.000000,0.000000,0.000000,-1,-0.681735,-0.900958,-1.275494,0.251186,0.164771,-0.180542
"2019-10-15 11:04:08.268 +0000",1571137448.268404,1.210069,-1.345948,2.874705,0.208609,0.974828,-0.078694,0.000000,0.000000,0.000000,-1,-1.196007,-0.733441,-1.350081,0.337822,0.345617,-0.331268
"2019-10-15 11:04:08.289 +0000",1571137448.288502,1.282114,-1.380060,2.955455,0.181737,0.981865,-0.053972,0.000000,0.000000,0.000000,-1,-1.337199,-0.212825,-1.329010,0.496134,0.513857,-0.202793
"2019-10-15 11:04:08.309 +0000",1571137448.308599,1.389661,-1.409883,3.058286,0.157599,0.987081,-0.028863,0.000000,0.000000,0.000000,-1,-1.186364,0.489246,-1.192996,0.674767,0.438145,-0.145535
"2019-10-15 11:04:08.329 +0000",1571137448.328697,1.552743,-1.430439,-3.077607,0.139874,0.990166,-0.002525,0.000000,0.000000,0.000000,-1,-1.219049,0.964369,-0.797442,0.708636,0.298647,-0.026105
"2019-10-15 11:04:08.349 +0000",1571137448.348794,1.764642,-1.438848,-2.881462,0.129101,0.991307,0.025344,0.000000,0.000000,0.000000,-1,-1.321172,0.827387,-0.469236,0.401065,0.242818,-0.159261
"2019-10-15 11:04:08.369 +0000",1571137448.368893,1.984365,-1.437321,-2.669648,0.121861,0.991105,0.053482,0.000000,0.000000,0.000000,-1,-1.352606,0.382685,-0.307401,0.168818,0.091287,-0.182196
"2019-10-15 11:04:08.389 +0000",1571137448.388990,2.167156,-1.428386,-2.487171,0.117432,0.989877,0.079713,0.000000,0.000000,0.000000,-1,-1.313812,0.012851,-0.203831,0.066543,-0.067824,-0.133567
"2019-10-15 11:04:08.409 +0000",1571137448.409087,2.311518,-1.413620,-2.335653,0.115516,0.987673,0.105629,0.000000,0.000000,0.000000,-1,-1.345319,-0.371007,-0.089731,0.031364,-0.151329,-0.115828
"2019-10-15 11:04:08.429 +0000",1571137448.429185,2.408896,-1.393987,-2.225430,0.117648,0.984410,0.130751,0.000000,0.000000,0.000000,-1,-1.354162,-0.606363,0.063713,0.027050,-0.250727,-0.066915
"2019-10-15 11:04:08.449 +0000",1571137448.449282,2.471450,-1.372586,-2.147854,0.122303,0.980421,0.154328,0.000000,0.000000,0.000000,-1,-1.235033,-0.693947,0.154483,0.026027,-0.352192,-0.091896
"2019-10-15 11:04:08.469 +0000",1571137448.469380,2.505816,-1.353646,-2.100335,0.127934,0.976515,0.173352,0.000000,0.000000,0.000000,-1,-1.012384,-0.550268,0.170929,0.027629,-0.427983,-0.097187
"2019-10-15 11:04:08.489 +0000",1571137448.489477,2.531306,-1.337338,-2.065935,0.132583,0.972872,0.189582,0.000000,0.000000,0.000000,-1,-0.828741,-0.378703,0.160616,0.040496,-0.537331,-0.103347
"2019-10-15 11:04:08.510 +0000",1571137448.509575,2.533595,-1.326613,-2.053837,0.138102,0.970335,0.198439,0.000000,0.000000,0.000000,-1,-0.423565,-0.509084,0.181151,0.013493,-0.647160,-0.211736
"2019-10-15 11:04:08.530 +0000",1571137448.529672,2.513002,-1.321729,-2.061251,0.144944,0.969143,0.199384,0.000000,0.000000,0.000000,-1,-0.063887,-0.715473,0.228623,-0.044649,-0.626543,-0.139760
"2019-10-15 11:04:08.550 +0000",1571137448.549770,2.473456,-1.320119,-2.083797,0.153680,0.968745,0.194722,0.000000,0.000000,0.000000,-1,0.135750,-0.932336,0.265616,-0.099344,-0.530381,-0.054227
"2019-10-15 11:04:08.570 +0000",1571137448.569869,2.433834,-1.319986,-2.105542,0.161356,0.968712,0.188579,0.000000,0.000000,0.000000,-1,0.167199,-0.891162,0.186396,-0.068477,-0.328169,0.074673
"2019-10-15 11:04:08.590 +0000",1571137448.589966,2.404191,-1.320760,-2.122400,0.166370,0.968903,0.183159,0.000000,0.000000,0.000000,-1,0.152139,-0.573569,0.107498,-0.007649,-0.170524,0.135727
"2019-10-15 11:04:08.610 +0000",1571137448.610063,2.378672,-1.322455,-2.139987,0.169855,0.969321,0.177667,0.000000,0.000000,0.000000,-1,0.246822,-0.387144,0.099816,-0.043269,-0.064283,0.097899
"2019-10-15 11:04:08.630 +0000",1571137448.630160,2.356113,-1.323508,-2.155260,0.173097,0.969580,0.173069,0.000000,0.000000,0.000000,-1,0.086877,-0.387610,0.082514,-0.018191,0.179675,0.264301
"2019-10-15 11:04:08.650 +0000",1571137448.650258,2.360304,-1.319262,-2.144823,0.175268,0.968532,0.176714,0.000000,0.000000,0.000000,-1,-0.351233,-0.230551,0.050152,0.139886,0.327727,0.391942
"2019-10-15 11:04:08.670 +0000",1571137448.670356,2.381062,-1.310821,-2.120459,0.177190,0.966396,0.186230,0.000000,0.000000,0.000000,-1,-0.555664,-0.153445,0.069204,0.068902,0.372220,0.399760
"2019-10-15 11:04:08.690 +0000",1571137448.690453,2.392557,-1.303323,-2.102828,0.179967,0.964442,0.193556,0.000000,0.000000,0.000000,-1,-0.371052,-0.304224,0.095890,-0.039435,0.251448,0.561181
"2019-10-15 11:04:08.711 +0000",1571137448.710552,2.406069,-1.296686,-2.087188,0.181627,0.962667,0.200711,0.000000,0.000000,0.000000,-1,-0.410872,0.014681,0.061314,-0.021334,0.200688,0.604472
"2019-10-15 11:04:08.731 +0000",1571137448.730650,2.430324,-1.286991,-2.069038,0.182789,0.959997,0.212118,0.000000,0.000000,0.000000,-1,-0.565625,0.417503,0.155677,0.292765,0.564151,0.284715
"2019-10-15 11:04:08.751 +0000",1571137448.750747,2.462902,-1.266788,-2.046504,0.187922,0.954144,0.233010,0.000000,0.000000,0.000000,-1,-1.148015,0.643829,0.470260,0.319752,0.689358,0.207640
"2019-10-15 11:04:08.771 +0000",1571137448.770845,2.492287,-1.242877,-2.034901,0.194737,0.946715,0.256533,0.000000,0.000000,0.000000,-1,-0.941289,0.908949,0.639936,0.370417,0.531611,-0.567638
"2019-10-15 11:04:08.791 +0000",1571137448.790943,2.493397,-1.224710,-2.048636,0.204803,0.940708,0.270416,0.000000,0.000000,0.000000,-1,-0.471121,0.550677,0.706174,0.404723,0.156805,-0.580835
"2019-10-15 11:04:08.811 +0000",1571137448.811039,2.478617,-1.214545,-2.068925,0.214652,0.937211,0.274883,0.000000,0.000000,0.000000,-1,-0.093073,0.187111,0.509703,-0.142235,-0.362816,-0.386785
"2019-10-15 11:04:08.831 +0000",1571137448.831137,2.467839,-1.212548,-2.085034,0.218769,0.936513,0.274016,0.000000,0.000000,0.000000,-1,0.143989,0.245536,0.202131,-0.169149,-0.159283,-0.464912
"2019-10-15 11:04:08.851 +0000",1571137448.851235,2.447704,-1.215952,-2.109575,0.222201,0.937701,0.267103,0.000000,0.000000,0.000000,-1,0.504981,0.065048,0.254051,-0.012837,0.104254,-0.622276
"2019-10-15 11:04:08.871 +0000",1571137448.871333,2.394650,-1.227333,-2.159307,0.228787,0.941594,0.247097,0.000000,0.000000,0.000000,-1,1.136174,-0.442409,0.218589,-0.079879,0.158893,-0.698903
"2019-10-15 11:04:08.891 +0000",1571137448.891430,2.317661,-1.249476,-2.225929,0.231756,0.948819,0.214550,0.000000,0.000000,0.000000,-1,1.648954,-0.742267,-0.100219,-0.068977,0.027126,-0.439305
"2019-10-15 11:04:08.912 +0000",1571137448.911527,2.233874,-1.275143,-2.300926,0.229625,0.956612,0.179349,0.000000,0.000000,0.000000,-1,1.655199,-0.522247,-0.289580,0.107775,-0.119721,-0.079016
"2019-10-15 11:04:08.932 +0000",1571137448.931625,2.144830,-1.298486,-2.387539,0.225848,0.963152,0.146050,0.000000,0.000000,0.000000,-1,1.663554,-0.225195,-0.216439,0.300838,-0.256479,-0.026796
"2019-10-15 11:04:08.952 +0000",1571137448.951723,2.036247,-1.318623,-2.501620,0.222967,0.968372,0.111987,0.000000,0.000000,0.000000,-1,1.790662,0.211685,-0.128470,0.263481,-0.307781,-0.011149
"2019-10-15 11:04:08.972 +0000",1571137448.971820,1.913660,-1.335260,-2.639468,0.219782,0.972389,0.078454,0.000000,0.000000,0.000000,-1,1.852583,0.656263,-0.110675,0.080693,-0.325653,-0.048692
"2019-10-15 11:04:08.992 +0000",1571137448.991918,1.784557,-1.346118,-2.789904,0.217722,0.974866,0.047262,0.000000,0.000000,0.000000,-1,1.730579,0.944493,-0.047289,-0.018139,-0.326925,-0.035720
"2019-10-15 11:04:09.012 +0000",1571137449.012016,1.664814,-1.350091,-2.933650,0.217951,0.975743,0.020552,0.000000,0.000000,0.000000,-1,1.540612,1.030518,0.087651,-0.008404,-0.294385,-0.066322
"2019-10-15 11:04:09.032 +0000",1571137449.032112,1.557384,-1.346849,-3.065744,0.222061,0.975028,-0.002978,0.000000,0.000000,0.000000,-1,1.390102,1.092455,0.244032,-0.003221,-0.255737,-0.039999
"2019-10-15 11:04:09.052 +0000",1571137449.052212,1.470344,-1.337929,3.104630,0.229605,0.973009,-0.023142,0.000000,0.000000,0.000000,-1,1.252418,1.146387,0.410275,-0.042961,-0.205897,0.042924
"2019-10-15 11:04:09.072 +0000",1571137449.072308,1.409935,-1.324872,3.019060,0.240311,0.969913,-0.038994,0.000000,0.000000,0.000000,-1,1.006252,1.137038,0.522364,-0.100420,-0.095745,0.121581
"2019-10-15 11:04:09.092 +0000",1571137449.092406,1.381656,-1.311086,2.965313,0.252220,0.966464,-0.048282,0.000000,0.000000,0.000000,-1,0.687838,1.199743,0.570260,-0.199549,-0.019268,0.217250
"2019-10-15 11:04:09.113 +0000",1571137449.112503,1.387494,-1.296415,2.947507,0.266412,0.962593,-0.049388,0.000000,0.000000,0.000000,-1,0.252760,1.098215,0.695551,-0.199017,0.020004,0.246142
"2019-10-15 11:04:09.133 +0000",1571137449.132601,1.401433,-1.280786,2.943823,0.281871,0.958241,-0.048200,0.000000,0.000000,0.000000,-1,0.168321,0.769754,0.757619,-0.249113,-0.012830,0.123113
"2019-10-15 11:04:09.153 +0000",1571137449.152698,1.412611,-1.265935,2.943929,0.296414,0.953889,-0.047283,0.000000,0.000000,0.000000,-1,0.084186,0.463272,0.699884,-0.289519,0.008185,0.139591
"2019-10-15 11:04:09.173 +0000",1571137449.172796,1.413739,-1.255685,2.941059,0.306107,0.950762,-0.048476,0.000000,0.000000,0.000000,-1,0.149948,0.087481,0.419460,-0.478488,0.195958,0.150747
"2019-10-15 11:04:09.193 +0000",1571137449.192893,1.396401,-1.252271,2.928285,0.308416,0.949698,-0.054338,0.000000,0.000000,0.000000,-1,0.225847,-0.374039,0.038124,-0.569650,0.342102,0.118081
"2019-10-15 11:04:09.213 +0000",1571137449.212991,1.365726,-1.253222,2.911076,0.305721,0.949996,-0.063588,0.000000,0.000000,0.000000,-1,0.257857,-0.822369,-0.114842,-0.373488,0.318322,0.190533
"2019-10-15 11:04:09.233 +0000",1571137449.233088,1.323065,-1.254139,2.883350,0.301886,0.950282,-0.076355,0.000000,0.000000,0.000000,-1,0.468017,-0.806626,-0.165060,-0.171319,0.263623,0.260261
"2019-10-15 11:04:09.253 +0000",1571137449.253186,1.265902,-1.260910,2.838869,0.290886,0.952368,-0.091544,0.000000,0.000000,0.000000,-1,0.557093,-0.716543,-0.628429,-0.218211,0.402085,0.279692
"2019-10-15 11:04:09.273 +0000",1571137449.273283,1.201784,-1.274065,2.788227,0.272713,0.956297,-0.105465,0.000000,0.000000,0.000000,-1,0.446772,-0.829510,-0.926694,-0.243998,0.277550,0.045475
"2019-10-15 11:04:09.293 +0000",1571137449.293381,1.148975,-1.293893,2.755081,0.249415,0.961907,-0.111927,0.000000,0.000000,0.000000,-1,-0.122077,-1.133652,-1.137586,-0.023206,0.174605,0.007823
"2019-10-15 11:04:09.313 +0000",1571137449.313478,1.128459,-1.319563,2.758720,0.224671,0.968607,-0.106413,0.000000,0.000000,0.000000,-1,-0.706969,-1.191794,-1.124083,0.279233,0.141202,-0.186976
"2019-10-15 11:04:09.334 +0000",1571137449.333576,1.163319,-1.348642,2.813771,0.202291,0.975425,-0.087316,0.000000,0.000000,0.000000,-1,-1.351183,-0.830808,-1.031781,0.436333,0.373824,-0.265201
"2019-10-15 11:04:09.354 +0000",1571137449.353674,1.266405,-1.377398,2.926120,0.183360,0.981357,-0.057603,0.000000,0.000000,0.000000,-1,-1.629492,-0.159083,-0.901199,0.651965,0.506473,-0.239769
"2019-10-15 11:04:09.374 +0000",1571137449.373771,1.423817,-1.400839,3.078585,0.167316,0.985592,-0.024771,0.000000,0.000000,0.000000,-1,-1.573641,0.530353,-0.791081,0.637004,0.354670,-0.264164
"2019-10-15 11:04:09.394 +0000",1571137449.393869,1.632711,-1.414361,-3.012237,0.155500,0.987789,0.009640,0.000000,0.000000,0.000000,-1,-1.611035,1.073179,-0.543290,0.637132,0.285502,-0.120932
"2019-10-15 11:04:09.414 +0000",1571137449.413966,1.862141,-1.416198,-2.804284,0.147495,0.988073,0.044230,0.000000,0.000000,0.000000,-1,-1.525073,1.197222,-0.321311,0.409861,0.250168,-0.231328
"2019-10-15 11:04:09.434 +0000",1571137449.434065,2.055165,-1.408811,-2.631485,0.142726,0.986909,0.075099,0.000000,0.000000,0.000000,-1,-1.368330,1.087242,-0.128922,0.188602,0.048025,-0.139791
"2019-10-15 11:04:09.454 +0000",1571137449.454161,2.203888,-1.395034,-2.499370,0.140972,0.984594,0.103454,0.000000,0.000000,0.000000,-1,-1.275400,0.867628,0.030549,0.120395,-0.110274,-0.085138
"2019-10-15 11:04:09.474 +0000",1571137449.474259,2.312343,-1.378801,-2.402494,0.140714,0.981625,0.128884,0.000000,0.000000,0.000000,-1,-1.179131,0.596434,0.052548,0.049394,-0.196325,-0.052738
"2019-10-15 11:04:09.494 +0000",1571137449.494356,2.389884,-1.361565,-2.330200,0.141841,0.978191,0.151735,0.000000,0.000000,0.000000,-1,-1.094477,0.227766,0.131647,-0.027463,-0.332891,-0.077665
"2019-10-15 11:04:09.514 +0000",1571137449.514454,2.430664,-1.343287,-2.285476,0.147181,0.974231,0.170914,0.000000,0.000000,0.000000,-1,-0.983439,-0.263742,0.270959,-0.104580,-0.487607,-0.159160
"2019-10-15 11:04:09.535 +0000",1571137449.534552,2.441166,-1.326196,-2.261917,0.156088,0.970234,0.185154,0.000000,0.000000,0.000000,-1,-0.761031,-0.730708,0.359359,-0.165093,-0.563810,-0.273163
"2019-10-15 11:04:09.555 +0000",1571137449.554650,2.424414,-1.314093,-2.259262,0.166874,0.967232,0.191350,0.000000,0.000000,0.000000,-1,-0.398846,-1.016901,0.350144,-0.163107,-0.607912,-0.286911
"2019-10-15 11:04:09.575 +0000",1571137449.574747,2.393089,-1.307782,-2.269700,0.176936,0.965611,0.190499,0.000000,0.000000,0.000000,-1,-0.068648,-1.029660,0.291935,-0.106397,-0.629514,-0.163914
"2019-10-15 11:04:09.595 +0000",1571137449.594845,2.352964,-1.306827,-2.290027,0.185089,0.965362,0.183897,0.000000,0.000000,0.000000,-1,0.203352,-1.017751,0.184436,-0.036440,-0.577248,-0.027155
"2019-10-15 11:04:09.615 +0000",1571137449.614941,2.310670,-1.309857,-2.313809,0.190538,0.966148,0.173934,0.000000,0.000000,0.000000,-1,0.350082,-0.929632,0.074593,-0.019672,-0.455583,0.167119
"2019-10-15 11:04:09.635 +0000",1571137449.635040,2.277936,-1.313266,-2.331245,0.193624,0.967022,0.165465,0.000000,0.000000,0.000000,-1,0.231435,-0.733231,-0.003818,-0.044594,-0.320134,0.260351
"2019-10-15 11:04:09.655 +0000",1571137449.655136,2.251899,-1.317116,-2.344888,0.194972,0.967995,0.158022,0.000000,0.000000,0.000000,-1,0.293061,-0.611517,-0.050503,-0.105938,-0.206072,0.241320
"2019-10-15 11:04:09.675 +0000",1571137449.675234,2.239930,-1.319813,-2.347597,0.194801,0.968669,0.154057,0.000000,0.000000,0.000000,-1,-0.006820,-0.411992,-0.096154,0.000968,0.048367,0.375077
"2019-10-15 11:04:09.695 +0000",1571137449.695332,2.272917,-1.312264,-2.308782,0.195191,0.966766,0.165116,0.000000,0.000000,0.000000,-1,-0.834232,-0.177381,0.023111,0.182096,0.220923,0.293262
"2019-10-15 11:04:09.715 +0000",1571137449.715429,2.314099,-1.300211,-2.261439,0.196793,0.963615,0.180885,0.000000,0.000000,0.000000,-1,-0.772120,-0.253229,0.010250,0.073271,0.732467,0.088147
"2019-10-15 11:04:09.736 +0000",1571137449.735526,2.336923,-1.294294,-2.232985,0.196719,0.962016,0.189279,0.000000,0.000000,0.000000,-1,-0.418293,-0.207104,-0.054102,0.020107,0.596645,0.706797
"2019-10-15 11:04:09.756 +0000",1571137449.755624,2.375801,-1.286317,-2.196685,0.194526,0.959808,0.202307,0.000000,0.000000,0.000000,-1,-0.758625,0.331120,-0.074277,-0.090432,0.201636,0.916425
"2019-10-15 11:04:09.776 +0000",1571137449.775721,2.432490,-1.266440,-2.150130,0.195137,0.954040,0.227440,0.000000,0.000000,0.000000,-1,-1.315902,0.664537,0.229313,0.226996,0.364478,0.441661
"2019-10-15 11:04:09.796 +0000",1571137449.795819,2.483574,-1.233783,-2.109947,0.202221,0.943747,0.261628,0.000000,0.000000,0.000000,-1,-1.761699,0.668218,0.656460,0.334642,0.800248,0.106493
"2019-10-15 11:04:09.816 +0000",1571137449.815917,2.510911,-1.205963,-2.102966,0.210400,0.934183,0.288156,0.000000,0.000000,0.000000,-1,-0.868641,1.070235,0.743198,0.264207,0.724606,-0.983710
"2019-10-15 11:04:09.836 +0000",1571137449.836014,2.499130,-1.192554,-2.127024,0.221266,0.929315,0.295660,0.000000,0.000000,0.000000,-1,-0.188655,0.203554,0.733620,0.333053,-0.176745,-0.659854
"2019-10-15 11:04:09.856 +0000",1571137449.856112,2.478908,-1.181650,-2.145562,0.233419,0.925233,0.299096,0.000000,0.000000,0.000000,-1,-0.208495,-0.177303,0.519018,-0.177864,-0.418681,-0.373831
"2019-10-15 11:04:09.876 +0000",1571137449.876209,2.468601,-1.179433,-2.153913,0.237768,0.924390,0.298278,0.000000,0.000000,0.000000,-1,0.088337,-0.112246,0.096408,-0.211663,-0.017858,-0.468594
"2019-10-15 11:04:09.896 +0000",1571137449.896307,2.448463,-1.185514,-2.170810,0.240130,0.926692,0.289100,0.000000,0.000000,0.000000,-1,0.571253,-0.288014,0.060705,-0.074590,0.207637,-0.610905
"2019-10-15 11:04:09.916 +0000",1571137449.916404,2.402150,-1.200934,-2.208739,0.243598,0.932377,0.267082,0.000000,0.000000,0.000000,-1,1.175206,-0.632457,-0.012730,0.004661,0.118624,-0.581273
"2019-10-15 11:04:09.937 +0000",1571137449.936502,2.336666,-1.225034,-2.261907,0.244283,0.940817,0.234923,0.000000,0.000000,0.000000,-1,1.587868,-0.814977,-0.241506,-0.023780,0.102341,-0.320720
"2019-10-15 11:04:09.957 +0000",1571137449.956599,2.265389,-1.253155,-2.322871,0.239965,0.949975,0.199912,0.000000,0.000000,0.000000,-1,1.665453,-0.593330,-0.433841,0.038688,0.026105,-0.044803
"2019-10-15 11:04:09.977 +0000",1571137449.976697,2.190295,-1.280240,-2.396198,0.233248,0.958085,0.166341,0.000000,0.000000,0.000000,-1,1.692163,-0.145865,-0.374903,0.172161,-0.181941,0.026900
"2019-10-15 11:04:09.997 +0000",1571137449.996795,2.101844,-1.302674,-2.490185,0.228436,0.964270,0.134166,0.000000,0.000000,0.000000,-1,1.660981,0.165386,-0.200512,0.154253,-0.318009,0.007592
"2019-10-15 11:04:10.017 +0000",1571137450.016892,2.000568,-1.319554,-2.601918,0.225999,0.968604,0.103586,0.000000,0.000000,0.000000,-1,1.656611,0.382871,-0.043725,0.011868,-0.438905,-0.108601
"2019-10-15 11:04:10.037 +0000",1571137450.036989,1.878011,-1.330225,-2.735313,0.227102,0.971202,0.072050,0.000000,0.000000,0.000000,-1,1.689577,0.334080,0.121388,-0.008721,-0.452245,-0.194406
"2019-10-15 11:04:10.057 +0000",1571137450.057087,1.749773,-1.333205,-2.875730,0.231603,0.971908,0.041900,0.000000,0.000000,0.000000,-1,1.614422,0.435531,0.297169,0.013161,-0.360345,-0.051310
"2019-10-15 11:04:10.077 +0000",1571137450.077184,1.632719,-1.328451,-3.007012,0.239521,0.970778,0.014851,0.000000,0.000000,0.000000,-1,1.454179,0.553335,0.447544,0.021417,-0.278191,0.036287
"2019-10-15 11:04:10.097 +0000",1571137450.097283,1.536706,-1.317985,-3.119045,0.249982,0.968213,-0.008525,0.000000,0.000000,0.000000,-1,1.321872,0.647049,0.568024,-0.055801,-0.264014,0.077226
"2019-10-15 11:04:10.117 +0000",1571137450.117380,1.472380,-1.303180,3.082096,0.263153,0.964404,-0.025982,0.000000,0.000000,0.000000,-1,0.992092,0.780557,0.679273,-0.094821,-0.169614,0.168780
"2019-10-15 11:04:10.137 +0000",1571137450.137477,1.443777,-1.287393,3.035825,0.277372,0.960109,-0.035422,0.000000,0.000000,0.000000,-1,0.625669,0.781365,0.717561,-0.170472,-0.043829,0.125058
"2019-10-15 11:04:10.158 +0000",1571137450.157574,1.435294,-1.270138,3.013636,0.293434,0.955142,-0.040006,0.000000,0.000000,0.000000,-1,0.353956,0.600694,0.834497,-0.117289,0.061038,0.091052
"2019-10-15 11:04:10.178 +0000",1571137450.177673,1.438303,-1.253016,3.005310,0.309720,0.949931,-0.041278,0.000000,0.000000,0.000000,-1,0.204118,0.533908,0.808580,-0.163712,0.173823,0.075921
"2019-10-15 11:04:10.198 +0000",1571137450.197770,1.443164,-1.238781,2.999835,0.323298,0.945387,-0.041489,0.000000,0.000000,0.000000,-1,0.164669,0.475483,0.639644,-0.260283,0.159263,0.127676
"2019-10-15 11:04:10.218 +0000",1571137450.217867,1.439429,-1.230743,2.988990,0.330663,0.942737,-0.043690,0.000000,0.000000,0.000000,-1,0.256411,0.267614,0.285830,-0.413018,0.256670,0.137690
"2019-10-15 11:04:10.238 +0000",1571137450.237964,1.420334,-1.227702,2.966537,0.332602,0.941718,-0.050425,0.000000,0.000000,0.000000,-1,0.419820,0.015633,0.052271,-0.437525,0.250685,0.176895
"2019-10-15 11:04:10.258 +0000",1571137450.258063,1.387001,-1.225873,2.932944,0.332430,0.941101,-0.061797,0.000000,0.000000,0.000000,-1,0.620561,-0.164092,-0.019774,-0.436010,0.230123,0.243779
"2019-10-15 11:04:10.278 +0000",1571137450.278160,1.337373,-1.228121,2.889110,0.326896,0.941859,-0.077722,0.000000,0.000000,0.000000,-1,0.665086,-0.531866,-0.341771,-0.394404,0.404948,0.226852
"2019-10-15 11:04:10.298 +0000",1571137450.298258,1.275089,-1.235875,2.842021,0.314429,0.944436,-0.095787,0.000000,0.000000,0.000000,-1,0.644069,-1.020945,-0.634628,-0.477671,0.376584,-0.025804
"2019-10-15 11:04:10.318 +0000",1571137450.318355,1.212574,-1.250429,2.806662,0.294925,0.949120,-0.110412,0.000000,0.000000,0.000000,-1,0.137426,-1.561147,-0.959177,-0.313742,0.214521,-0.130396
"2019-10-15 11:04:10.338 +0000",1571137450.338453,1.175459,-1.276028,2.801957,0.268110,0.956869,-0.111884,0.000000,0.000000,0.000000,-1,-0.559199,-1.617725,-1.269386,0.170807,0.229537,-0.193377
"2019-10-15 11:04:10.359 +0000",1571137450.358550,1.175872,-1.308658,2.831678,0.239199,0.965838,-0.099703,0.000000,0.000000,0.000000,-1,-1.185626,-1.317471,-1.349911,0.384487,0.396029,-0.202217
"2019-10-15 11:04:10.379 +0000",1571137450.378648,1.234486,-1.344490,2.910677,0.211810,0.974502,-0.074047,0.000000,0.000000,0.000000,-1,-1.594117,-0.766474,-1.300970,0.651775,0.527640,-0.266066
"2019-10-15 11:04:10.399 +0000",1571137450.398745,1.334329,-1.376117,3.016872,0.188069,0.981110,-0.045320,0.000000,0.000000,0.000000,-1,-1.466892,0.002345,-1.161607,0.700098,0.460683,-0.286569
"2019-10-15 11:04:10.419 +0000",1571137450.418843,1.482643,-1.400110,-3.127479,0.169200,0.985468,-0.014954,0.000000,0.000000,0.000000,-1,-1.446218,0.771531,-0.891263,0.753238,0.297572,-0.006892
"2019-10-15 11:04:10.439 +0000",1571137450.438940,1.684540,-1.411009,-2.943994,0.158080,0.987261,0.018059,0.000000,0.000000,0.000000,-1,-1.509045,1.080208,-0.456921,0.614180,0.234118,-0.133747
"2019-10-15 11:04:10.459 +0000",1571137450.459038,1.887687,-1.409240,-2.756540,0.152845,0.986978,0.050124,0.000000,0.000000,0.000000,-1,-1.464027,0.812657,-0.172714,0.297837,0.063701,-0.208995
"2019-10-15 11:04:10.479 +0000",1571137450.479134,2.056888,-1.398945,-2.593589,0.151198,0.985270,0.079890,0.000000,0.000000,0.000000,-1,-1.450833,0.280755,-0.035773,0.018813,-0.132055,-0.194740
"2019-10-15 11:04:10.499 +0000",1571137450.499233,2.187486,-1.383255,-2.457981,0.152101,0.982466,0.107828,0.000000,0.000000,0.000000,-1,-1.432796,-0.289184,0.047788,-0.176898,-0.294366,-0.188788
"2019-10-15 11:04:10.519 +0000",1571137450.519331,2.279553,-1.363588,-2.349348,0.156183,0.978609,0.133907,0.000000,0.000000,0.000000,-1,-1.454748,-0.845996,0.134243,-0.233761,-0.388166,-0.130684
"2019-10-15 11:04:10.539 +0000",1571137450.539428,2.338409,-1.342236,-2.265669,0.163037,0.973994,0.157338,0.000000,0.000000,0.000000,-1,-1.338412,-1.217801,0.186649,-0.149626,-0.502569,-0.151873
"2019-10-15 11:04:10.560 +0000",1571137450.559526,2.368363,-1.324772,-2.209020,0.170107,0.969888,0.174298,0.000000,0.000000,0.000000,-1,-1.006347,-1.229990,0.114597,-0.079151,-0.565984,-0.170191
"2019-10-15 11:04:10.580 +0000",1571137450.579622,2.385755,-1.313237,-2.169355,0.174713,0.967015,0.185360,0.000000,0.000000,0.000000,-1,-0.669875,-0.995337,0.016000,-0.006517,-0.626144,-0.182519
"2019-10-15 11:04:10.600 +0000",1571137450.599719,2.388667,-1.307966,-2.146990,0.177656,0.965658,0.189585,0.000000,0.000000,0.000000,-1,-0.316807,-0.895312,-0.054145,0.036072,-0.660920,-0.114464
"2019-10-15 11:04:10.620 +0000",1571137450.619817,2.384074,-1.307343,-2.135578,0.178938,0.965496,0.189204,0.000000,0.000000,0.000000,-1,-0.063020,-0.738184,-0.096093,0.056046,-0.592658,-0.000603
"2019-10-15 11:04:10.640 +0000",1571137450.639915,2.373554,-1.309023,-2.132798,0.179791,0.965933,0.186144,0.000000,0.000000,0.000000,-1,0.038542,-0.624564,-0.081728,0.085527,-0.438248,0.146378
"2019-10-15 11:04:10.660 +0000",1571137450.660012,2.363671,-1.309647,-2.132938,0.181199,0.966094,0.183929,0.000000,0.000000,0.000000,-1,0.018536,-0.437323,0.000912,0.073850,-0.251413,0.233432
"2019-10-15 11:04:10.680 +0000",1571137450.680109,2.349719,-1.310228,-2.141670,0.183347,0.966244,0.180988,0.000000,0.000000,0.000000,-1,0.133952,-0.219634,0.067945,-0.027176,-0.142646,0.176207
"2019-10-15 11:04:10.700 +0000",1571137450.700207,2.323383,-1.314109,-2.165561,0.185311,0.967236,0.173533,0.000000,0.000000,0.000000,-1,0.410531,-0.150223,0.065133,-0.144725,-0.007652,0.117577
"2019-10-15 11:04:10.720 +0000",1571137450.720304,2.311970,-1.314961,-2.173902,0.186672,0.967452,0.170851,0.000000,0.000000,0.000000,-1,-0.049205,-0.169627,0.033115,-0.085798,0.331655,0.403111
"2019-10-15 11:04:10.740 +0000",1571137450.740403,2.333811,-1.308451,-2.150532,0.187444,0.965784,0.179235,0.000000,0.000000,0.000000,-1,-0.558977,0.000217,0.020850,-0.006752,0.500925,0.265164
"2019-10-15 11:04:10.760 +0000",1571137450.760499,2.370127,-1.300251,-2.114272,0.186328,0.963625,0.191594,0.000000,0.000000,0.000000,-1,-0.622283,0.066989,-0.064077,0.151835,0.565646,0.488385
"2019-10-15 11:04:10.781 +0000",1571137450.780597,2.391222,-1.291355,-2.090962,0.188084,0.961210,0.201744,0.000000,0.000000,0.000000,-1,-0.506076,-0.104415,0.126840,0.195368,0.189399,0.664972
"2019-10-15 11:04:10.801 +0000",1571137450.800695,2.413904,-1.279424,-2.071821,0.191074,0.957851,0.214506,0.000000,0.000000,0.000000,-1,-0.637826,0.326789,0.223860,0.152979,0.124658,0.473926
"2019-10-15 11:04:10.821 +0000",1571137450.820793,2.436398,-1.265052,-2.055463,0.195105,0.953623,0.229209,0.000000,0.000000,0.000000,-1,-0.698015,0.313752,0.318164,0.076194,0.603739,0.178293
"2019-10-15 11:04:10.841 +0000",1571137450.840890,2.480311,-1.243100,-2.026669,0.197665,0.946786,0.254016,0.000000,0.000000,0.000000,-1,-1.264328,1.083030,0.309982,0.059702,0.393550,0.063825
"2019-10-15 11:04:10.861 +0000",1571137450.860988,2.517879,-1.223680,-2.011428,0.198688,0.940358,0.276135,0.000000,0.000000,0.000000,-1,-0.757853,1.112797,0.427125,0.464900,0.448761,-0.781612
"2019-10-15 11:04:10.881 +0000",1571137450.881084,2.513105,-1.211936,-2.022872,0.206483,0.936298,0.284098,0.000000,0.000000,0.000000,-1,-0.253168,-0.024895,0.512030,0.357983,0.089952,-0.577921
"2019-10-15 11:04:10.901 +0000",1571137450.901183,2.490306,-1.205823,-2.039665,0.216371,0.934133,0.283864,0.000000,0.000000,0.000000,-1,0.000991,-0.444921,0.375252,-0.096974,-0.249741,-0.450886
"2019-10-15 11:04:10.921 +0000",1571137450.921280,2.465377,-1.205947,-2.056727,0.223307,0.934177,0.278292,0.000000,0.000000,0.000000,-1,0.240565,-0.417870,0.187626,-0.191724,-0.123336,-0.393389
"2019-10-15 11:04:10.941 +0000",1571137450.941378,2.430580,-1.211464,-2.085259,0.229487,0.936132,0.266445,0.000000,0.000000,0.000000,-1,0.645952,-0.423668,0.230182,-0.125562,0.090209,-0.555721
"2019-10-15 11:04:10.961 +0000",1571137450.961475,2.365742,-1.223387,-2.136908,0.238434,0.940258,0.243031,0.000000,0.000000,0.000000,-1,1.146693,-0.955284,0.237227,0.051190,0.193078,-0.569430
"2019-10-15 11:04:10.982 +0000",1571137450.981573,2.285346,-1.241913,-2.201233,0.243981,0.946404,0.211646,0.000000,0.000000,0.000000,-1,1.477532,-0.902969,-0.026137,0.019810,0.104901,-0.219625
"2019-10-15 11:04:11.002 +0000",1571137451.001670,2.208820,-1.265239,-2.271929,0.241645,0.953680,0.179174,0.000000,0.000000,0.000000,-1,1.580422,-0.299619,-0.281509,0.109823,-0.023484,0.011563
"2019-10-15 11:04:11.022 +0000",1571137451.021769,2.137511,-1.289022,-2.349574,0.234591,0.960563,0.149280,0.000000,0.000000,0.000000,-1,1.591691,0.294946,-0.356188,0.131739,-0.186572,0.036360
"2019-10-15 11:04:11.042 +0000",1571137451.041865,2.062306,-1.311335,-2.439059,0.226188,0.966528,0.121085,0.000000,0.000000,0.000000,-1,1.564418,0.627255,-0.366339,0.045507,-0.293245,-0.046971
"2019-10-15 11:04:11.062 +0000",1571137451.061963,1.977316,-1.330058,-2.542688,0.218990,0.971162,0.094275,0.000000,0.000000,0.000000,-1,1.550563,0.806302,-0.244240,-0.051954,-0.390866,-0.143665
"2019-10-15 11:04:11.082 +0000",1571137451.082061,1.870696,-1.341171,-2.667753,0.217454,0.973752,0.067242,0.000000,0.000000,0.000000,-1,1.524571,0.716396,0.054346,0.022106,-0.350304,-0.211480
"2019-10-15 11:04:11.102 +0000",1571137451.102159,1.756675,-1.341450,-2.800038,0.223426,0.973815,0.042015,0.000000,0.000000,0.000000,-1,1.429534,0.772907,0.442848,0.087256,-0.279795,-0.070225
"2019-10-15 11:04:11.122 +0000",1571137451.122256,1.658311,-1.332638,-2.920218,0.235011,0.971774,0.020620,0.000000,0.000000,0.000000,-1,1.249022,0.978010,0.654035,0.022524,-0.250365,0.012618
"2019-10-15 11:04:11.142 +0000",1571137451.142354,1.582801,-1.319517,-3.020318,0.248626,0.968595,0.002985,0.000000,0.000000,0.000000,-1,1.152361,1.115316,0.727955,-0.081697,-0.216333,0.030360
"2019-10-15 11:04:11.162 +0000",1571137451.162450,1.527979,-1.304154,-3.100804,0.263253,0.964661,-0.011279,0.000000,0.000000,0.000000,-1,0.966519,1.170481,0.745947,-0.204525,-0.159603,0.131018
"2019-10-15 11:04:11.183 +0000",1571137451.182548,1.505127,-1.287404,3.134797,0.279012,0.960112,-0.018349,0.000000,0.000000,0.000000,-1,0.612722,1.120899,0.818939,-0.229653,-0.122157,0.189755
"2019-10-15 11:04:11.203 +0000",1571137451.202645,1.493320,-1.269173,3.104184,0.296180,0.954855,-0.022993,0.000000,0.000000,0.000000,-1,0.469711,0.846321,0.886614,-0.239772,-0.080919,0.153398
"2019-10-15 11:04:11.223 +0000",1571137451.222743,1.483697,-1.251198,3.080511,0.312994,0.949362,-0.027331,0.000000,0.000000,0.000000,-1,0.431383,0.595511,0.851878,-0.252100,-0.048036,0.150015
"2019-10-15 11:04:11.243 +0000",1571137451.242841,1.466478,-1.236542,3.056674,0.326282,0.944655,-0.034161,0.000000,0.000000,0.000000,-1,0.445280,0.147870,0.604226,-0.440086,0.105169,0.119141
"2019-10-15 11:04:11.263 +0000",1571137451.262938,1.439311,-1.229592,3.033235,0.331734,0.942352,-0.043871,0.000000,0.000000,0.000000,-1,0.405440,-0.381727,0.211338,-0.521908,0.285633,0.056143
"2019-10-15 11:04:11.283 +0000",1571137451.283035,1.404948,-1.225761,3.011222,0.333589,0.941064,-0.055838,0.000000,0.000000,0.000000,-1,0.389405,-0.762077,0.128859,-0.354666,0.297924,0.122996
"2019-10-15 11:04:11.303 +0000",1571137451.303133,1.363658,-1.221202,2.982819,0.335195,0.939512,-0.070442,0.000000,0.000000,0.000000,-1,0.586182,-0.714713,0.115572,-0.147256,0.284583,0.217968
"2019-10-15 11:04:11.323 +0000",1571137451.323231,1.313211,-1.221428,2.941480,0.331011,0.939589,-0.087201,0.000000,0.000000,0.000000,-1,0.673834,-0.541672,-0.299859,-0.162878,0.433965,0.238466
"2019-10-15 11:04:11.343 +0000",1571137451.343328,1.255194,-1.229429,2.892394,0.318242,0.942298,-0.103911,0.000000,0.000000,0.000000,-1,0.693004,-0.652538,-0.708213,-0.118966,0.396177,-0.069531
"2019-10-15 11:04:11.363 +0000",1571137451.363425,1.199384,-1.244896,2.849801,0.298332,0.947363,-0.116197,0.000000,0.000000,0.000000,-1,0.238458,-0.785300,-1.032655,-0.060130,0.270033,-0.069513
"2019-10-15 11:04:11.384 +0000",1571137451.383522,1.168638,-1.269047,2.835458,0.273481,0.954818,-0.116322,0.000000,0.000000,0.000000,-1,-0.408617,-0.846603,-1.233446,0.075576,0.188664,-0.261679
"2019-10-15 11:04:11.404 +0000",1571137451.403621,1.175896,-1.300015,2.858001,0.246897,0.963562,-0.102906,0.000000,0.000000,0.000000,-1,-1.040865,-0.673824,-1.307368,0.308138,0.272434,-0.213054
"2019-10-15 11:04:11.424 +0000",1571137451.423717,1.241384,-1.332776,2.931248,0.223101,0.971807,-0.076271,0.000000,0.000000,0.000000,-1,-1.543375,-0.140214,-1.151573,0.667033,0.441725,-0.119296
"2019-10-15 11:04:11.444 +0000",1571137451.443815,1.352946,-1.361850,3.039354,0.202527,0.978250,-0.044832,0.000000,0.000000,0.000000,-1,-1.520950,0.482437,-1.049593,0.636353,0.363215,-0.178904
"2019-10-15 11:04:11.464 +0000",1571137451.463912,1.494642,-1.384756,-3.118477,0.184433,0.982744,-0.014073,0.000000,0.000000,0.000000,-1,-1.335950,1.064132,-0.889066,0.553159,0.282380,-0.110573
"2019-10-15 11:04:11.484 +0000",1571137451.484010,1.665228,-1.397429,-2.967828,0.171732,0.985009,0.016265,0.000000,0.000000,0.000000,-1,-1.354277,1.082421,-0.563707,0.331302,0.273035,-0.087322
"2019-10-15 11:04:11.504 +0000",1571137451.504108,1.852101,-1.400119,-2.791967,0.163173,0.985470,0.047152,0.000000,0.000000,0.000000,-1,-1.472090,0.513805,-0.371713,0.122301,0.213660,-0.147705
"2019-10-15 11:04:11.524 +0000",1571137451.524206,2.018800,-1.393785,-2.623566,0.158711,0.984374,0.076276,0.000000,0.000000,0.000000,-1,-1.469631,-0.120945,-0.177548,-0.006491,-0.058544,-0.156260
"2019-10-15 11:04:11.544 +0000",1571137451.544303,2.150252,-1.380255,-2.478764,0.158474,0.981902,0.103704,0.000000,0.000000,0.000000,-1,-1.475915,-0.685529,-0.033260,-0.159666,-0.266979,-0.136234
"2019-10-15 11:04:11.564 +0000",1571137451.564400,2.247170,-1.361965,-2.359151,0.161675,0.978274,0.129774,0.000000,0.000000,0.000000,-1,-1.514904,-1.119833,0.059983,-0.202037,-0.394866,-0.099972
"2019-10-15 11:04:11.584 +0000",1571137451.584497,2.315728,-1.340909,-2.262099,0.167514,0.973692,0.154477,0.000000,0.000000,0.000000,-1,-1.455316,-1.351516,0.119298,-0.115239,-0.493708,-0.123440
"2019-10-15 11:04:11.605 +0000",1571137451.604596,2.356277,-1.322411,-2.191861,0.173821,0.969311,0.173849,0.000000,0.000000,0.000000,-1,-1.161597,-1.369729,0.058211,-0.059061,-0.546791,-0.193609
"2019-10-15 11:04:11.625 +0000",1571137451.624692,2.378391,-1.310754,-2.143702,0.177733,0.966379,0.185803,0.000000,0.000000,0.000000,-1,-0.721723,-1.188822,-0.050756,0.027465,-0.583624,-0.206447
"2019-10-15 11:04:11.645 +0000",1571137451.644791,2.381743,-1.306007,-2.118833,0.180266,0.965148,0.189720,0.000000,0.000000,0.000000,-1,-0.311678,-1.003221,-0.083935,0.062515,-0.591122,-0.162224
"2019-10-15 11:04:11.665 +0000",1571137451.664888,2.372358,-1.305937,-2.111251,0.182087,0.965129,0.188070,0.000000,0.000000,0.000000,-1,0.012452,-0.784441,-0.063137,0.072901,-0.546486,-0.055563
"2019-10-15 11:04:11.685 +0000",1571137451.684986,2.345982,-1.310722,-2.123998,0.183682,0.966371,0.179968,0.000000,0.000000,0.000000,-1,0.360439,-0.676006,-0.058794,0.055878,-0.464217,0.021036
"2019-10-15 11:04:11.705 +0000",1571137451.705083,2.309538,-1.318207,-2.149007,0.184764,0.968269,0.168280,0.000000,0.000000,0.000000,-1,0.500279,-0.580043,-0.050595,0.050143,-0.332478,0.176950
"2019-10-15 11:04:11.725 +0000",1571137451.725181,2.278137,-1.324062,-2.172952,0.185645,0.969715,0.158710,0.000000,0.000000,0.000000,-1,0.368953,-0.335018,-0.022273,0.004142,-0.201066,0.295971
"2019-10-15 11:04:11.745 +0000",1571137451.745278,2.245237,-1.330125,-2.201033,0.186168,0.971178,0.148843,0.000000,0.000000,0.000000,-1,0.493689,-0.278255,-0.021561,-0.067686,-0.032989,0.161612
"2019-10-15 11:04:11.765 +0000",1571137451.765376,2.231019,-1.333506,-2.212182,0.185671,0.971979,0.144166,0.000000,0.000000,0.000000,-1,0.044461,-0.104743,-0.058176,0.015483,0.317453,0.418685
"2019-10-15 11:04:11.785 +0000",1571137451.785472,2.258958,-1.326271,-2.183748,0.186999,0.970252,0.153760,0.000000,0.000000,0.000000,-1,-0.651611,0.051471,0.117215,0.160090,0.466731,0.312457
"2019-10-15 11:04:11.806 +0000",1571137451.805570,2.299439,-1.316769,-2.142013,0.187493,0.967908,0.167333,0.000000,0.000000,0.000000,-1,-0.652524,-0.011959,-0.035220,-0.006801,0.592199,0.282786
"2019-10-15 11:04:11.826 +0000",1571137451.825668,2.331115,-1.310766,-2.112719,0.186306,0.966382,0.177188,0.000000,0.000000,0.000000,-1,-0.458477,0.264438,-0.023176,0.033006,0.241933,0.676038
"2019-10-15 11:04:11.846 +0000",1571137451.845766,2.364925,-1.302490,-2.090755,0.185810,0.964221,0.189083,0.000000,0.000000,0.000000,-1,-0.516786,0.749061,0.133994,0.152170,0.267349,0.491932
"2019-10-15 11:04:11.866 +0000",1571137451.865863,2.397940,-1.287126,-2.071089,0.189474,0.960035,0.205993,0.000000,0.000000,0.000000,-1,-0.879848,0.648517,0.406820,0.205055,0.534185,0.350952
"2019-10-15 11:04:11.886 +0000",1571137451.885962,2.430795,-1.262945,-2.057300,0.197696,0.952987,0.229635,0.000000,0.000000,0.000000,-1,-1.005627,1.146005,0.690433,0.295358,0.538333,-0.244330
"2019-10-15 11:04:11.906 +0000",1571137451.906058,2.433407,-1.244448,-2.076201,0.208527,0.947219,0.243498,0.000000,0.000000,0.000000,-1,-0.310062,0.856119,0.875465,0.639386,0.580081,-0.741791
"2019-10-15 11:04:11.926 +0000",1571137451.926156,2.406285,-1.229621,-2.106748,0.224451,0.942362,0.248144,0.000000,0.000000,0.000000,-1,-0.221531,-0.103461,0.834332,0.046450,-0.334281,-0.233390
"2019-10-15 11:04:11.946 +0000",1571137451.946254,2.382260,-1.223507,-2.126884,0.234310,0.940299,0.246854,0.000000,0.000000,0.000000,-1,0.076211,-0.274613,0.296567,-0.443786,-0.343723,-0.422545
"2019-10-15 11:04:11.966 +0000",1571137451.966351,2.366193,-1.227164,-2.139358,0.235837,0.941537,0.240601,0.000000,0.000000,0.000000,-1,0.339202,-0.203798,-0.043386,-0.240464,-0.117071,-0.508821
"2019-10-15 11:04:11.986 +0000",1571137451.986448,2.327996,-1.235484,-2.170338,0.239151,0.944308,0.226030,0.000000,0.000000,0.000000,-1,0.778194,-0.561640,0.133166,0.104047,0.138962,-0.620745
"2019-10-15 11:04:12.007 +0000",1571137452.006546,2.257192,-1.248504,-2.226418,0.245011,0.948512,0.200736,0.000000,0.000000,0.000000,-1,1.185561,-0.950857,0.044629,0.031154,0.210656,-0.403984
"2019-10-15 11:04:12.027 +0000",1571137452.026643,2.189685,-1.268777,-2.283056,0.242279,0.954738,0.172559,0.000000,0.000000,0.000000,-1,1.321867,-0.535249,-0.380864,-0.074161,0.129890,-0.095075
"2019-10-15 11:04:12.047 +0000",1571137452.046740,2.136197,-1.290419,-2.337112,0.233654,0.960951,0.148253,0.000000,0.000000,0.000000,-1,1.181889,0.060835,-0.477892,0.134782,-0.057811,0.000490
"2019-10-15 11:04:12.067 +0000",1571137452.066838,2.093419,-1.308824,-2.389789,0.224415,0.965881,0.129274,0.000000,0.000000,0.000000,-1,1.053148,0.497012,-0.394591,0.200997,-0.230100,-0.110719
"2019-10-15 11:04:12.087 +0000",1571137452.086935,2.039255,-1.324966,-2.460769,0.217144,0.969935,0.109881,0.000000,0.000000,0.000000,-1,1.188565,0.794262,-0.255650,0.143357,-0.261880,-0.304415
"2019-10-15 11:04:12.107 +0000",1571137452.107033,1.961386,-1.337683,-2.560278,0.213609,0.972952,0.087952,0.000000,0.000000,0.000000,-1,1.376504,0.981758,-0.023761,0.147015,-0.267612,-0.327606
"2019-10-15 11:04:12.127 +0000",1571137452.127130,1.861079,-1.344508,-2.688618,0.214975,0.974506,0.064218,0.000000,0.000000,0.000000,-1,1.490521,1.331725,0.213419,0.199847,-0.283708,-0.212700
"2019-10-15 11:04:12.147 +0000",1571137452.147228,1.760420,-1.344220,-2.827103,0.220616,0.974441,0.042343,0.000000,0.000000,0.000000,-1,1.488846,1.821562,0.430174,0.161309,-0.310133,-0.052077
"2019-10-15 11:04:12.167 +0000",1571137452.167325,1.669695,-1.337813,-2.963269,0.229753,0.972982,0.022797,0.000000,0.000000,0.000000,-1,1.462838,2.170660,0.545173,0.012355,-0.292956,-0.031309
"2019-10-15 11:04:12.187 +0000",1571137452.187423,1.590293,-1.327304,-3.091194,0.241048,0.970502,0.004700,0.000000,0.000000,0.000000,-1,1.463883,2.228661,0.628453,-0.142754,-0.230952,-0.046752
"2019-10-15 11:04:12.208 +0000",1571137452.207520,1.529680,-1.312992,3.085347,0.254743,0.966952,-0.010480,0.000000,0.000000,0.000000,-1,1.231151,2.063730,0.701548,-0.236238,-0.123932,0.122634
"2019-10-15 11:04:12.228 +0000",1571137452.227618,1.495415,-1.296974,3.010130,0.269646,0.962744,-0.020365,0.000000,0.000000,0.000000,-1,0.968119,1.839585,0.739428,-0.323071,-0.029789,0.229260
"2019-10-15 11:04:12.248 +0000",1571137452.247715,1.475231,-1.281145,2.955346,0.284315,0.958344,-0.027254,0.000000,0.000000,0.000000,-1,0.756508,1.567934,0.705556,-0.351153,-0.061094,0.284046
"2019-10-15 11:04:12.268 +0000",1571137452.267813,1.470220,-1.265621,2.923793,0.298942,0.953794,-0.030168,0.000000,0.000000,0.000000,-1,0.456825,1.145551,0.739952,-0.334423,-0.092967,0.239689
"2019-10-15 11:04:12.288 +0000",1571137452.287910,1.465600,-1.250984,2.905565,0.312651,0.949294,-0.033012,0.000000,0.000000,0.000000,-1,0.318061,0.452118,0.646013,-0.531695,0.200549,0.155908
"2019-10-15 11:04:12.308 +0000",1571137452.308008,1.450148,-1.242492,2.890419,0.320094,0.946591,-0.038807,0.000000,0.000000,0.000000,-1,0.264333,-0.213776,0.317431,-0.612426,0.344931,0.162772
"2019-10-15 11:04:12.328 +0000",1571137452.328105,1.427048,-1.237463,2.880159,0.323820,0.944957,-0.046872,0.000000,0.000000,0.000000,-1,0.164041,-0.834681,0.210102,-0.537250,0.228141,0.254104
"2019-10-15 11:04:12.348 +0000",1571137452.348203,1.397446,-1.233489,2.871429,0.325987,0.943649,-0.057083,0.000000,0.000000,0.000000,-1,0.185301,-1.149304,0.157922,-0.320010,0.158053,0.329119
"2019-10-15 11:04:12.368 +0000",1571137452.368300,1.357824,-1.234382,2.856034,0.322646,0.943944,-0.069773,0.000000,0.000000,0.000000,-1,0.246580,-1.280375,-0.206493,-0.294285,0.371228,0.204449
"2019-10-15 11:04:12.388 +0000",1571137452.388399,1.308547,-1.244297,2.832308,0.309763,0.947171,-0.083150,0.000000,0.000000,0.000000,-1,0.257545,-1.383452,-0.668823,-0.165404,0.285268,0.005074
"2019-10-15 11:04:12.408 +0000",1571137452.408495,1.264258,-1.261704,2.815992,0.290014,0.952610,-0.091794,0.000000,0.000000,0.000000,-1,-0.120305,-1.434061,-0.977313,-0.009088,0.212050,0.017990
"2019-10-15 11:04:12.429 +0000",1571137452.428592,1.245168,-1.286776,2.825393,0.265493,0.959936,-0.089643,0.000000,0.000000,0.000000,-1,-0.658623,-1.350772,-1.185660,0.109122,0.250668,-0.180328
"2019-10-15 11:04:12.449 +0000",1571137452.448690,1.265366,-1.317518,2.871782,0.238981,0.968096,-0.075350,0.000000,0.000000,0.000000,-1,-1.179399,-1.172240,-1.271073,0.323455,0.335251,-0.241405
"2019-10-15 11:04:12.469 +0000",1571137452.468787,1.340238,-1.347193,2.966920,0.215877,0.975105,-0.050673,0.000000,0.000000,0.000000,-1,-1.551902,-0.770370,-1.061051,0.566056,0.406443,-0.143172
"2019-10-15 11:04:12.489 +0000",1571137452.488885,1.455277,-1.370300,3.092403,0.197829,0.979968,-0.022955,0.000000,0.000000,0.000000,-1,-1.472988,-0.224494,-0.853924,0.613860,0.395446,-0.231804
"2019-10-15 11:04:12.509 +0000",1571137452.508982,1.599234,-1.384340,-3.047939,0.185303,0.982667,0.005271,0.000000,0.000000,0.000000,-1,-1.388908,0.314936,-0.555701,0.635724,0.355057,-0.097006
"2019-10-15 11:04:12.529 +0000",1571137452.529081,1.765151,-1.388823,-2.888739,0.177564,0.983488,0.034952,0.000000,0.000000,0.000000,-1,-1.427944,0.487061,-0.335052,0.392822,0.345081,-0.102547
"2019-10-15 11:04:12.549 +0000",1571137452.549177,1.921996,-1.385820,-2.734288,0.172697,0.982941,0.063274,0.000000,0.000000,0.000000,-1,-1.372406,0.149412,-0.203098,0.177551,0.137758,-0.177470
"2019-10-15 11:04:12.569 +0000",1571137452.569276,2.051225,-1.377074,-2.598272,0.170720,0.981294,0.088972,0.000000,0.000000,0.000000,-1,-1.340123,-0.338632,-0.090173,-0.024162,-0.105118,-0.182569
"2019-10-15 11:04:12.589 +0000",1571137452.589373,2.154668,-1.363818,-2.479059,0.171459,0.978656,0.113286,0.000000,0.000000,0.000000,-1,-1.357595,-0.776070,-0.013931,-0.149138,-0.267503,-0.170247
"2019-10-15 11:04:12.609 +0000",1571137452.609470,2.232318,-1.347156,-2.377731,0.174998,0.975096,0.136244,0.000000,0.000000,0.000000,-1,-1.360689,-1.147557,0.062389,-0.114576,-0.355909,-0.150558
"2019-10-15 11:04:12.630 +0000",1571137452.629567,2.283264,-1.328574,-2.298348,0.181515,0.970807,0.156798,0.000000,0.000000,0.000000,-1,-1.262049,-1.358348,0.158048,-0.030929,-0.459270,-0.169876
"2019-10-15 11:04:12.650 +0000",1571137452.649666,2.307112,-1.312724,-2.246506,0.189103,0.966884,0.171395,0.000000,0.000000,0.000000,-1,-0.909059,-1.260741,0.156365,-0.013096,-0.530084,-0.195139
"2019-10-15 11:04:12.670 +0000",1571137452.669763,2.309948,-1.303755,-2.221449,0.195016,0.964556,0.177764,0.000000,0.000000,0.000000,-1,-0.411672,-0.995401,0.099341,0.023120,-0.606721,-0.178041
