timestamp,timeIntervalSince1970,attitude.roll,attitude.pitch,attitude.yaw,gravity.x,gravity.y,gravity.z,magneticField.x,magneticField.y,magneticField.z,magneticField.accuracy,rotationRate.x,rotationRate.y,rotationRate.z,userAcceleration.x,userAcceleration.y,userAcceleration.z
"2019-04-05 12:09:47.619 +0000",1554466187.619323,-0.244943,0.702669,0.093176,-0.185058,-0.646257,-0.740342,0.000000,0.000000,0.000000,-1,-0.308973,-1.279908,1.046912,0.158401,0.193117,-0.139556
"2019-04-05 12:09:47.642 +0000",1554466187.641611,-0.282913,0.681352,0.112790,-0.216825,-0.629844,-0.745844,0.000000,0.000000,0.000000,-1,-0.920798,-0.993421,0.762527,0.262067,0.247840,-0.270300
"2019-04-05 12:09:47.664 +0000",1554466187.663908,-0.302917,0.661481,0.119364,-0.235388,-0.614286,-0.753157,0.000000,0.000000,0.000000,-1,-0.613483,-0.480607,0.368576,0.217291,0.202970,-0.219805
"2019-04-05 12:09:47.686 +0000",1554466187.686217,-0.314014,0.654929,0.127052,-0.244969,-0.609103,-0.754310,0.000000,0.000000,0.000000,-1,0.035148,-0.245399,0.361804,0.150105,0.146457,-0.055016
"2019-04-05 12:09:47.709 +0000",1554466187.708508,-0.325686,0.652676,0.137057,-0.254195,-0.607314,-0.752698,0.000000,0.000000,0.000000,-1,-0.141722,-0.233187,0.357898,-0.021806,0.171859,-0.180774
"2019-04-05 12:09:47.731 +0000",1554466187.730801,-0.321521,0.639895,0.137192,-0.253490,-0.597111,-0.761053,0.000000,0.000000,0.000000,-1,-0.772308,0.518057,0.009811,0.073513,0.146672,-0.264720
"2019-04-05 12:09:47.753 +0000",1554466187.753111,-0.296473,0.618437,0.126941,-0.238039,-0.579762,-0.779239,0.000000,0.000000,0.000000,-1,-1.068419,0.910017,-0.076911,0.122392,0.153432,-0.184750
"2019-04-05 12:09:47.775 +0000",1554466187.775416,-0.277417,0.602550,0.117336,-0.225641,-0.566745,-0.792392,0.000000,0.000000,0.000000,-1,-0.585987,0.392195,-0.110565,0.006250,0.136036,-0.065594
"2019-04-05 12:09:47.798 +0000",1554466187.797725,-0.279190,0.598316,0.122687,-0.227705,-0.563252,-0.794291,0.000000,0.000000,0.000000,-1,0.239215,0.171027,0.503339,0.060027,0.119908,-0.038748
"2019-04-05 12:09:47.820 +0000",1554466187.820024,-0.288740,0.604211,0.135412,-0.234331,-0.568113,-0.788883,0.000000,0.000000,0.000000,-1,0.372625,-0.080468,0.348079,0.098192,0.218351,-0.106197
"2019-04-05 12:09:47.842 +0000",1554466187.842311,-0.289656,0.601048,0.144109,-0.235566,-0.565507,-0.790386,0.000000,0.000000,0.000000,-1,-0.396060,0.205865,0.356373,0.161774,0.205750,-0.104648
"2019-04-05 12:09:47.865 +0000",1554466187.864624,-0.277392,0.576296,0.148602,-0.229618,-0.544922,-0.806434,0.000000,0.000000,0.000000,-1,-1.240470,0.928106,0.484819,0.072804,0.210480,-0.071221
"2019-04-05 12:09:47.887 +0000",1554466187.886926,-0.255323,0.552466,0.148843,-0.214985,-0.524788,-0.823637,0.000000,0.000000,0.000000,-1,-0.858878,0.986346,0.233877,-0.062419,0.184990,-0.034502
"2019-04-05 12:09:47.909 +0000",1554466187.909203,-0.236984,0.538490,0.152583,-0.201548,-0.512840,-0.834490,0.000000,0.000000,0.000000,-1,-0.415806,0.913043,0.316593,0.137751,0.199470,0.083162
"2019-04-05 12:09:47.932 +0000",1554466187.931512,-0.224758,0.534532,0.159894,-0.191781,-0.509438,-0.838864,0.000000,0.000000,0.000000,-1,0.073087,0.454414,0.319633,-0.015357,0.195641,-0.153141
"2019-04-05 12:09:47.954 +0000",1554466187.953819,-0.234463,0.532659,0.166178,-0.200135,-0.507826,-0.837890,0.000000,0.000000,0.000000,-1,-0.190250,-0.674134,0.220370,0.109681,0.191328,-0.184587
"2019-04-05 12:09:47.976 +0000",1554466187.976128,-0.244685,0.504885,0.161549,-0.212025,-0.483707,-0.849160,0.000000,0.000000,0.000000,-1,-0.506092,-1.083858,0.171749,0.089833,0.163425,-0.146766
"2019-04-05 12:09:47.998 +0000",1554466187.998406,-0.271773,0.489927,0.167075,-0.236862,-0.470561,-0.849981,0.000000,0.000000,0.000000,-1,-0.618756,-1.169788,0.549588,0.076294,0.179698,-0.086527
"2019-04-05 12:09:48.021 +0000",1554466188.020712,-0.281447,0.468386,0.177624,-0.247832,-0.451447,-0.857190,0.000000,0.000000,0.000000,-1,-1.059593,0.841870,0.689091,0.076247,0.231293,-0.070590
"2019-04-05 12:09:48.043 +0000",1554466188.043023,-0.230584,0.431799,0.185018,-0.207568,-0.418506,-0.884177,0.000000,0.000000,0.000000,-1,-1.664967,3.170424,0.721505,0.171115,0.226199,-0.061090
"2019-04-05 12:09:48.065 +0000",1554466188.065330,-0.161452,0.392472,0.195189,-0.148529,-0.382473,-0.911950,0.000000,0.000000,0.000000,-1,-1.514557,2.965112,0.734557,-0.083542,0.183331,-0.013526
"2019-04-05 12:09:48.088 +0000",1554466188.087629,-0.112624,0.359931,0.207307,-0.105185,-0.352210,-0.929992,0.000000,0.000000,0.000000,-1,-1.413826,1.966092,0.688884,0.102438,0.293601,-0.098146
"2019-04-05 12:09:48.110 +0000",1554466188.109915,-0.078179,0.322737,0.219941,-0.074067,-0.317163,-0.945474,0.000000,0.000000,0.000000,-1,-1.812742,1.962204,0.681304,0.110825,0.221033,-0.094763
"2019-04-05 12:09:48.132 +0000",1554466188.132222,-0.008785,0.265634,0.239813,-0.008477,-0.262521,-0.964889,0.000000,0.000000,0.000000,-1,-3.087090,4.507604,1.192837,0.078301,0.109017,0.083191
"2019-04-05 12:09:48.155 +0000",1554466188.154532,0.144858,0.160038,0.274061,0.142507,-0.159355,-0.976882,0.000000,0.000000,0.000000,-1,-5.876337,8.470228,0.936891,-0.270406,0.213081,0.023512
"2019-04-05 12:09:48.177 +0000",1554466188.176810,0.287462,0.035776,0.304599,0.283337,-0.035768,-0.958353,0.000000,0.000000,0.000000,-1,-5.145370,4.870927,-0.381795,-0.235455,0.181063,-0.049856
"2019-04-05 12:09:48.199 +0000",1554466188.199117,0.349778,-0.058579,0.327456,0.342102,0.058545,-0.937837,0.000000,0.000000,0.000000,-1,-4.097920,1.879183,0.138946,-0.025756,0.218738,0.273485
"2019-04-05 12:09:48.221 +0000",1554466188.221424,0.389936,-0.111548,0.397816,0.377766,0.111317,-0.919185,0.000000,0.000000,0.000000,-1,-2.704009,1.346171,3.079394,0.008983,0.216274,-0.212422
"2019-04-05 12:09:48.244 +0000",1554466188.243732,0.457754,-0.125137,0.501091,0.438478,0.124810,-0.890033,0.000000,0.000000,0.000000,-1,-2.619286,3.502979,4.114745,-0.020372,0.368613,-0.140057
"2019-04-05 12:09:48.266 +0000",1554466188.266012,0.604836,-0.152760,0.597795,0.562006,0.152166,-0.813016,0.000000,0.000000,0.000000,-1,-3.358918,7.633883,2.295102,0.754691,0.262583,-0.039630
"2019-04-05 12:09:48.288 +0000",1554466188.288318,0.763927,-0.194296,0.672927,0.678746,0.193076,-0.708538,0.000000,0.000000,0.000000,-1,-3.796647,5.690327,1.092715,0.530513,0.287592,-0.073292
"2019-04-05 12:09:48.311 +0000",1554466188.310732,0.870666,-0.220285,0.741929,0.746278,0.218508,-0.628748,0.000000,0.000000,0.000000,-1,-2.635822,3.356836,1.313653,-0.214601,0.006041,0.220438
"2019-04-05 12:09:48.333 +0000",1554466188.332935,0.944121,-0.227223,0.820405,0.789162,0.225273,-0.571381,0.000000,0.000000,0.000000,-1,-3.083802,2.313858,2.368495,-0.308006,-0.125236,0.351044
"2019-04-05 12:09:48.355 +0000",1554466188.355211,1.023396,-0.202353,0.921496,0.836458,0.200975,-0.509850,0.000000,0.000000,0.000000,-1,-3.209151,2.859513,3.836120,-0.121355,-0.053377,0.089074
"2019-04-05 12:09:48.378 +0000",1554466188.377513,1.140994,-0.180644,1.023305,0.894256,0.179663,-0.409911,0.000000,0.000000,0.000000,-1,-3.413250,4.806047,2.058427,0.273010,0.067041,0.198439
"2019-04-05 12:09:48.400 +0000",1554466188.399827,1.236028,-0.176105,1.081929,0.929878,0.175196,-0.323469,0.000000,0.000000,0.000000,-1,-1.742717,3.096683,0.744456,0.760643,0.282430,-0.019197
"2019-04-05 12:09:48.422 +0000",1554466188.422124,1.289188,-0.182168,1.122868,0.944715,0.181162,-0.273303,0.000000,0.000000,0.000000,-1,-1.891616,1.614488,0.160849,0.164843,0.322958,-0.031781
"2019-04-05 12:09:48.444 +0000",1554466188.444401,1.317342,-0.191298,1.157415,0.950393,0.190134,-0.246176,0.000000,0.000000,0.000000,-1,-1.242817,0.582471,-0.206837,-0.610030,-0.357584,-0.479090
"2019-04-05 12:09:48.467 +0000",1554466188.466711,1.328835,-0.218932,1.163205,0.947695,0.217187,-0.233888,0.000000,0.000000,0.000000,-1,-0.073594,0.725942,-1.727272,-0.589892,0.002494,-0.289443
"2019-04-05 12:09:48.489 +0000",1554466188.489018,1.353744,-0.267082,1.130500,0.941914,0.263918,-0.207716,0.000000,0.000000,0.000000,-1,1.239098,1.988554,-2.704298,-0.360203,0.173277,-0.294160
"2019-04-05 12:09:48.511 +0000",1554466188.511327,1.396449,-0.327323,1.092041,0.932551,0.321510,-0.164255,0.000000,0.000000,0.000000,-1,1.128046,2.258332,-2.913911,-0.356334,-0.097724,-0.492971
"2019-04-05 12:09:48.534 +0000",1554466188.533617,1.416324,-0.366563,1.054447,0.922449,0.358409,-0.143637,0.000000,0.000000,0.000000,-1,1.193388,0.748653,-1.400668,-0.134500,0.026601,-0.072671
"2019-04-05 12:09:48.556 +0000",1554466188.555912,1.385626,-0.386879,1.031791,0.910259,0.377300,-0.170506,0.000000,0.000000,0.000000,-1,0.580921,-1.784410,-1.059627,-0.230862,-0.114620,0.075307
"2019-04-05 12:09:48.578 +0000",1554466188.578220,1.333060,-0.422207,1.007390,0.886530,0.409775,-0.214823,0.000000,0.000000,0.000000,-1,0.897518,-1.948327,-2.447442,0.509390,0.042114,0.207072
"2019-04-05 12:09:48.600 +0000",1554466188.600500,1.262695,-0.493434,0.951041,0.839240,0.473653,-0.267076,0.000000,0.000000,0.000000,-1,1.405897,-2.076638,-3.873947,0.291085,0.003779,0.561265
"2019-04-05 12:09:48.623 +0000",1554466188.622829,1.217529,-0.537741,0.912422,0.805831,0.512197,-0.297138,0.000000,0.000000,0.000000,-1,0.422969,-0.733244,-1.520582,-0.041442,-0.321890,0.486072
"2019-04-05 12:09:48.645 +0000",1554466188.645107,1.213486,-0.560854,0.900307,0.793318,0.531909,-0.296174,0.000000,0.000000,0.000000,-1,-0.099624,0.705829,-1.073531,-0.117384,0.018826,0.349763
"2019-04-05 12:09:48.667 +0000",1554466188.667422,1.245592,-0.578693,0.918393,0.793298,0.546930,-0.267481,0.000000,0.000000,0.000000,-1,-1.601041,0.408829,-0.091511,0.817878,0.166586,0.557795
"2019-04-05 12:09:48.690 +0000",1554466188.689728,1.193748,-0.577899,0.945558,0.778774,0.546266,-0.308390,0.000000,0.000000,0.000000,-1,0.012341,-5.001760,0.274787,0.685505,-0.195359,0.490641
"2019-04-05 12:09:48.712 +0000",1554466188.712006,1.050263,-0.577591,0.913831,0.726820,0.546008,-0.416664,0.000000,0.000000,0.000000,-1,1.481058,-5.390753,-1.228388,0.272219,-0.134051,0.774452
"2019-04-05 12:09:48.734 +0000",1554466188.734314,0.933021,-0.627004,0.848698,0.650603,0.586721,-0.482156,0.000000,0.000000,0.000000,-1,0.241555,-2.075566,-4.298912,-0.036787,0.027140,0.495263
"2019-04-05 12:09:48.757 +0000",1554466188.756621,0.877879,-0.699174,0.749171,0.588868,0.643585,-0.488909,0.000000,0.000000,0.000000,-1,1.381773,1.140848,-4.220288,-1.046159,-0.052139,-0.187238
"2019-04-05 12:09:48.779 +0000",1554466188.778929,0.861213,-0.735103,0.668233,0.562725,0.670663,-0.483271,0.000000,0.000000,0.000000,-1,0.369541,1.829906,-2.791533,-1.196850,-0.082727,0.065806
"2019-04-05 12:09:48.801 +0000",1554466188.801208,0.881971,-0.790801,0.627573,0.542925,0.710917,-0.447024,0.000000,0.000000,0.000000,-1,-0.850250,2.277528,-2.698026,-1.090501,-0.174494,-0.141447
"2019-04-05 12:09:48.824 +0000",1554466188.823515,0.909295,-0.828495,0.604334,0.533400,0.736915,-0.415259,0.000000,0.000000,0.000000,-1,-0.348536,1.696023,-1.067541,0.561509,0.386223,0.754157
"2019-04-05 12:09:48.846 +0000",1554466188.845826,0.924731,-0.845264,0.591182,0.529804,0.748147,-0.399480,0.000000,0.000000,0.000000,-1,0.058895,1.237426,-1.047168,0.769222,0.301368,0.813680
"2019-04-05 12:09:48.868 +0000",1554466188.868132,0.926763,-0.870176,0.550506,0.515548,0.764442,-0.387090,0.000000,0.000000,0.000000,-1,0.449964,0.964527,-1.994832,0.616426,-0.036430,0.426076
"2019-04-05 12:09:48.890 +0000",1554466188.890409,0.888700,-0.894427,0.498334,0.485907,0.779851,-0.394622,0.000000,0.000000,0.000000,-1,0.629228,0.175212,-1.580852,0.462121,-0.085210,0.431793
"2019-04-05 12:09:48.913 +0000",1554466188.912717,0.861644,-0.917162,0.437079,0.461477,0.793879,-0.395973,0.000000,0.000000,0.000000,-1,0.593236,1.295546,-1.982823,-0.252859,-0.233775,0.386497
"2019-04-05 12:09:48.935 +0000",1554466188.935024,0.833407,-0.940381,0.369971,0.436349,0.807783,-0.396341,0.000000,0.000000,0.000000,-1,0.975322,1.077648,-2.066322,-0.016961,-0.370100,0.177881
"2019-04-05 12:09:48.957 +0000",1554466188.957331,0.768809,-0.955559,0.247292,0.401282,0.816637,-0.414822,0.000000,0.000000,0.000000,-1,2.000251,1.847905,-3.087483,0.169580,-0.329652,0.318982
"2019-04-05 12:09:48.980 +0000",1554466188.979826,0.715164,-0.985871,0.118761,0.362059,0.833754,-0.416855,0.000000,0.000000,0.000000,-1,0.757319,2.229828,-3.121179,0.150621,-0.495436,-0.149230
"2019-04-05 12:09:49.002 +0000",1554466189.001918,0.692703,-0.996152,0.090835,0.347113,0.839385,-0.418264,0.000000,0.000000,0.000000,-1,0.221198,-1.632712,0.479433,-0.695990,-0.657043,-0.299937
"2019-04-05 12:09:49.024 +0000",1554466189.024226,0.639022,-0.981002,0.039637,0.331718,0.831055,-0.446443,0.000000,0.000000,0.000000,-1,2.138522,0.997484,-2.565050,-0.274284,-0.357117,0.189225
"2019-04-05 12:09:49.047 +0000",1554466189.046527,0.464155,-0.955636,-0.208704,0.258344,0.816681,-0.516033,0.000000,0.000000,0.000000,-1,5.269650,1.097712,-4.667315,0.534762,-0.658463,0.192257
"2019-04-05 12:09:49.069 +0000",1554466189.068820,0.409228,-0.919416,-0.332381,0.241242,0.795247,-0.556223,0.000000,0.000000,0.000000,-1,1.157009,1.404427,-1.245426,-1.299820,0.178904,0.083246
"2019-04-05 12:09:49.091 +0000",1554466189.091120,0.431718,-0.954797,-0.331328,0.241759,0.816197,-0.524763,0.000000,0.000000,0.000000,-1,-2.470257,1.344088,-0.545539,-1.477553,0.061855,-0.331896
"2019-04-05 12:09:49.113 +0000",1554466189.113426,0.439824,-1.004939,-0.370487,0.228278,0.844129,-0.485114,0.000000,0.000000,0.000000,-1,-0.634595,2.009490,-2.368051,0.516580,0.660769,0.560599
"2019-04-05 12:09:49.136 +0000",1554466189.135734,0.434213,-1.018560,-0.437239,0.220694,0.851354,-0.475911,0.000000,0.000000,0.000000,-1,0.145064,2.246405,-1.310398,0.897211,0.568751,1.132008
"2019-04-05 12:09:49.158 +0000",1554466189.158043,0.414555,-1.040881,-0.473424,0.203591,0.862850,-0.462646,0.000000,0.000000,0.000000,-1,-0.858196,-0.875110,-1.039973,-0.101036,0.616413,0.194671
"2019-04-05 12:09:49.180 +0000",1554466189.180321,0.389896,-1.059503,-0.461082,0.185981,0.872112,-0.452583,0.000000,0.000000,0.000000,-1,-0.788553,-1.447508,0.447584,0.241570,0.302036,-0.045434
"2019-04-05 12:09:49.203 +0000",1554466189.202628,0.389306,-1.063919,-0.430180,0.184251,0.874264,-0.449125,0.000000,0.000000,0.000000,-1,-0.136047,-1.241697,0.473328,0.015014,0.392764,0.146833
"2019-04-05 12:09:49.225 +0000",1554466189.224936,0.379305,-1.043804,-0.419308,0.186225,0.864324,-0.467188,0.000000,0.000000,0.000000,-1,1.448493,-0.875664,0.793299,0.372674,0.221156,-0.276312
"2019-04-05 12:09:49.247 +0000",1554466189.247244,0.341581,-0.984670,-0.401186,0.185289,0.833090,-0.521181,0.000000,0.000000,0.000000,-1,2.699704,-3.618508,1.716333,0.382109,-0.017614,-0.136915
"2019-04-05 12:09:49.270 +0000",1554466189.269534,0.261928,-0.907758,-0.353300,0.159383,0.788126,-0.594521,0.000000,0.000000,0.000000,-1,2.901623,-5.955501,2.409538,-0.334768,0.257178,-0.202034
"2019-04-05 12:09:49.292 +0000",1554466189.291829,0.153806,-0.846485,-0.286594,0.101513,0.748956,-0.654798,0.000000,0.000000,0.000000,-1,1.876662,-8.130777,2.428408,-0.285565,0.218482,0.040250
"2019-04-05 12:09:49.314 +0000",1554466189.314137,-0.003323,-0.815244,-0.238519,-0.002278,0.727893,-0.685687,0.000000,0.000000,0.000000,-1,0.870100,-7.771339,0.688029,0.108419,0.183194,0.380282
"2019-04-05 12:09:49.336 +0000",1554466189.336447,-0.109215,-0.799458,-0.270053,-0.075982,0.716979,-0.692942,0.000000,0.000000,0.000000,-1,-0.075698,-2.187851,-1.486985,-0.025840,0.466600,0.738505
"2019-04-05 12:09:49.359 +0000",1554466189.358723,-0.184850,-0.835875,-0.302336,-0.123242,0.741884,-0.659105,0.000000,0.000000,0.000000,-1,-2.631926,-2.720058,-0.134888,-0.201511,0.337371,0.678133
"2019-04-05 12:09:49.381 +0000",1554466189.381030,-0.257586,-0.908139,-0.324308,-0.156724,0.788360,-0.594917,0.000000,0.000000,0.000000,-1,-3.496043,-2.093372,0.098603,-0.516021,-0.029647,0.310768
"2019-04-05 12:09:49.403 +0000",1554466189.403339,-0.310400,-0.964598,-0.361956,-0.174023,0.821820,-0.542520,0.000000,0.000000,0.000000,-1,-1.728755,-0.096188,-0.565930,0.412686,0.295337,0.280084
"2019-04-05 12:09:49.426 +0000",1554466189.425647,-0.319918,-0.952823,-0.371481,-0.182210,0.815054,-0.549988,0.000000,0.000000,0.000000,-1,1.745305,-0.937367,0.073219,0.316167,0.538172,-0.260727
"2019-04-05 12:09:49.448 +0000",1554466189.447923,-0.341706,-0.888086,-0.294315,-0.211411,0.775865,-0.594423,0.000000,0.000000,0.000000,-1,4.271289,-5.476653,1.386150,0.132492,0.181547,-0.422515
"2019-04-05 12:09:49.470 +0000",1554466189.470223,-0.440583,-0.794903,-0.223972,-0.298678,0.713795,-0.633473,0.000000,0.000000,0.000000,-1,4.336415,-6.677512,-0.590509,-0.384931,0.266414,-0.814190
"2019-04-05 12:09:49.493 +0000",1554466189.492542,-0.540843,-0.722869,-0.240324,-0.386098,0.661539,-0.642880,0.000000,0.000000,0.000000,-1,1.169131,-1.841220,-2.649435,-0.419154,-0.078135,-0.333378
"2019-04-05 12:09:49.515 +0000",1554466189.514847,-0.522836,-0.710405,-0.330205,-0.378548,0.652141,-0.656821,0.000000,0.000000,0.000000,-1,-2.204652,6.802415,-2.772266,-0.812492,-0.070751,-0.070917
"2019-04-05 12:09:49.537 +0000",1554466189.537125,-0.375899,-0.740500,-0.423693,-0.270974,0.674657,-0.686593,0.000000,0.000000,0.000000,-1,-2.532190,9.815120,-2.085838,-0.615897,0.347834,0.689844
"2019-04-05 12:09:49.559 +0000",1554466189.559433,-0.215632,-0.768589,-0.494247,-0.153818,0.695122,-0.702244,0.000000,0.000000,0.000000,-1,-1.328693,9.045328,-1.506600,0.350610,0.551796,0.775745
"2019-04-05 12:09:49.582 +0000",1554466189.581741,-0.049581,-0.775953,-0.522442,-0.035374,0.700397,-0.712877,0.000000,0.000000,0.000000,-1,-0.202073,7.578074,-0.591220,0.699315,0.132504,0.635881
"2019-04-05 12:09:49.604 +0000",1554466189.604048,0.055804,-0.791699,-0.529609,0.039189,0.711548,-0.701544,0.000000,0.000000,0.000000,-1,-1.180901,3.184752,0.040337,0.261119,0.287781,0.551657
"2019-04-05 12:09:49.626 +0000",1554466189.626326,0.099836,-0.826791,-0.501776,0.067501,0.735762,-0.673868,0.000000,0.000000,0.000000,-1,-1.655582,0.069997,1.047810,0.450138,0.279680,0.364100
"2019-04-05 12:09:49.649 +0000",1554466189.648634,0.135027,-0.862109,-0.439003,0.087614,0.759217,-0.644914,0.000000,0.000000,0.000000,-1,-1.946495,-0.787284,2.098553,-0.062010,-0.179657,0.702012
"2019-04-05 12:09:49.671 +0000",1554466189.670950,0.160112,-0.901622,-0.373443,0.098900,0.784334,-0.612404,0.000000,0.000000,0.000000,-1,-2.027480,-1.160358,1.064738,-0.036537,-0.180986,0.542046
"2019-04-05 12:09:49.693 +0000",1554466189.693251,0.148590,-0.918843,-0.375446,0.089824,0.794900,-0.600054,0.000000,0.000000,0.000000,-1,0.674880,0.025418,-1.166439,-0.027995,0.064749,0.111712
"2019-04-05 12:09:49.716 +0000",1554466189.715550,0.047936,-0.847787,-0.461241,0.031704,0.749818,-0.660884,0.000000,0.000000,0.000000,-1,4.472910,-3.309409,-1.868369,-0.557217,-0.087419,0.518230
"2019-04-05 12:09:49.738 +0000",1554466189.737836,-0.094033,-0.779373,-0.458071,-0.066793,0.702834,-0.708212,0.000000,0.000000,0.000000,-1,1.466830,-7.819737,1.496270,-0.476741,-0.226958,0.470358
"2019-04-05 12:09:49.760 +0000",1554466189.760145,-0.246811,-0.807179,-0.381552,-0.168952,0.722339,-0.670583,0.000000,0.000000,0.000000,-1,-1.735956,-10.286494,2.726321,-0.460458,0.001232,-0.005305
"2019-04-05 12:09:49.782 +0000",1554466189.782450,-0.443504,-0.899030,-0.374408,-0.267064,0.782723,-0.562158,0.000000,0.000000,0.000000,-1,-4.445694,-6.707916,0.807773,1.159108,0.773551,0.336679
"2019-04-05 12:09:49.805 +0000",1554466189.804760,-0.581479,-0.952369,-0.440805,-0.318436,0.814791,-0.484473,0.000000,0.000000,0.000000,-1,-1.588924,-3.654687,-0.783668,0.526139,0.431440,-0.154810
"2019-04-05 12:09:49.827 +0000",1554466189.827038,-0.698432,-0.911059,-0.447659,-0.394112,0.790153,-0.469398,0.000000,0.000000,0.000000,-1,2.922277,-5.491150,-1.873237,-0.498787,0.147301,-0.294564
"2019-04-05 12:09:49.849 +0000",1554466189.849345,-0.809909,-0.799074,-0.426489,-0.505053,0.716711,-0.480882,0.000000,0.000000,0.000000,-1,4.459751,-5.902462,-3.429528,-0.994657,0.018015,-0.606582
"2019-04-05 12:09:49.872 +0000",1554466189.871654,-0.928611,-0.684952,-0.399457,-0.620170,0.632636,-0.463854,0.000000,0.000000,0.000000,-1,3.283471,-5.808060,-3.064910,-0.738625,-0.291190,-0.999708
"2019-04-05 12:09:49.894 +0000",1554466189.893951,-1.033213,-0.620844,-0.399657,-0.698658,0.581722,-0.416505,0.000000,0.000000,0.000000,-1,0.821069,-3.875602,-2.188689,-0.257061,0.135396,-0.086379
"2019-04-05 12:09:49.916 +0000",1554466189.916238,-1.101459,-0.568280,-0.413813,-0.751692,0.538183,-0.381207,0.000000,0.000000,0.000000,-1,0.885339,-2.559880,-2.336800,0.296598,0.528895,0.062039
"2019-04-05 12:09:49.939 +0000",1554466189.938543,-1.201742,-0.519643,-0.399316,-0.809553,0.496570,-0.313115,0.000000,0.000000,0.000000,-1,1.444509,-6.618089,-1.104656,0.880827,0.528363,0.517446
"2019-04-05 12:09:49.961 +0000",1554466189.960854,-1.365304,-0.524874,-0.384982,-0.847180,0.501104,-0.176582,0.000000,0.000000,0.000000,-1,-0.437239,-7.428308,1.129742,0.627835,0.267954,0.159599
"2019-04-05 12:09:49.983 +0000",1554466189.983161,-1.509700,-0.558849,-0.424554,-0.846284,0.530211,-0.051769,0.000000,0.000000,0.000000,-1,-1.878214,-4.815132,1.371404,0.659867,0.339235,-0.448353
"2019-04-05 12:09:50.005 +0000",1554466190.005444,-1.642863,-0.590387,-0.451267,-0.828569,0.556682,0.059815,0.000000,0.000000,0.000000,-1,-0.603253,-5.847925,1.371194,1.364412,-0.828289,-0.126359
"2019-04-05 12:09:50.028 +0000",1554466190.027747,-1.764187,-0.596723,-0.407331,-0.811761,0.561935,0.158974,0.000000,0.000000,0.000000,-1,2.914502,-6.856017,-1.397162,0.608224,1.209641,-0.540047
"2019-04-05 12:09:50.050 +0000",1554466190.050056,-1.905505,-0.570780,-0.329938,-0.794783,0.540289,0.276421,0.000000,0.000000,0.000000,-1,1.686663,-8.325459,-1.109245,0.113005,0.495234,-0.912316
"2019-04-05 12:09:50.072 +0000",1554466190.072364,-2.005598,-0.586658,-0.319355,-0.755307,0.553581,0.350799,0.000000,0.000000,0.000000,-1,0.554883,-1.887363,1.104552,-0.181995,-2.213645,-0.422118
"2019-04-05 12:09:50.095 +0000",1554466190.094650,-1.957319,-0.608307,-0.314085,-0.760076,0.571479,0.309347,0.000000,0.000000,0.000000,-1,0.539548,3.757529,0.393229,-0.831843,2.172829,-0.602896
"2019-04-05 12:09:50.117 +0000",1554466190.116949,-1.850949,-0.607800,-0.282506,-0.788902,0.571063,0.226983,0.000000,0.000000,0.000000,-1,1.494068,3.306890,-0.770951,0.711464,0.836057,-0.135156
"2019-04-05 12:09:50.139 +0000",1554466190.139257,-1.784300,-0.594581,-0.240225,-0.809575,0.560162,0.175522,0.000000,0.000000,0.000000,-1,1.023988,1.652344,-1.034347,0.354374,0.768818,-0.062058
"2019-04-05 12:09:50.162 +0000",1554466190.161548,-1.713010,-0.570877,-0.238906,-0.832933,0.540370,0.119259,0.000000,0.000000,0.000000,-1,-0.790370,4.410858,-1.023635,-0.510481,0.046620,0.533420
"2019-04-05 12:09:50.184 +0000",1554466190.183842,-1.585013,-0.563869,-0.272499,-0.845108,0.534460,0.012016,0.000000,0.000000,0.000000,-1,-1.523972,7.853866,0.597889,-0.272125,0.076563,0.723153
"2019-04-05 12:09:50.206 +0000",1554466190.206150,-1.421985,-0.592565,-0.329982,-0.820343,0.558491,-0.122986,0.000000,0.000000,0.000000,-1,-2.845915,8.568841,1.126890,0.298309,0.169873,0.857315
"2019-04-05 12:09:50.228 +0000",1554466190.228434,-1.283821,-0.634696,-0.402176,-0.772321,0.592933,-0.227928,0.000000,0.000000,0.000000,-1,-2.663144,7.813707,1.472339,0.711438,0.453683,-0.085197
"2019-04-05 12:09:50.251 +0000",1554466190.250767,-1.140548,-0.682733,-0.420744,-0.705142,0.630916,-0.323605,0.000000,0.000000,0.000000,-1,-0.676415,6.317002,1.993857,0.502750,0.429692,0.134777
"2019-04-05 12:09:50.273 +0000",1554466190.273045,-0.988733,-0.723919,-0.389601,-0.625843,0.662326,-0.411880,0.000000,0.000000,0.000000,-1,0.370478,5.783443,1.964306,0.346912,0.434995,0.208679
"2019-04-05 12:09:50.295 +0000",1554466190.295351,-0.830523,-0.741137,-0.349574,-0.544633,0.675127,-0.497572,0.000000,0.000000,0.000000,-1,0.594569,6.043831,1.197918,0.422029,0.350385,-0.130068
"2019-04-05 12:09:50.318 +0000",1554466190.317672,-0.689888,-0.745784,-0.331128,-0.467509,0.678548,-0.566576,0.000000,0.000000,0.000000,-1,-0.054806,5.322446,0.180597,-0.139058,0.041515,0.133944
"2019-04-05 12:09:50.340 +0000",1554466190.339968,-0.606942,-0.753944,-0.348996,-0.415788,0.684519,-0.598793,0.000000,0.000000,0.000000,-1,-0.787002,3.662954,-0.379356,-0.312971,-0.090647,0.189186
"2019-04-05 12:09:50.362 +0000",1554466190.362243,-0.550792,-0.760832,-0.353468,-0.379052,0.689524,-0.617152,0.000000,0.000000,0.000000,-1,0.020603,2.147230,0.443277,-0.581733,-0.011271,0.253931
"2019-04-05 12:09:50.385 +0000",1554466190.384552,-0.517348,-0.752975,-0.337281,-0.360872,0.683813,-0.634170,0.000000,0.000000,0.000000,-1,0.843951,-0.001971,0.003707,-0.255477,0.067530,0.146057
"2019-04-05 12:09:50.407 +0000",1554466190.406859,-0.558790,-0.733975,-0.331044,-0.393654,0.669826,-0.629579,0.000000,0.000000,0.000000,-1,0.800269,-3.215197,-0.325064,-0.066307,0.026616,-0.031768
"2019-04-05 12:09:50.429 +0000",1554466190.429168,-0.647335,-0.716788,-0.324177,-0.454661,0.656967,-0.601397,0.000000,0.000000,0.000000,-1,0.783239,-4.609981,-0.268031,-0.233556,-0.005004,-0.104231
"2019-04-05 12:09:50.451 +0000",1554466190.451470,-0.745765,-0.693400,-0.309943,-0.521845,0.639156,-0.564940,0.000000,0.000000,0.000000,-1,1.226953,-5.009641,-0.280420,-0.013968,0.160176,-0.057740
"2019-04-05 12:09:50.474 +0000",1554466190.473755,-0.861079,-0.671763,-0.289882,-0.593734,0.622367,-0.510039,0.000000,0.000000,0.000000,-1,1.271801,-6.363436,-0.128203,0.281661,0.148858,-0.100633
"2019-04-05 12:09:50.496 +0000",1554466190.496058,-1.031318,-0.653349,-0.261878,-0.681279,0.607849,-0.407895,0.000000,0.000000,0.000000,-1,1.238144,-9.723001,-0.126928,0.497959,0.107162,-0.188601
"2019-04-05 12:09:50.518 +0000",1554466190.518369,-1.263906,-0.640829,-0.241347,-0.764148,0.597860,-0.242160,0.000000,0.000000,0.000000,-1,0.766604,-11.243785,-0.155809,0.722018,0.147822,-0.229230
"2019-04-05 12:09:50.541 +0000",1554466190.540678,-1.477251,-0.652159,-0.225395,-0.791300,0.606904,-0.074239,0.000000,0.000000,0.000000,-1,0.373246,-8.622689,1.066259,0.589930,0.160476,-0.458308
"2019-04-05 12:09:50.563 +0000",1554466190.562956,-1.608707,-0.674204,-0.216444,-0.780643,0.624275,0.029609,0.000000,0.000000,0.000000,-1,0.352461,-5.052176,0.905540,0.647144,0.084862,-0.523872
"2019-04-05 12:09:50.585 +0000",1554466190.585263,-1.695303,-0.695190,-0.193241,-0.761988,0.640531,0.095366,0.000000,0.000000,0.000000,-1,1.106124,-4.683239,0.794661,0.707773,-0.029401,-0.527602
"2019-04-05 12:09:50.608 +0000",1554466190.607565,-1.801507,-0.706351,-0.180938,-0.740579,0.649062,0.173957,0.000000,0.000000,0.000000,-1,0.152491,-5.235852,0.191292,0.244714,-0.172408,-0.517249
"2019-04-05 12:09:50.630 +0000",1554466190.629879,-1.899094,-0.704795,-0.161054,-0.721062,0.647877,0.245611,0.000000,0.000000,0.000000,-1,1.189578,-4.827428,-0.556213,0.024880,-0.066395,-0.609930
"2019-04-05 12:09:50.652 +0000",1554466190.652157,-1.968047,-0.717284,-0.098783,-0.694910,0.657340,0.291554,0.000000,0.000000,0.000000,-1,2.656033,-4.849096,0.382512,-0.037328,0.087991,-0.261845
"2019-04-05 12:09:50.674 +0000",1554466190.674448,-2.025320,-0.768225,-0.052088,-0.646130,0.694860,0.315729,0.000000,0.000000,0.000000,-1,1.784680,-3.018764,1.715600,0.143491,0.261332,-0.416865
"2019-04-05 12:09:50.697 +0000",1554466190.696772,-2.042386,-0.800744,-0.053323,-0.620184,0.717874,0.316273,0.000000,0.000000,0.000000,-1,0.014946,0.446229,0.861605,0.410604,0.260672,-0.380864
"2019-04-05 12:09:50.719 +0000",1554466190.719054,-2.051765,-0.790711,-0.069497,-0.623544,0.710853,0.325392,0.000000,0.000000,0.000000,-1,-1.013420,-0.751163,-0.734707,0.639017,0.321465,0.048266
"2019-04-05 12:09:50.741 +0000",1554466190.741358,-2.111989,-0.752557,-0.088126,-0.625631,0.683507,0.376037,0.000000,0.000000,0.000000,-1,-1.446043,-2.713156,-1.296809,0.232275,0.303889,0.160569
"2019-04-05 12:09:50.764 +0000",1554466190.763665,-2.192537,-0.729171,-0.101268,-0.606176,0.666252,0.434350,0.000000,0.000000,0.000000,-1,-0.421797,-3.420294,-0.083047,-0.804621,0.235085,0.129768
"2019-04-05 12:09:50.786 +0000",1554466190.785974,-2.256824,-0.735764,-0.104854,-0.573609,0.671154,0.469602,0.000000,0.000000,0.000000,-1,0.161895,-1.862136,0.373537,-0.528930,0.119908,-0.168012
"2019-04-05 12:09:50.808 +0000",1554466190.808261,-2.261398,-0.745373,-0.116489,-0.566457,0.678246,0.468091,0.000000,0.000000,0.000000,-1,-0.086170,1.053991,0.570843,0.193029,-0.197853,-0.488827
"2019-04-05 12:09:50.831 +0000",1554466190.830559,-2.249606,-0.747639,-0.120914,-0.570740,0.679909,0.460413,0.000000,0.000000,0.000000,-1,0.009753,0.041727,-0.036679,0.613281,-0.161614,-0.379358
"2019-04-05 12:09:50.853 +0000",1554466190.852867,-2.271516,-0.743830,-0.121834,-0.562491,0.677112,0.474472,0.000000,0.000000,0.000000,-1,-0.196902,-1.198445,-0.059254,0.415045,-0.195437,-0.348877
"2019-04-05 12:09:50.875 +0000",1554466190.875174,-2.286417,-0.739489,-0.137250,-0.557572,0.673911,0.484725,0.000000,0.000000,0.000000,-1,-0.890317,0.581514,0.315419,0.087220,-0.188880,-0.142516
"2019-04-05 12:09:50.897 +0000",1554466190.897463,-2.292444,-0.714155,-0.184394,-0.567278,0.654979,0.499197,0.000000,0.000000,0.000000,-1,-2.497831,1.288285,0.025614,0.048601,-0.192668,-0.199927
"2019-04-05 12:09:50.920 +0000",1554466190.919764,-2.300737,-0.673807,-0.238727,-0.582349,0.623966,0.521092,0.000000,0.000000,0.000000,-1,-2.454939,0.939438,-0.163555,0.156766,-0.124790,0.033672
"2019-04-05 12:09:50.942 +0000",1554466190.942066,-2.316666,-0.641469,-0.277022,-0.588493,0.598373,0.543715,0.000000,0.000000,0.000000,-1,-1.699974,0.066771,-0.053761,0.111045,-0.103988,0.073396
"2019-04-05 12:09:50.964 +0000",1554466190.964375,-2.335115,-0.637724,-0.318944,-0.579976,0.595368,0.556026,0.000000,0.000000,0.000000,-1,-1.193334,0.994791,1.607986,0.079488,-0.129761,0.092991
"2019-04-05 12:09:50.987 +0000",1554466190.986680,-2.316757,-0.659599,-0.410795,-0.580379,0.612800,0.536317,0.000000,0.000000,0.000000,-1,-2.082134,4.667905,3.582196,0.292965,0.027001,-0.171784
"2019-04-05 12:09:51.009 +0000",1554466191.008992,-2.265788,-0.675001,-0.528582,-0.599629,0.624898,0.499948,0.000000,0.000000,0.000000,-1,-2.797909,5.652834,2.913178,0.786518,-0.141622,-0.276208
"2019-04-05 12:09:51.031 +0000",1554466191.031268,-2.221014,-0.690856,-0.629796,-0.613441,0.637197,0.466551,0.000000,0.000000,0.000000,-1,-1.948296,4.280441,2.939371,1.144691,-0.153295,0.130403
"2019-04-05 12:09:51.054 +0000",1554466191.053578,-2.207496,-0.741081,-0.739241,-0.593189,0.675086,0.438619,0.000000,0.000000,0.000000,-1,-1.469754,3.804047,4.714056,0.334552,0.202997,0.102152
"2019-04-05 12:09:51.076 +0000",1554466191.075885,-2.183027,-0.819712,-0.860728,-0.558480,0.730949,0.392190,0.000000,0.000000,0.000000,-1,-0.883518,5.915450,5.086335,0.376260,0.051216,0.099402
"2019-04-05 12:09:51.098 +0000",1554466191.098192,-2.099348,-0.901619,-0.978678,-0.535688,0.784332,0.312828,0.000000,0.000000,0.000000,-1,-1.077002,8.716734,4.845532,0.789014,0.178711,0.157250
"2019-04-05 12:09:51.120 +0000",1554466191.120464,-1.999249,-0.964119,-1.107432,-0.518605,0.821547,0.236873,0.000000,0.000000,0.000000,-1,-2.151316,8.988802,3.423478,0.431249,0.682679,-0.141765
"2019-04-05 12:09:51.143 +0000",1554466191.142771,-1.911288,-0.997651,-1.224705,-0.511146,0.840200,0.181094,0.000000,0.000000,0.000000,-1,-1.765182,7.853053,2.025712,0.251761,0.698970,-0.020327
"2019-04-05 12:09:51.165 +0000",1554466191.165084,-1.795415,-1.028518,-1.262533,-0.503124,0.856535,0.114951,0.000000,0.000000,0.000000,-1,0.058402,5.669157,1.411962,0.023937,0.978395,0.070138
"2019-04-05 12:09:51.187 +0000",1554466191.187393,-1.735122,-1.053881,-1.290661,-0.487543,0.869348,0.080845,0.000000,0.000000,0.000000,-1,-0.389372,3.003831,1.251830,-0.315985,0.923514,-0.072758
"2019-04-05 12:09:51.210 +0000",1554466191.209671,-1.687067,-1.089973,-1.304452,-0.459387,0.886614,0.053655,0.000000,0.000000,0.000000,-1,0.235104,2.502256,1.905352,-0.026224,0.321699,-0.413961
"2019-04-05 12:09:51.232 +0000",1554466191.231969,-1.616381,-1.137389,-1.282782,-0.419529,0.907540,0.019137,0.000000,0.000000,0.000000,-1,0.798064,2.214554,2.202155,0.169041,0.692085,0.253232
"2019-04-05 12:09:51.254 +0000",1554466191.254287,-1.517745,-1.187500,-1.233541,-0.373454,0.927437,-0.019831,0.000000,0.000000,0.000000,-1,0.872384,2.587377,2.216245,0.224070,0.356941,0.382547
"2019-04-05 12:09:51.277 +0000",1554466191.276594,-1.376168,-1.233119,-1.158516,-0.325042,0.943527,-0.064073,0.000000,0.000000,0.000000,-1,1.038396,3.674614,2.140917,0.231902,-0.021667,0.035433
"2019-04-05 12:09:51.299 +0000",1554466191.298874,-1.126312,-1.267733,-1.003764,-0.269446,0.954427,-0.128329,0.000000,0.000000,0.000000,-1,1.944045,5.114543,2.209158,0.086707,0.123790,0.047427
"2019-04-05 12:09:51.321 +0000",1554466191.321180,-0.785574,-1.281490,-0.777111,-0.201764,0.958442,-0.201693,0.000000,0.000000,0.000000,-1,1.930431,5.639647,2.166035,-0.018283,0.064232,0.192507
"2019-04-05 12:09:51.343 +0000",1554466191.343494,-0.464648,-1.283501,-0.569842,-0.126976,0.959014,-0.253317,0.000000,0.000000,0.000000,-1,1.212897,5.349171,2.203041,0.103370,0.022843,0.097189
"2019-04-05 12:09:51.366 +0000",1554466191.365797,-0.173380,-1.277236,-0.385490,-0.049918,0.957220,-0.285023,0.000000,0.000000,0.000000,-1,0.910222,5.056098,2.159613,0.090888,0.105875,0.264714
"2019-04-05 12:09:51.388 +0000",1554466191.388074,0.080034,-1.267558,-0.236045,0.023874,0.954374,-0.297657,0.000000,0.000000,0.000000,-1,0.243621,4.868482,1.750373,0.092337,0.142900,0.499591
"2019-04-05 12:09:51.410 +0000",1554466191.410373,0.300578,-1.262443,-0.114970,0.089855,0.952835,-0.289883,0.000000,0.000000,0.000000,-1,-0.121809,4.665090,1.682552,-0.177242,0.002289,0.346615
"2019-04-05 12:09:51.433 +0000",1554466191.432690,0.515217,-1.235801,0.001241,0.161990,0.944412,-0.286087,0.000000,0.000000,0.000000,-1,0.834678,4.643963,2.159517,-0.315783,0.096619,0.453414
"2019-04-05 12:09:51.455 +0000",1554466191.454998,0.688461,-1.189186,0.077378,0.236614,0.928066,-0.287588,0.000000,0.000000,0.000000,-1,1.007750,4.600984,2.159973,-0.220440,0.094013,0.501791
"2019-04-05 12:09:51.477 +0000",1554466191.477275,0.864240,-1.141287,0.149652,0.316734,0.909170,-0.270351,0.000000,0.000000,0.000000,-1,0.391176,5.105251,2.521192,-0.027213,0.084009,0.309719
"2019-04-05 12:09:51.500 +0000",1554466191.499583,1.047642,-1.101106,0.221333,0.392072,0.891708,-0.226131,0.000000,0.000000,0.000000,-1,-0.471336,5.064854,2.029927,-0.124739,0.206177,0.303798
"2019-04-05 12:09:51.522 +0000",1554466191.521891,1.194658,-1.075238,0.279043,0.442279,0.879704,-0.174674,0.000000,0.000000,0.000000,-1,-0.366625,3.894015,1.451108,-0.221301,0.190716,0.258323
"2019-04-05 12:09:51.544 +0000",1554466191.544182,1.283448,-1.040893,0.293318,0.484726,0.862856,-0.143250,0.000000,0.000000,0.000000,-1,0.455129,3.229428,1.601262,-0.239853,0.262968,0.285126
"2019-04-05 12:09:51.566 +0000",1554466191.566498,1.350934,-0.999586,0.282832,0.527636,0.841247,-0.117914,0.000000,0.000000,0.000000,-1,0.779038,3.664989,1.906429,0.088209,0.180573,0.074594
"2019-04-05 12:09:51.589 +0000",1554466191.588784,1.431704,-0.952790,0.273265,0.573816,0.815035,-0.080332,0.000000,0.000000,0.000000,-1,0.570524,4.008802,2.084407,0.136099,0.147825,-0.072622
"2019-04-05 12:09:51.611 +0000",1554466191.611092,1.467174,-0.895737,0.230220,0.621591,0.780670,-0.064642,0.000000,0.000000,0.000000,-1,2.281237,2.381611,2.613168,0.139258,0.168305,-0.108377
"2019-04-05 12:09:51.633 +0000",1554466191.633394,1.413253,-0.833240,0.113756,0.664153,0.740114,-0.105507,0.000000,0.000000,0.000000,-1,4.495122,1.088124,1.898641,0.044602,0.390532,0.056343
"2019-04-05 12:09:51.656 +0000",1554466191.655706,1.304746,-0.785319,-0.061266,0.682282,0.707051,-0.185929,0.000000,0.000000,0.000000,-1,6.317720,0.820973,0.708473,0.032180,0.396785,0.043824
"2019-04-05 12:09:51.678 +0000",1554466191.677984,1.242353,-0.708902,-0.232098,0.718501,0.651000,-0.244855,0.000000,0.000000,0.000000,-1,6.254797,4.056128,2.267621,-0.081767,0.316361,-0.031710
"2019-04-05 12:09:51.700 +0000",1554466191.700293,1.299762,-0.611337,-0.376605,0.788988,0.573963,-0.219237,0.000000,0.000000,0.000000,-1,6.255921,7.057972,2.654075,-0.506502,0.305431,-0.184785
"2019-04-05 12:09:51.723 +0000",1554466191.722596,1.350115,-0.505584,-0.519533,0.853675,0.484318,-0.191509,0.000000,0.000000,0.000000,-1,6.396235,4.487157,3.967118,-0.306998,0.447414,0.424526
"2019-04-05 12:09:51.745 +0000",1554466191.744891,1.338841,-0.355317,-0.625052,0.912428,0.347888,-0.215522,0.000000,0.000000,0.000000,-1,4.775626,-0.283677,6.617630,-0.431242,0.673978,0.326163
"2019-04-05 12:09:51.767 +0000",1554466191.767186,1.275991,-0.176118,-0.631003,0.942057,0.175209,-0.286059,0.000000,0.000000,0.000000,-1,0.756751,-3.667415,8.122190,-0.505229,0.435615,0.156161
"2019-04-05 12:09:51.790 +0000",1554466191.789505,1.231782,-0.012113,-0.534311,0.943014,0.012113,-0.332534,0.000000,0.000000,0.000000,-1,-3.155782,-1.653220,8.343299,-0.127279,0.549197,0.480925
"2019-04-05 12:09:51.812 +0000",1554466191.811801,1.163777,0.126892,-0.376884,0.910922,-0.126552,-0.392691,0.000000,0.000000,0.000000,-1,-4.577277,-3.787060,8.623384,0.133848,0.757885,0.449866
"2019-04-05 12:09:51.834 +0000",1554466191.834109,1.009338,0.272202,-0.199449,0.815313,-0.268853,-0.512818,0.000000,0.000000,0.000000,-1,-3.155702,-5.820749,9.679138,-0.486425,0.884103,0.166184
"2019-04-05 12:09:51.856 +0000",1554466191.856384,0.872560,0.406942,-0.049960,0.703424,-0.395803,-0.590368,0.000000,0.000000,0.000000,-1,-0.693704,-2.341917,7.485809,0.161963,0.339941,0.048636
"2019-04-05 12:09:51.879 +0000",1554466191.878695,0.803449,0.496998,0.041339,0.632677,-0.476789,-0.610239,0.000000,0.000000,0.000000,-1,0.225618,-1.004951,4.463542,0.371793,0.269254,-0.186316
"2019-04-05 12:09:51.901 +0000",1554466191.901002,0.743674,0.566771,0.100221,0.571141,-0.536911,-0.620907,0.000000,0.000000,0.000000,-1,0.934617,-1.629991,3.717627,0.159908,0.110611,-0.377628
"2019-04-05 12:09:51.923 +0000",1554466191.923312,0.669755,0.642277,0.149319,0.497091,-0.599020,-0.627754,0.000000,0.000000,0.000000,-1,1.655196,-2.407233,3.376243,-0.176275,0.454535,0.055245
"2019-04-05 12:09:51.946 +0000",1554466191.945588,0.599576,0.712007,0.178539,0.427199,-0.653354,-0.625003,0.000000,0.000000,0.000000,-1,1.912282,-1.824337,2.341530,0.392335,0.315876,0.042575
"2019-04-05 12:09:51.968 +0000",1554466191.967898,0.564804,0.756565,0.215743,0.389233,-0.686427,-0.614260,0.000000,0.000000,0.000000,-1,0.224820,-0.367379,2.006574,0.265415,0.023296,0.176927
"2019-04-05 12:09:51.990 +0000",1554466191.990205,0.512623,0.769957,0.278608,0.352125,-0.696105,-0.625657,0.000000,0.000000,0.000000,-1,-0.690174,-0.151985,2.137008,0.126574,0.215468,0.111176
"2019-04-05 12:09:52.013 +0000",1554466192.012513,0.454664,0.786224,0.356214,0.310277,-0.707690,-0.634746,0.000000,0.000000,0.000000,-1,-0.348563,-0.178565,2.861866,0.030101,0.192019,0.203182
"2019-04-05 12:09:52.035 +0000",1554466192.034789,0.378162,0.810599,0.463903,0.254412,-0.724700,-0.640379,0.000000,0.000000,0.000000,-1,-0.542691,0.318170,3.774133,0.319349,0.191436,0.235380
"2019-04-05 12:09:52.057 +0000",1554466192.057099,0.343010,0.813153,0.521916,0.231125,-0.726457,-0.647179,0.000000,0.000000,0.000000,-1,-0.424944,0.453794,0.019104,0.348220,0.104402,0.124962
"2019-04-05 12:09:52.079 +0000",1554466192.079401,0.385684,0.795978,0.469342,0.263179,-0.714548,-0.648195,0.000000,0.000000,0.000000,-1,0.088451,0.057610,-2.285806,0.647862,0.219019,0.111620
"2019-04-05 12:09:52.102 +0000",1554466192.101713,0.424112,0.788843,0.411989,0.289978,-0.709539,-0.642236,0.000000,0.000000,0.000000,-1,0.565037,0.003533,-1.369603,-0.025589,0.511861,0.113001
"2019-04-05 12:09:52.124 +0000",1554466192.123992,0.457555,0.784426,0.388533,0.312672,-0.706419,-0.634987,0.000000,0.000000,0.000000,-1,-0.429378,1.421891,-0.308311,-0.395482,0.135710,0.002739
"2019-04-05 12:09:52.146 +0000",1554466192.146301,0.510566,0.754385,0.399978,0.356092,-0.684840,-0.635761,0.000000,0.000000,0.000000,-1,-1.850278,4.503507,-0.451644,0.032153,-0.055440,0.191868
"2019-04-05 12:09:52.169 +0000",1554466192.168609,0.637158,0.728764,0.422897,0.443805,-0.665948,-0.599626,0.000000,0.000000,0.000000,-1,-0.787943,7.055803,0.633958,0.225995,0.321237,0.057115
"2019-04-05 12:09:52.191 +0000",1554466192.190916,0.768138,0.755014,0.451460,0.505994,-0.685299,-0.523770,0.000000,0.000000,0.000000,-1,0.774266,6.439720,1.795040,0.246524,0.330349,0.174542
"2019-04-05 12:09:52.213 +0000",1554466192.213193,0.887740,0.799386,0.456401,0.540740,-0.716928,-0.440016,0.000000,0.000000,0.000000,-1,1.445718,4.510395,1.288945,-0.347137,0.293650,0.323698
"2019-04-05 12:09:52.236 +0000",1554466192.235500,0.934900,0.816920,0.420769,0.550683,-0.729041,-0.406506,0.000000,0.000000,0.000000,-1,1.124717,-1.316331,-1.088450,0.415076,0.224601,-0.247409
"2019-04-05 12:09:52.258 +0000",1554466192.257809,0.888169,0.778784,0.373443,0.552274,-0.702415,-0.449007,0.000000,0.000000,0.000000,-1,-0.528466,-4.195893,-2.439357,0.275836,0.353202,0.005541
"2019-04-05 12:09:52.280 +0000",1554466192.280116,0.817371,0.729078,0.367728,0.543941,-0.666182,-0.510225,0.000000,0.000000,0.000000,-1,-1.656230,-2.898435,-1.452722,0.298970,0.520553,-0.181136
"2019-04-05 12:09:52.302 +0000",1554466192.302401,0.757077,0.676410,0.370859,0.535583,-0.625997,-0.566813,0.000000,0.000000,0.000000,-1,-1.693635,-2.520783,-1.768706,0.172104,0.101568,0.160609
"2019-04-05 12:09:52.325 +0000",1554466192.324702,0.707305,0.630929,0.365140,0.524690,-0.589895,-0.613778,0.000000,0.000000,0.000000,-1,-1.114566,-2.302211,-1.297752,0.249999,0.065771,0.272226
"2019-04-05 12:09:52.347 +0000",1554466192.347011,0.678989,0.595473,0.337021,0.519916,-0.560900,-0.644265,0.000000,0.000000,0.000000,-1,-0.176925,-1.734305,-2.466019,0.198636,0.201876,0.092355
"2019-04-05 12:09:52.369 +0000",1554466192.369317,0.718538,0.542392,0.247816,0.563805,-0.516186,-0.644729,0.000000,0.000000,0.000000,-1,0.584415,0.723747,-5.045507,0.426856,0.189404,-0.029771
"2019-04-05 12:09:52.392 +0000",1554466192.391621,0.806480,0.460878,0.113579,0.646539,-0.444734,-0.619837,0.000000,0.000000,0.000000,-1,1.210477,1.688213,-7.018817,0.038260,0.028765,0.053645
"2019-04-05 12:09:52.414 +0000",1554466192.413903,0.920309,0.353186,-0.031798,0.746669,-0.345889,-0.568195,0.000000,0.000000,0.000000,-1,1.470672,2.712977,-7.672883,0.007497,0.194522,0.220020
"2019-04-05 12:09:52.436 +0000",1554466192.436213,1.015574,0.244103,-0.157516,0.824591,-0.241686,-0.511505,0.000000,0.000000,0.000000,-1,1.888551,2.533673,-6.367304,0.112985,0.375414,0.186615
"2019-04-05 12:09:52.459 +0000",1554466192.458527,1.098460,0.196200,-0.252966,0.873423,-0.194944,-0.446239,0.000000,0.000000,0.000000,-1,2.850010,2.827952,-2.262074,0.452459,0.004819,0.096279
"2019-04-05 12:09:52.481 +0000",1554466192.480828,1.197765,0.198772,-0.300566,0.912891,-0.197466,-0.357264,0.000000,0.000000,0.000000,-1,1.135048,5.120619,-0.252394,0.401272,0.243029,0.106928
"2019-04-05 12:09:52.503 +0000",1554466192.503104,1.354756,0.204991,-0.293614,0.956303,-0.203558,-0.209876,0.000000,0.000000,0.000000,-1,-0.753993,7.960703,0.501886,-0.004857,0.051413,-0.187555
"2019-04-05 12:09:52.525 +0000",1554466192.525408,1.455022,0.213098,-0.279470,0.970838,-0.211488,-0.112903,0.000000,0.000000,0.000000,-1,-0.471245,2.708479,-0.025741,0.353290,-0.048201,0.108570
"2019-04-05 12:09:52.548 +0000",1554466192.547719,1.473549,0.173037,-0.282386,0.980412,-0.172175,-0.095644,0.000000,0.000000,0.000000,-1,0.245896,-0.762874,-2.295823,0.304897,0.385554,0.160479
"2019-04-05 12:09:52.570 +0000",1554466192.570015,1.430007,0.146335,-0.290643,0.979523,-0.145813,-0.138825,0.000000,0.000000,0.000000,-1,-0.133538,-2.580821,-0.603877,0.405715,0.490768,-0.146575
"2019-04-05 12:09:52.592 +0000",1554466192.592305,1.364495,0.148432,-0.247412,0.968033,-0.147887,-0.202588,0.000000,0.000000,0.000000,-1,-3.059277,-2.441503,1.070844,-0.468399,0.472564,0.152814
"2019-04-05 12:09:52.615 +0000",1554466192.614612,1.277679,0.161625,-0.141704,0.944871,-0.160922,-0.285173,0.000000,0.000000,0.000000,-1,-4.882432,-3.599781,2.044245,-0.347077,0.262530,-0.146285
"2019-04-05 12:09:52.637 +0000",1554466192.636923,1.203594,0.171876,-0.017845,0.919583,-0.171031,-0.353716,0.000000,0.000000,0.000000,-1,-4.982310,-1.748008,2.155540,0.149158,0.398662,0.039797
"2019-04-05 12:09:52.659 +0000",1554466192.659229,1.151002,0.170372,0.093432,0.899952,-0.169549,-0.401672,0.000000,0.000000,0.000000,-1,-4.263057,-1.372286,1.593118,0.696774,0.238808,0.243346
"2019-04-05 12:09:52.682 +0000",1554466192.681508,1.106967,0.163034,0.177505,0.882486,-0.162312,-0.441444,0.000000,0.000000,0.000000,-1,-3.005501,-1.457062,1.163942,0.391867,0.084508,0.238075
"2019-04-05 12:09:52.704 +0000",1554466192.703815,1.061011,0.158743,0.233041,0.861875,-0.158077,-0.481854,0.000000,0.000000,0.000000,-1,-1.866624,-1.700017,0.880021,0.200503,0.096981,0.209271
"2019-04-05 12:09:52.726 +0000",1554466192.726125,1.020054,0.160011,0.275016,0.841251,-0.159329,-0.516634,0.000000,0.000000,0.000000,-1,-1.524446,-1.444453,1.081348,0.271740,0.039440,0.215899
"2019-04-05 12:09:52.748 +0000",1554466192.748429,0.980741,0.166986,0.318998,0.819352,-0.166211,-0.548667,0.000000,0.000000,0.000000,-1,-1.415103,-1.471290,1.446352,0.286071,-0.051226,0.089454
"2019-04-05 12:09:52.771 +0000",1554466192.770708,0.937920,0.173144,0.361212,0.794273,-0.172281,-0.582623,0.000000,0.000000,0.000000,-1,-1.311830,-1.765815,0.982567,0.342491,-0.042975,0.171810
"2019-04-05 12:09:52.793 +0000",1554466192.793016,0.880947,0.162384,0.383636,0.761195,-0.161671,-0.628049,0.000000,0.000000,0.000000,-1,-0.908056,-2.771211,-0.109935,0.394872,0.045750,0.294064
"2019-04-05 12:09:52.815 +0000",1554466192.815324,0.826453,0.151369,0.397141,0.727123,-0.150791,-0.669742,0.000000,0.000000,0.000000,-1,-0.812866,-1.592432,0.272893,0.423909,0.096379,0.347522
"2019-04-05 12:09:52.838 +0000",1554466192.837634,0.815185,0.149762,0.428282,0.719705,-0.149203,-0.678058,0.000000,0.000000,0.000000,-1,-1.138758,0.106460,1.276157,-0.087701,0.028918,0.137866
"2019-04-05 12:09:52.860 +0000",1554466192.859939,0.799507,0.159159,0.477965,0.707950,-0.158488,-0.688250,0.000000,0.000000,0.000000,-1,-1.420759,-0.717196,2.085978,0.074887,0.027904,0.214968
"2019-04-05 12:09:52.882 +0000",1554466192.882241,0.762991,0.167708,0.536613,0.681390,-0.166923,-0.712632,0.000000,0.000000,0.000000,-1,-1.597349,-1.449668,1.968350,0.536994,0.134254,0.281663
"2019-04-05 12:09:52.905 +0000",1554466192.904524,0.722412,0.159394,0.578658,0.652815,-0.158720,-0.740703,0.000000,0.000000,0.000000,-1,-1.364845,-1.444018,0.539296,0.582979,0.132627,0.247676
"2019-04-05 12:09:52.927 +0000",1554466192.926836,0.690957,0.142678,0.587757,0.630800,-0.142194,-0.762806,0.000000,0.000000,0.000000,-1,-0.598832,-1.180859,-0.524614,0.527373,0.113523,0.343433
"2019-04-05 12:09:52.949 +0000",1554466192.949140,0.691206,0.122982,0.585098,0.632652,-0.122672,-0.764659,0.000000,0.000000,0.000000,-1,-0.675276,0.775042,-0.528363,0.162682,0.120764,0.434199
"2019-04-05 12:09:52.971 +0000",1554466192.971420,0.727800,0.109266,0.593312,0.661262,-0.109048,-0.742187,0.000000,0.000000,0.000000,-1,-0.686999,1.992795,0.083574,-0.136726,0.194345,-0.055985
"2019-04-05 12:09:52.994 +0000",1554466192.993738,0.752256,0.111703,0.589175,0.679029,-0.111471,-0.725599,0.000000,0.000000,0.000000,-1,1.333904,0.053991,-0.476442,0.165270,0.345327,0.615980
"2019-04-05 12:09:53.016 +0000",1554466193.016036,0.740990,0.109261,0.563776,0.670994,-0.109044,-0.733401,0.000000,0.000000,0.000000,-1,-0.678921,0.262552,-0.721061,0.325237,0.280049,0.482882
"2019-04-05 12:09:53.038 +0000",1554466193.038315,0.757770,0.079206,0.571862,0.685149,-0.079123,-0.724093,0.000000,0.000000,0.000000,-1,-1.594867,0.740126,-0.868355,0.393175,0.133169,-0.220106
"2019-04-05 12:09:53.061 +0000",1554466193.060620,0.787264,0.034655,0.578188,0.707999,-0.034648,-0.705363,0.000000,0.000000,0.000000,-1,-1.494460,1.578688,-1.302502,0.082620,-0.068501,-0.162283
"2019-04-05 12:09:53.083 +0000",1554466193.082928,0.817360,0.010933,0.586235,0.729298,-0.010933,-0.684108,0.000000,0.000000,0.000000,-1,-0.625625,0.982246,-0.076143,0.088039,-0.018547,0.067089
"2019-04-05 12:09:53.105 +0000",1554466193.105237,0.818930,0.005375,0.596157,0.730405,-0.005375,-0.682993,0.000000,0.000000,0.000000,-1,-0.465133,-0.299966,0.123870,-0.169813,0.108982,0.348490
"2019-04-05 12:09:53.128 +0000",1554466193.127544,0.821509,0.000845,0.605772,0.732175,-0.000845,-0.681117,0.000000,0.000000,0.000000,-1,-0.411461,0.669727,0.203363,0.140293,0.185888,0.023081
"2019-04-05 12:09:53.150 +0000",1554466193.149822,0.856045,-0.003071,0.614999,0.755253,0.003071,-0.655427,0.000000,0.000000,0.000000,-1,-0.523016,1.722087,0.046350,0.188626,0.183010,-0.058990
"2019-04-05 12:09:53.172 +0000",1554466193.172129,0.884580,-0.022212,0.625798,0.773458,0.022210,-0.633458,0.000000,0.000000,0.000000,-1,-1.157079,0.889042,-0.580443,0.201319,0.111747,0.047811
"2019-04-05 12:09:53.194 +0000",1554466193.194447,0.902768,-0.049006,0.635529,0.784102,0.048987,-0.618696,0.000000,0.000000,0.000000,-1,-0.961653,0.904868,-0.645008,0.298250,0.148294,-0.006624
"2019-04-05 12:09:53.217 +0000",1554466193.216745,0.918900,-0.069183,0.637383,0.793033,0.069128,-0.605244,0.000000,0.000000,0.000000,-1,-0.318201,0.704728,-0.618145,0.191235,0.093729,0.021107
"2019-04-05 12:09:53.239 +0000",1554466193.239023,0.921218,-0.077375,0.629875,0.793956,0.077298,-0.603041,0.000000,0.000000,0.000000,-1,0.236330,-0.520602,-0.384974,0.317158,0.117252,0.097777
"2019-04-05 12:09:53.261 +0000",1554466193.261321,0.895287,-0.074170,0.623014,0.778243,0.074102,-0.623576,0.000000,0.000000,0.000000,-1,0.284157,-1.299883,0.093369,0.396073,0.078516,0.054713
"2019-04-05 12:09:53.284 +0000",1554466193.283637,0.878864,-0.065839,0.628379,0.768346,0.065792,-0.636644,0.000000,0.000000,0.000000,-1,-0.152062,-0.425799,0.633743,0.291392,-0.045162,0.066500
"2019-04-05 12:09:53.306 +0000",1554466193.305933,0.879378,-0.073584,0.644684,0.768258,0.073517,-0.635905,0.000000,0.000000,0.000000,-1,-1.134630,0.308632,-0.206841,0.243461,-0.116272,0.131373
"2019-04-05 12:09:53.328 +0000",1554466193.328222,0.897609,-0.108917,0.659720,0.777205,0.108702,-0.619787,0.000000,0.000000,0.000000,-1,-1.648202,0.934955,-1.061151,0.248109,-0.033507,0.256399
"2019-04-05 12:09:53.351 +0000",1554466193.350532,0.930556,-0.151101,0.671320,0.792815,0.150527,-0.590581,0.000000,0.000000,0.000000,-1,-1.427432,1.611199,-1.173745,0.060258,-0.095534,0.307790
"2019-04-05 12:09:53.373 +0000",1554466193.372839,0.968503,-0.181655,0.680776,0.810480,0.180658,-0.557212,0.000000,0.000000,0.000000,-1,-1.039839,1.657996,-0.566130,-0.153421,-0.282251,0.366111
"2019-04-05 12:09:53.395 +0000",1554466193.395148,1.004116,-0.185651,0.703969,0.829190,0.184586,-0.527609,0.000000,0.000000,0.000000,-1,-0.911733,1.255996,1.079970,-0.209164,-0.312821,0.417899
"2019-04-05 12:09:53.417 +0000",1554466193.417426,1.039313,-0.152055,0.744994,0.852110,0.151470,-0.500965,0.000000,0.000000,0.000000,-1,-0.693648,1.180686,2.896883,-0.453275,-0.388179,0.409458
"2019-04-05 12:09:53.440 +0000",1554466193.439712,1.058018,-0.086946,0.800409,0.868093,0.086837,-0.488747,0.000000,0.000000,0.000000,-1,-0.750788,0.245527,4.114687,-0.436285,-0.325744,0.426629
"2019-04-05 12:09:53.462 +0000",1554466193.462019,1.071194,-0.015955,0.866324,0.877662,0.015954,-0.479015,0.000000,0.000000,0.000000,-1,-1.259799,0.737294,4.093977,-0.337317,-0.282083,0.556179
"2019-04-05 12:09:53.484 +0000",1554466193.484314,1.091865,0.026398,0.925818,0.887179,-0.026395,-0.460670,0.000000,0.000000,0.000000,-1,-1.528555,0.608081,1.881884,-0.153414,-0.145465,0.513298
"2019-04-05 12:09:53.507 +0000",1554466193.506635,1.073680,0.015863,0.960848,0.878851,-0.015862,-0.476833,0.000000,0.000000,0.000000,-1,-1.563796,-1.556571,-0.552706,0.030146,-0.144446,0.570125
"2019-04-05 12:09:53.529 +0000",1554466193.528913,1.013235,-0.025020,0.966155,0.848282,0.025018,-0.528953,0.000000,0.000000,0.000000,-1,-0.663146,-3.547513,-1.749136,0.100860,-0.089883,0.520194
"2019-04-05 12:09:53.551 +0000",1554466193.551220,0.882942,-0.041670,0.931276,0.771939,0.041658,-0.634330,0.000000,0.000000,0.000000,-1,1.888624,-7.214388,-1.334648,-0.155820,0.129744,0.375968
"2019-04-05 12:09:53.574 +0000",1554466193.573528,0.706159,0.000560,0.855988,0.648916,-0.000560,-0.760860,0.000000,0.000000,0.000000,-1,4.674031,-7.214952,-1.148609,-0.092962,0.170634,0.400661
"2019-04-05 12:09:53.596 +0000",1554466193.595831,0.616922,0.059890,0.745785,0.577490,-0.059854,-0.814201,0.000000,0.000000,0.000000,-1,5.128448,-2.414857,-3.102696,0.540903,0.212885,0.143256
"2019-04-05 12:09:53.618 +0000",1554466193.618109,0.607311,0.103032,0.609123,0.567635,-0.102850,-0.816830,0.000000,0.000000,0.000000,-1,5.109165,-0.472841,-4.159516,0.967689,0.303305,-0.071307
"2019-04-05 12:09:53.640 +0000",1554466193.640422,0.605623,0.148299,0.471664,0.563026,-0.147756,-0.813123,0.000000,0.000000,0.000000,-1,5.058411,-1.278723,-3.550722,0.418236,0.418783,0.287824
"2019-04-05 12:09:53.663 +0000",1554466193.662724,0.593359,0.192125,0.358103,0.548861,-0.190945,-0.813813,0.000000,0.000000,0.000000,-1,3.971488,-1.223381,-2.798671,0.325559,0.429257,0.340775
"2019-04-05 12:09:53.685 +0000",1554466193.685030,0.595174,0.211153,0.274428,0.548201,-0.209588,-0.809660,0.000000,0.000000,0.000000,-1,2.017038,-0.281637,-2.393435,0.332140,0.423668,0.360502
"2019-04-05 12:09:53.707 +0000",1554466193.707321,0.619411,0.205753,0.223938,0.568310,-0.204304,-0.797046,0.000000,0.000000,0.000000,-1,0.530685,1.081012,-1.687894,0.167346,0.420765,0.555317
"2019-04-05 12:09:53.730 +0000",1554466193.729618,0.665648,0.176918,0.207101,0.607929,-0.175997,-0.774240,0.000000,0.000000,0.000000,-1,-1.287840,2.400752,-1.226501,0.085995,0.359621,0.562646
"2019-04-05 12:09:53.752 +0000",1554466193.751925,0.714092,0.125678,0.222283,0.649766,-0.125347,-0.749728,0.000000,0.000000,0.000000,-1,-2.676196,1.849567,-0.775609,0.038115,0.277554,0.555499
"2019-04-05 12:09:53.774 +0000",1554466193.774233,0.728663,0.061780,0.265391,0.664602,-0.061740,-0.744642,0.000000,0.000000,0.000000,-1,-3.871655,0.277838,-0.220053,0.132593,0.247272,0.543867
"2019-04-05 12:09:53.797 +0000",1554466193.796510,0.713346,-0.007544,0.338770,0.654349,0.007544,-0.756155,0.000000,0.000000,0.000000,-1,-4.808040,-1.112465,0.779358,0.410119,0.191172,0.291876
"2019-04-05 12:09:53.819 +0000",1554466193.818828,0.657129,-0.068188,0.434964,0.609427,0.068135,-0.789909,0.000000,0.000000,0.000000,-1,-4.661515,-3.986986,2.128594,0.661676,0.113933,0.161949
"2019-04-05 12:09:53.841 +0000",1554466193.841128,0.569679,-0.111287,0.530994,0.536025,0.111057,-0.836865,0.000000,0.000000,0.000000,-1,-3.656851,-3.415015,2.323674,0.762131,0.034939,0.233517
"2019-04-05 12:09:53.863 +0000",1554466193.863434,0.554707,-0.148551,0.609194,0.520894,0.148005,-0.840693,0.000000,0.000000,0.000000,-1,-3.064661,0.207011,2.056073,0.825023,-0.129618,-0.088613
"2019-04-05 12:09:53.886 +0000",1554466193.885714,0.592121,-0.168840,0.687259,0.550186,0.168039,-0.817960,0.000000,0.000000,0.000000,-1,-2.293656,1.111623,2.724468,0.605256,-0.187479,-0.253711
"2019-04-05 12:09:53.908 +0000",1554466193.908022,0.628138,-0.150607,0.760281,0.580987,0.150038,-0.799964,0.000000,0.000000,0.000000,-1,-0.471737,0.922378,3.213221,-0.087289,-0.129317,-0.091332
"2019-04-05 12:09:53.930 +0000",1554466193.930330,0.628352,-0.121060,0.808216,0.583510,0.120764,-0.803076,0.000000,0.000000,0.000000,-1,-0.295389,-1.017753,1.874607,0.028871,-0.104254,-0.157053
"2019-04-05 12:09:53.953 +0000",1554466193.952641,0.613705,-0.108615,0.836371,0.572506,0.108401,-0.812703,0.000000,0.000000,0.000000,-1,-0.201449,-0.340383,1.111905,0.076328,-0.030093,-0.162151
"2019-04-05 12:09:53.975 +0000",1554466193.974915,0.624463,-0.103417,0.851396,0.581538,0.103233,-0.806943,0.000000,0.000000,0.000000,-1,-0.240093,0.652002,0.388528,0.090535,0.142128,-0.280200
"2019-04-05 12:09:53.997 +0000",1554466193.997225,0.631892,-0.109965,0.854969,0.587104,0.109744,-0.802038,0.000000,0.000000,0.000000,-1,-0.373304,0.235040,-0.218174,-0.095573,0.151364,-0.027827
"2019-04-05 12:09:54.020 +0000",1554466194.019535,0.649188,-0.117834,0.854513,0.600347,0.117561,-0.791052,0.000000,0.000000,0.000000,-1,-0.080084,1.140878,-0.135530,-0.368322,0.074989,0.284994
"2019-04-05 12:09:54.042 +0000",1554466194.041842,0.683220,-0.108355,0.850207,0.627591,0.108143,-0.770996,0.000000,0.000000,0.000000,-1,0.765938,1.629810,0.235136,-0.216321,0.148464,0.086029
"2019-04-05 12:09:54.064 +0000",1554466194.064149,0.713866,-0.086932,0.837561,0.652288,0.086823,-0.752982,0.000000,0.000000,0.000000,-1,1.229222,1.325574,0.084208,-0.019231,0.191986,0.053168
"2019-04-05 12:09:54.086 +0000",1554466194.086426,0.745300,-0.068057,0.817566,0.676623,0.068004,-0.733183,0.000000,0.000000,0.000000,-1,1.172023,1.597754,-0.146492,0.160917,0.157108,0.026915
"2019-04-05 12:09:54.109 +0000",1554466194.108735,0.778333,-0.052898,0.801709,0.701111,0.052873,-0.711089,0.000000,0.000000,0.000000,-1,0.831420,1.362122,0.035332,0.330139,0.211409,-0.041337
"2019-04-05 12:09:54.131 +0000",1554466194.131025,0.796998,-0.041995,0.795931,0.714631,0.041983,-0.698241,0.000000,0.000000,0.000000,-1,0.327536,0.575464,0.256713,0.337066,0.201685,0.088332
"2019-04-05 12:09:54.153 +0000",1554466194.153337,0.803811,-0.034126,0.804718,0.719587,0.034120,-0.693564,0.000000,0.000000,0.000000,-1,-0.267948,0.120622,0.721976,0.176348,0.121978,0.303137
"2019-04-05 12:09:54.176 +0000",1554466194.175630,0.797921,-0.032460,0.829361,0.715529,0.032455,-0.697828,0.000000,0.000000,0.000000,-1,-1.057136,-0.618748,0.796431,0.145707,0.110993,0.339155
"2019-04-05 12:09:54.198 +0000",1554466194.197935,0.768660,-0.039921,0.863565,0.694619,0.039910,-0.718270,0.000000,0.000000,0.000000,-1,-1.325689,-1.836042,0.970873,0.148597,0.060126,0.422494
"2019-04-05 12:09:54.220 +0000",1554466194.220245,0.720584,-0.044398,0.897032,0.659173,0.044383,-0.750680,0.000000,0.000000,0.000000,-1,-1.057948,-2.220141,0.866470,0.353629,0.061192,0.451410
"2019-04-05 12:09:54.243 +0000",1554466194.242533,0.685972,-0.049018,0.917039,0.632665,0.048998,-0.772874,0.000000,0.000000,0.000000,-1,-0.502440,-1.273418,0.358366,0.559672,0.037092,0.283571
"2019-04-05 12:09:54.265 +0000",1554466194.264832,0.655006,-0.046806,0.921406,0.608497,0.046789,-0.792176,0.000000,0.000000,0.000000,-1,0.249162,-1.609667,0.168149,0.532434,0.031260,0.270753
"2019-04-05 12:09:54.287 +0000",1554466194.287139,0.607282,-0.031343,0.912737,0.570357,0.031338,-0.820799,0.000000,0.000000,0.000000,-1,1.122271,-2.377525,0.010347,0.398591,0.037540,0.304563
"2019-04-05 12:09:54.309 +0000",1554466194.309447,0.569823,-0.012621,0.890170,0.539440,0.012621,-0.841929,0.000000,0.000000,0.000000,-1,1.266186,-1.002089,-0.610906,0.185184,0.006087,0.295451
"2019-04-05 12:09:54.332 +0000",1554466194.331755,0.576092,-0.004345,0.857876,0.544745,0.004345,-0.838590,0.000000,0.000000,0.000000,-1,0.928653,0.917959,-1.269454,0.111276,0.034061,0.260984
"2019-04-05 12:09:54.354 +0000",1554466194.354034,0.614001,-0.012642,0.821908,0.576096,0.012642,-0.817284,0.000000,0.000000,0.000000,-1,0.402327,2.123020,-1.657501,0.008987,0.027825,0.251564
"2019-04-05 12:09:54.376 +0000",1554466194.376338,0.664322,-0.026593,0.791409,0.616308,0.026590,-0.787057,0.000000,0.000000,0.000000,-1,0.306376,2.359575,-1.234136,-0.374624,-0.019617,0.537621
"2019-04-05 12:09:54.399 +0000",1554466194.398648,0.735580,-0.038253,0.774895,0.670526,0.038244,-0.740899,0.000000,0.000000,0.000000,-1,-0.197701,3.862945,-0.829635,-0.393289,-0.007665,0.460290
"2019-04-05 12:09:54.421 +0000",1554466194.420957,0.802884,-0.072526,0.774808,0.717471,0.072462,-0.692809,0.000000,0.000000,0.000000,-1,-1.567512,1.601599,-1.080586,-0.187854,-0.010222,0.198638
"2019-04-05 12:09:54.443 +0000",1554466194.443234,0.784757,-0.102101,0.799310,0.702973,0.101923,-0.703875,0.000000,0.000000,0.000000,-1,-1.656833,-1.993452,0.382872,0.102111,-0.048853,0.236026
"2019-04-05 12:09:54.466 +0000",1554466194.465541,0.747147,-0.121049,0.833426,0.674576,0.120753,-0.728262,0.000000,0.000000,0.000000,-1,-1.807177,-1.245899,0.300498,0.345139,0.119984,0.075903
"2019-04-05 12:09:54.488 +0000",1554466194.487849,0.755321,-0.151251,0.862942,0.677696,0.150675,-0.719739,0.000000,0.000000,0.000000,-1,-1.835576,0.912038,0.048109,0.482475,0.060583,0.066862
"2019-04-05 12:09:54.510 +0000",1554466194.510157,0.791911,-0.173293,0.891620,0.701038,0.172427,-0.691965,0.000000,0.000000,0.000000,-1,-1.403877,1.350024,0.332212,0.319226,0.010266,0.109430
"2019-04-05 12:09:54.532 +0000",1554466194.532436,0.803107,-0.180820,0.919367,0.707787,0.179836,-0.683152,0.000000,0.000000,0.000000,-1,-0.978274,-0.465198,0.730594,0.295067,0.069508,0.220033
"2019-04-05 12:09:54.555 +0000",1554466194.554743,0.786983,-0.193837,0.943415,0.694963,0.192625,-0.692764,0.000000,0.000000,0.000000,-1,-1.371459,-0.741200,0.020805,0.368284,0.044451,0.233871
"2019-04-05 12:09:54.577 +0000",1554466194.577050,0.807653,-0.215193,0.965978,0.705999,0.213536,-0.675254,0.000000,0.000000,0.000000,-1,-1.289013,1.731895,0.136588,0.176814,-0.059986,0.207191
"2019-04-05 12:09:54.599 +0000",1554466194.599340,0.884425,-0.226534,0.991551,0.753787,0.224601,-0.617543,0.000000,0.000000,0.000000,-1,-1.168488,3.692796,0.449217,0.274686,-0.025795,0.290196
"2019-04-05 12:09:54.622 +0000",1554466194.621665,0.967770,-0.236081,1.023527,0.800777,0.233894,-0.551407,0.000000,0.000000,0.000000,-1,-1.451813,2.938000,0.614585,0.259373,-0.080604,0.256027
"2019-04-05 12:09:54.644 +0000",1554466194.643945,1.035684,-0.234764,1.064371,0.836615,0.232613,-0.495950,0.000000,0.000000,0.000000,-1,-1.535336,2.607717,1.105014,0.066446,-0.147744,0.303522
"2019-04-05 12:09:54.666 +0000",1554466194.666260,1.111159,-0.237714,1.109955,0.871011,0.235482,-0.431148,0.000000,0.000000,0.000000,-1,-1.969638,3.122393,0.637537,-0.066354,-0.130196,0.210292
"2019-04-05 12:09:54.689 +0000",1554466194.688559,1.198500,-0.249266,1.158974,0.902705,0.246692,-0.352513,0.000000,0.000000,0.000000,-1,-2.253094,3.491057,0.267037,-0.055675,-0.175052,0.221242
"2019-04-05 12:09:54.711 +0000",1554466194.710867,1.287950,-0.263015,1.212479,0.927242,0.259993,-0.269492,0.000000,0.000000,0.000000,-1,-2.507027,3.276517,0.167108,-0.175564,-0.140059,0.251029
"2019-04-05 12:09:54.733 +0000",1554466194.733145,1.362591,-0.271801,1.271831,0.942485,0.268467,-0.199116,0.000000,0.000000,0.000000,-1,-2.559981,2.220219,0.278186,-0.006114,-0.134861,0.192326
"2019-04-05 12:09:54.755 +0000",1554466194.755452,1.410934,-0.274805,1.328030,0.950206,0.271359,-0.153209,0.000000,0.000000,0.000000,-1,-2.369683,1.076654,0.381459,0.334981,-0.095517,0.190349
"2019-04-05 12:09:54.778 +0000",1554466194.777761,1.437125,-0.277470,1.379714,0.953172,0.273923,-0.128176,0.000000,0.000000,0.000000,-1,-2.039069,0.433376,0.051124,0.435759,-0.094251,0.202166
"2019-04-05 12:09:54.800 +0000",1554466194.800069,1.454574,-0.283795,1.419064,0.953523,0.280001,-0.111322,0.000000,0.000000,0.000000,-1,-1.545499,0.142848,-0.057734,0.287230,-0.122714,0.199259
"2019-04-05 12:09:54.822 +0000",1554466194.822364,1.460777,-0.285943,1.447993,0.953596,0.282062,-0.105340,0.000000,0.000000,0.000000,-1,-1.071063,-0.146802,0.062892,0.014376,-0.162006,0.225915
"2019-04-05 12:09:54.845 +0000",1554466194.844654,1.463443,-0.285945,1.467047,0.953872,0.282065,-0.102796,0.000000,0.000000,0.000000,-1,-0.662952,-0.079819,0.161715,-0.002060,-0.166586,0.230848
"2019-04-05 12:09:54.867 +0000",1554466194.866960,1.467636,-0.280709,1.477574,0.955751,0.277037,-0.098947,0.000000,0.000000,0.000000,-1,-0.295863,0.122727,0.328788,-0.007356,-0.180754,0.240945
"2019-04-05 12:09:54.889 +0000",1554466194.889246,1.475605,-0.273385,1.481485,0.958503,0.269992,-0.091518,0.000000,0.000000,0.000000,-1,-0.052355,0.399592,0.322713,0.008034,-0.160526,0.215373
"2019-04-05 12:09:54.912 +0000",1554466194.911545,1.532797,-0.237188,1.495832,0.971301,0.234970,-0.036927,0.000000,0.000000,0.000000,-1,-0.115433,0.254418,0.281807,-0.041461,-0.106567,0.152909
"2019-04-05 12:09:54.934 +0000",1554466194.933855,1.529208,-0.238572,1.511402,0.970836,0.236315,-0.040399,0.000000,0.000000,0.000000,-1,-1.223790,-0.990806,-0.312998,0.000157,-0.056063,0.141885
"2019-04-05 12:09:54.956 +0000",1554466194.956162,1.497443,-0.244301,1.553041,0.967697,0.241878,-0.071111,0.000000,0.000000,0.000000,-1,-1.977909,-2.006858,0.102595,0.045074,-0.073406,0.172384
"2019-04-05 12:09:54.978 +0000",1554466194.978491,1.486056,-0.242289,1.595397,0.967308,0.239925,-0.082167,0.000000,0.000000,0.000000,-1,-1.694177,-0.209219,0.169875,-0.018059,-0.027065,0.107543
"2019-04-05 12:09:55.001 +0000",1554466195.000748,1.511308,-0.245101,1.632267,0.968397,0.242654,-0.057676,0.000000,0.000000,0.000000,-1,-1.595146,1.009056,-0.050548,0.007250,-0.016321,0.034285
"2019-04-05 12:09:55.023 +0000",1554466195.023057,1.536938,-0.245515,1.666892,0.969456,0.243056,-0.032837,0.000000,0.000000,0.000000,-1,-1.397804,0.549749,0.127290,0.115856,-0.107726,0.062957
"2019-04-05 12:09:55.045 +0000",1554466195.045365,1.549898,-0.241809,1.692555,0.970694,0.239459,-0.020289,0.000000,0.000000,0.000000,-1,-0.931081,0.268524,0.200697,0.137506,-0.196963,-0.012410
"2019-04-05 12:09:55.068 +0000",1554466195.067672,1.558001,-0.238090,1.705297,0.971711,0.235847,-0.012434,0.000000,0.000000,0.000000,-1,-0.306617,0.129681,0.174905,0.148254,-0.201332,-0.023928
"2019-04-05 12:09:55.090 +0000",1554466195.089981,1.556653,-0.233339,1.703568,0.972803,0.231227,-0.013760,0.000000,0.000000,0.000000,-1,0.274213,-0.071624,0.225322,0.070349,-0.200191,0.004086
"2019-04-05 12:09:55.112 +0000",1554466195.112253,1.553676,-0.228169,1.692244,0.973939,0.226194,-0.016676,0.000000,0.000000,0.000000,-1,0.596708,-0.024652,0.248613,-0.080202,-0.226240,0.054563
"2019-04-05 12:09:55.135 +0000",1554466195.134580,1.543765,-0.221310,1.677274,0.975254,0.219508,-0.026368,0.000000,0.000000,0.000000,-1,0.676852,-0.479606,0.292383,-0.043431,-0.216792,0.085466
"2019-04-05 12:09:55.157 +0000",1554466195.156874,1.522409,-0.215485,1.662730,0.975729,0.213821,-0.047250,0.000000,0.000000,0.000000,-1,0.610917,-1.010158,0.207746,0.037637,-0.188187,0.134637
"2019-04-05 12:09:55.179 +0000",1554466195.179182,1.491864,-0.212584,1.653916,0.974446,0.210987,-0.077075,0.000000,0.000000,0.000000,-1,0.149407,-1.447878,-0.004421,0.063885,-0.167331,0.250461
"2019-04-05 12:09:55.201 +0000",1554466195.201459,1.471014,-0.213507,1.661230,0.972433,0.211889,-0.097355,0.000000,0.000000,0.000000,-1,-0.622169,-0.435401,0.095429,0.061396,-0.177984,0.252796
"2019-04-05 12:09:55.224 +0000",1554466195.223768,1.489027,-0.211065,1.685552,0.974541,0.209502,-0.079866,0.000000,0.000000,0.000000,-1,-1.250320,1.027489,0.224837,0.024513,-0.152480,0.245119
"2019-04-05 12:09:55.246 +0000",1554466195.246073,1.521395,-0.208045,1.717087,0.977243,0.206547,-0.048316,0.000000,0.000000,0.000000,-1,-1.381858,1.108731,0.252592,-0.073022,-0.103581,0.352637
"2019-04-05 12:09:55.268 +0000",1554466195.268371,1.546841,-0.201167,1.745989,0.979553,0.199813,-0.023470,0.000000,0.000000,0.000000,-1,-1.153203,0.741594,0.403573,0.013809,-0.212905,0.206576
"2019-04-05 12:09:55.291 +0000",1554466195.290662,1.561491,-0.194165,1.766415,0.981167,0.192948,-0.009130,0.000000,0.000000,0.000000,-1,-0.692360,0.307110,0.291016,-0.011028,-0.233475,0.118597
"2019-04-05 12:09:55.313 +0000",1554466195.312969,1.563566,-0.185779,1.773092,0.982767,0.184712,-0.007105,0.000000,0.000000,0.000000,-1,-0.008858,-0.099629,0.330895,0.011541,-0.228367,0.118174
"2019-04-05 12:09:55.335 +0000",1554466195.335278,1.561579,-0.180652,1.765009,0.983685,0.179671,-0.009067,0.000000,0.000000,0.000000,-1,0.502547,0.055137,0.214370,0.003421,-0.164778,0.128818
"2019-04-05 12:09:55.358 +0000",1554466195.357582,1.563204,-0.175337,1.751880,0.984639,0.174440,-0.007476,0.000000,0.000000,0.000000,-1,0.594282,0.259409,0.221280,0.032298,-0.160189,0.131927
"2019-04-05 12:09:55.380 +0000",1554466195.379862,1.568864,-0.171110,1.740875,0.985395,0.170276,-0.001904,0.000000,0.000000,0.000000,-1,0.384688,0.357556,0.175660,0.002765,-0.103290,0.166454
"2019-04-05 12:09:55.402 +0000",1554466195.402171,1.575865,-0.166759,1.736441,0.986115,0.165987,0.004999,0.000000,0.000000,0.000000,-1,0.108836,0.347704,0.202921,0.017654,-0.084261,0.191840
"2019-04-05 12:09:55.424 +0000",1554466195.424478,1.582698,-0.162042,1.732796,0.986830,0.161334,0.011745,0.000000,0.000000,0.000000,-1,0.244372,0.293732,0.228269,-0.022566,-0.090899,0.185429
"2019-04-05 12:09:55.447 +0000",1554466195.446785,1.584925,-0.156198,1.722860,0.987727,0.155564,0.013956,0.000000,0.000000,0.000000,-1,0.566887,0.139110,0.290566,-0.010295,-0.130387,0.188315
"2019-04-05 12:09:55.469 +0000",1554466195.469063,1.587463,-0.150395,1.706479,0.988575,0.149829,0.016478,0.000000,0.000000,0.000000,-1,0.761210,0.241134,0.248806,-0.002842,-0.146258,0.173479
"2019-04-05 12:09:55.491 +0000",1554466195.491369,1.588279,-0.147133,1.689375,0.989044,0.146602,0.017293,0.000000,0.000000,0.000000,-1,0.735475,0.106509,0.112290,-0.004303,-0.163997,0.127300
"2019-04-05 12:09:55.514 +0000",1554466195.513680,1.588094,-0.146209,1.674937,0.989183,0.145688,0.017112,0.000000,0.000000,0.000000,-1,0.559481,0.074106,0.023183,0.005736,-0.171949,0.110238
"2019-04-05 12:09:55.536 +0000",1554466195.535988,1.588036,-0.146536,1.666241,0.989136,0.146012,0.017054,0.000000,0.000000,0.000000,-1,0.282045,0.039354,-0.026249,0.002411,-0.146363,0.076772
"2019-04-05 12:09:55.558 +0000",1554466195.558266,1.588333,-0.148336,1.662081,0.988866,0.147792,0.017343,0.000000,0.000000,0.000000,-1,0.147516,0.046375,-0.104523,0.012782,-0.104076,0.072470
"2019-04-05 12:09:55.581 +0000",1554466195.580572,1.586241,-0.151125,1.659392,0.988485,0.150550,0.015268,0.000000,0.000000,0.000000,-1,0.113413,-0.183752,-0.123584,0.001460,-0.108314,0.074027
"2019-04-05 12:09:55.603 +0000",1554466195.602880,1.577477,-0.154458,1.657010,0.988073,0.153845,0.006601,0.000000,0.000000,0.000000,-1,0.107967,-0.501334,-0.175351,-0.013158,-0.114111,0.075704
"2019-04-05 12:09:55.625 +0000",1554466195.625188,1.561602,-0.158508,1.654057,0.987422,0.157845,-0.009079,0.000000,0.000000,0.000000,-1,0.154244,-0.792799,-0.159098,0.011967,-0.130425,0.088974
"2019-04-05 12:09:55.647 +0000",1554466195.647496,1.543107,-0.160915,1.647972,0.986703,0.160221,-0.027329,0.000000,0.000000,0.000000,-1,0.356418,-0.735950,-0.113616,0.021400,-0.150181,0.099869
"2019-04-05 12:09:55.670 +0000",1554466195.669773,1.527960,-0.163824,1.636523,0.985706,0.163092,-0.042250,0.000000,0.000000,0.000000,-1,0.575881,-0.537976,-0.158698,0.026501,-0.159522,0.103133
"2019-04-05 12:09:55.692 +0000",1554466195.692091,1.513605,-0.165774,1.621114,0.984678,0.165016,-0.056376,0.000000,0.000000,0.000000,-1,0.726714,-0.533930,-0.082996,0.009890,-0.165291,0.125346
"2019-04-05 12:09:55.714 +0000",1554466195.714397,1.530138,-0.132180,1.607878,0.990458,0.131795,-0.040292,0.000000,0.000000,0.000000,-1,0.784654,-0.344300,-0.054746,0.005621,-0.134924,0.114435
"2019-04-05 12:09:55.737 +0000",1554466195.736697,1.527257,-0.127710,1.591552,0.990916,0.127363,-0.043171,0.000000,0.000000,0.000000,-1,0.714465,-0.188124,-0.066080,0.021932,-0.131056,0.119648
"2019-04-05 12:09:55.759 +0000",1554466195.758975,1.526508,-0.121968,1.578072,0.991598,0.121666,-0.043945,0.000000,0.000000,0.000000,-1,0.570660,-0.175440,0.042920,0.042338,-0.120323,0.141555
"2019-04-05 12:09:55.781 +0000",1554466195.781292,1.522089,-0.121663,1.567609,0.991431,0.121363,-0.048328,0.000000,0.000000,0.000000,-1,0.399731,-0.119282,-0.049451,0.030206,-0.102335,0.159382
"2019-04-05 12:09:55.804 +0000",1554466195.803590,1.518813,-0.122483,1.560874,0.991168,0.122176,-0.051571,0.000000,0.000000,0.000000,-1,0.249286,-0.118044,-0.030919,0.025098,-0.103927,0.167049
"2019-04-05 12:09:55.826 +0000",1554466195.825899,1.554119,-0.099843,1.560785,0.994881,0.099678,-0.016593,0.000000,0.000000,0.000000,-1,0.185337,-0.214978,0.008385,0.021659,-0.064567,0.141685
"2019-04-05 12:09:55.848 +0000",1554466195.848176,1.547309,-0.100838,1.556868,0.994646,0.100667,-0.023366,0.000000,0.000000,0.000000,-1,0.173641,-0.327239,-0.072499,0.036681,-0.057545,0.147435
"2019-04-05 12:09:55.870 +0000",1554466195.870482,1.538336,-0.103452,1.552525,0.994130,0.103267,-0.032281,0.000000,0.000000,0.000000,-1,0.200824,-0.425967,-0.157208,0.020534,-0.056529,0.146554
"2019-04-05 12:09:55.893 +0000",1554466195.892793,1.554911,-0.096766,1.550218,0.995196,0.096615,-0.015811,0.000000,0.000000,0.000000,-1,0.238348,-0.518129,-0.155135,-0.009997,-0.046490,0.128710
"2019-04-05 12:09:55.915 +0000",1554466195.915080,1.541873,-0.100567,1.544664,0.994531,0.100397,-0.028773,0.000000,0.000000,0.000000,-1,0.241827,-0.611827,-0.208886,-0.025110,-0.063913,0.142283
"2019-04-05 12:09:55.937 +0000",1554466195.937376,1.540769,-0.097531,1.541466,0.994799,0.097376,-0.029880,0.000000,0.000000,0.000000,-1,0.186380,-0.889847,-0.217601,-0.005495,-0.069453,0.145908
"2019-04-05 12:09:55.960 +0000",1554466195.959685,1.520205,-0.100501,1.538111,0.993681,0.100332,-0.050315,0.000000,0.000000,0.000000,-1,0.124139,-0.879587,-0.102349,0.013033,-0.091069,0.169898
"2019-04-05 12:09:55.982 +0000",1554466195.981994,1.503664,-0.103335,1.535484,0.992425,0.103151,-0.066724,0.000000,0.000000,0.000000,-1,0.099183,-0.569676,-0.122478,0.008597,-0.107973,0.190854
"2019-04-05 12:09:56.004 +0000",1554466196.004281,1.516454,-0.090706,1.537120,0.994419,0.090582,-0.054092,0.000000,0.000000,0.000000,-1,-0.085939,-0.168391,-0.054147,-0.011768,-0.141714,0.181580
"2019-04-05 12:09:56.027 +0000",1554466196.026609,1.509062,-0.091495,1.544013,0.993920,0.091367,-0.061437,0.000000,0.000000,0.000000,-1,-0.464643,-0.585201,0.042431,-0.041299,-0.136579,0.200323
"2019-04-05 12:09:56.049 +0000",1554466196.048886,1.493755,-0.091141,1.560025,0.992896,0.091015,-0.076645,0.000000,0.000000,0.000000,-1,-0.823880,-0.902984,-0.024371,0.006647,-0.118329,0.238679
"2019-04-05 12:09:56.071 +0000",1554466196.071188,1.479008,-0.094469,1.580540,0.991350,0.094328,-0.091251,0.000000,0.000000,0.000000,-1,-0.965715,-0.635134,-0.092558,0.046751,-0.109969,0.251941
"2019-04-05 12:09:56.093 +0000",1554466196.093496,1.466966,-0.100508,1.602607,0.989595,0.100339,-0.103121,0.000000,0.000000,0.000000,-1,-1.041384,-0.624488,-0.194410,0.052657,-0.111646,0.294191
"2019-04-05 12:09:56.116 +0000",1554466196.115813,1.458268,-0.105871,1.626494,0.988112,0.105673,-0.111662,0.000000,0.000000,0.000000,-1,-1.094605,-0.425906,-0.052292,-0.030577,-0.100333,0.294142
"2019-04-05 12:09:56.138 +0000",1554466196.138088,1.453600,-0.107114,1.648812,0.987448,0.106910,-0.116258,0.000000,0.000000,0.000000,-1,-0.874317,-0.280012,0.113980,-0.054129,-0.078177,0.263597
"2019-04-05 12:09:56.160 +0000",1554466196.160395,1.448564,-0.103566,1.667042,0.987221,0.103381,-0.121275,0.000000,0.000000,0.000000,-1,-0.761836,-0.249660,0.315967,-0.053200,-0.082797,0.253446
"2019-04-05 12:09:56.183 +0000",1554466196.182703,1.453057,-0.099648,1.684678,0.988150,0.099483,-0.116884,0.000000,0.000000,0.000000,-1,-0.761678,0.406967,0.244390,0.036706,-0.068339,0.213503
"2019-04-05 12:09:56.205 +0000",1554466196.205012,1.476581,-0.093059,1.701644,0.991257,0.092925,-0.093669,0.000000,0.000000,0.000000,-1,-0.677307,1.318226,0.479483,0.078506,-0.041244,0.147350
"2019-04-05 12:09:56.227 +0000",1554466196.227297,1.511775,-0.081926,1.714245,0.994911,0.081834,-0.058789,0.000000,0.000000,0.000000,-1,-0.428560,1.524000,0.539790,-0.046546,-0.018632,0.098401
"2019-04-05 12:09:56.250 +0000",1554466196.249597,1.539115,-0.071746,1.721368,0.996927,0.071684,-0.031594,0.000000,0.000000,0.000000,-1,-0.233676,0.977496,0.436797,0.041266,-0.007018,0.055474
"2019-04-05 12:09:56.272 +0000",1554466196.271906,1.556142,-0.062332,1.725319,0.997951,0.062292,-0.014626,0.000000,0.000000,0.000000,-1,-0.124886,0.674800,0.404796,0.162617,0.004587,-0.030113
"2019-04-05 12:09:56.294 +0000",1554466196.294193,1.570727,-0.054477,1.726311,0.998516,0.054450,-0.000069,0.000000,0.000000,0.000000,-1,0.002702,0.649931,0.321955,0.031040,-0.000328,-0.101829
"2019-04-05 12:09:56.316 +0000",1554466196.316490,1.585117,-0.048766,1.725001,0.998709,0.048747,0.014303,0.000000,0.000000,0.000000,-1,0.086251,0.631059,0.204307,0.008234,0.003987,-0.110510
"2019-04-05 12:09:56.339 +0000",1554466196.338798,1.596763,-0.045444,1.721837,0.998631,0.045429,0.025937,0.000000,0.000000,0.000000,-1,0.174933,0.463548,0.140083,-0.012211,-0.007831,-0.137936
"2019-04-05 12:09:56.361 +0000",1554466196.361106,1.604432,-0.043440,1.716763,0.998492,0.043426,0.033598,0.000000,0.000000,0.000000,-1,0.247188,0.289768,0.047376,-0.024996,-0.010436,-0.150145
"2019-04-05 12:09:56.383 +0000",1554466196.383414,1.608520,-0.044141,1.711183,0.998315,0.044127,0.037678,0.000000,0.000000,0.000000,-1,0.236651,0.146683,-0.051842,-0.036889,-0.030013,-0.162739
"2019-04-05 12:09:56.406 +0000",1554466196.405721,1.583453,-0.040560,1.705642,0.999098,0.040549,0.012646,0.000000,0.000000,0.000000,-1,0.169950,0.013585,-0.094055,-0.042524,-0.031012,-0.143490
"2019-04-05 12:09:56.428 +0000",1554466196.427994,1.580123,-0.043809,1.703347,0.998997,0.043795,0.009318,0.000000,0.000000,0.000000,-1,0.059066,-0.205763,-0.180234,-0.034321,-0.025195,-0.124491
"2019-04-05 12:09:56.450 +0000",1554466196.450304,1.575648,-0.046688,1.703662,0.998898,0.046671,0.004847,0.000000,0.000000,0.000000,-1,-0.058430,-0.194358,-0.081142,0.029193,-0.030283,-0.097346
"2019-04-05 12:09:56.473 +0000",1554466196.472615,1.558664,-0.045830,1.705787,0.998877,0.045814,-0.012119,0.000000,0.000000,0.000000,-1,-0.142899,-0.350964,-0.164118,0.024225,-0.024222,-0.068691
"2019-04-05 12:09:56.495 +0000",1554466196.494923,1.547794,-0.050230,1.709356,0.998475,0.050209,-0.022971,0.000000,0.000000,0.000000,-1,-0.161991,-0.550389,-0.198332,0.066146,-0.030189,-0.030832
"2019-04-05 12:09:56.517 +0000",1554466196.517193,1.536474,-0.050279,1.711453,0.998148,0.050258,-0.034272,0.000000,0.000000,0.000000,-1,-0.049038,-0.390462,-0.210853,-0.051233,-0.051448,-0.005919
"2019-04-05 12:09:56.540 +0000",1554466196.539508,1.529425,-0.055840,1.710111,0.997587,0.055811,-0.041295,0.000000,0.000000,0.000000,-1,0.106371,-0.310611,-0.256155,-0.032881,-0.062449,0.015263
"2019-04-05 12:09:56.562 +0000",1554466196.561815,1.517807,-0.060617,1.705511,0.996762,0.060580,-0.052867,0.000000,0.000000,0.000000,-1,0.253056,-0.664672,-0.214492,-0.011808,-0.067477,0.040385
"2019-04-05 12:09:56.584 +0000",1554466196.584126,1.499646,-0.064458,1.698211,0.995398,0.064414,-0.070942,0.000000,0.000000,0.000000,-1,0.344694,-0.813319,-0.172196,0.009347,-0.067618,0.070484
"2019-04-05 12:09:56.606 +0000",1554466196.606403,1.487002,-0.064597,1.690334,0.994413,0.064552,-0.083522,0.000000,0.000000,0.000000,-1,0.351131,-0.591857,-0.167951,-0.006589,-0.067863,0.086574
"2019-04-05 12:09:56.629 +0000",1554466196.628723,1.475939,-0.067172,1.682268,0.993259,0.067122,-0.094501,0.000000,0.000000,0.000000,-1,0.342641,-0.393659,-0.130017,-0.010258,-0.066939,0.119846
"2019-04-05 12:09:56.651 +0000",1554466196.651016,1.482437,-0.063770,1.675963,0.994074,0.063726,-0.088065,0.000000,0.000000,0.000000,-1,0.283767,-0.121861,-0.152299,0.031240,-0.060049,0.138327
"2019-04-05 12:09:56.673 +0000",1554466196.673324,1.479236,-0.066429,1.670002,0.993615,0.066380,-0.091231,0.000000,0.000000,0.000000,-1,0.239952,-0.159908,-0.124688,-0.026940,-0.072651,0.149398
"2019-04-05 12:09:56.696 +0000",1554466196.695602,1.491557,-0.059984,1.666164,0.995069,0.059948,-0.079015,0.000000,0.000000,0.000000,-1,0.197652,-0.137386,-0.038062,-0.043897,-0.069164,0.142583
"2019-04-05 12:09:56.718 +0000",1554466196.717909,1.492847,-0.059944,1.662104,0.995173,0.059909,-0.077731,0.000000,0.000000,0.000000,-1,0.177907,0.205904,-0.016307,-0.040171,-0.061099,0.132891
"2019-04-05 12:09:56.740 +0000",1554466196.740196,1.502934,-0.059877,1.658560,0.995910,0.059841,-0.067689,0.000000,0.000000,0.000000,-1,0.145769,0.610799,0.032188,0.014206,-0.054577,0.137788
"2019-04-05 12:09:56.763 +0000",1554466196.762525,1.523195,-0.056151,1.655690,0.997293,0.056122,-0.047508,0.000000,0.000000,0.000000,-1,0.152918,0.939688,0.178205,-0.010477,-0.035415,0.121651
"2019-04-05 12:09:56.785 +0000",1554466196.784802,1.549103,-0.050312,1.651098,0.998500,0.050291,-0.021664,0.000000,0.000000,0.000000,-1,0.262745,1.315350,0.286566,-0.030070,-0.035017,0.090664
"2019-04-05 12:09:56.807 +0000",1554466196.807111,1.579807,-0.043553,1.643285,0.999011,0.043539,0.009002,0.000000,0.000000,0.000000,-1,0.390678,1.376862,0.273669,0.009976,-0.032919,0.046952
"2019-04-05 12:09:56.829 +0000",1554466196.829418,1.604708,-0.041674,1.634063,0.998557,0.041662,0.033876,0.000000,0.000000,0.000000,-1,0.407975,0.915653,-0.021200,0.027657,-0.015921,0.005980
"2019-04-05 12:09:56.852 +0000",1554466196.851727,1.614248,-0.043140,1.626692,0.998127,0.043127,0.043398,0.000000,0.000000,0.000000,-1,0.277018,0.168899,-0.019589,0.039410,-0.005377,-0.014559
"2019-04-05 12:09:56.874 +0000",1554466196.874034,1.611109,-0.042970,1.622997,0.998265,0.042957,0.040264,0.000000,0.000000,0.000000,-1,0.091206,-0.214899,0.003587,0.020030,0.013165,-0.002331
"2019-04-05 12:09:56.896 +0000",1554466196.896313,1.608443,-0.042313,1.623772,0.998397,0.042300,0.037604,0.000000,0.000000,0.000000,-1,-0.109185,0.081575,0.028164,0.043519,-0.001804,-0.011939
"2019-04-05 12:09:56.919 +0000",1554466196.918621,1.614438,-0.040133,1.627768,0.998243,0.040122,0.043593,0.000000,0.000000,0.000000,-1,-0.212716,0.350080,0.124979,0.058351,-0.000800,-0.009093
"2019-04-05 12:09:56.941 +0000",1554466196.940928,1.623233,-0.036867,1.633137,0.997947,0.036859,0.052377,0.000000,0.000000,0.000000,-1,-0.259121,0.368507,0.123556,0.093118,-0.000299,0.001547
"2019-04-05 12:09:56.963 +0000",1554466196.963207,1.627052,-0.033935,1.638163,0.997843,0.033928,0.056193,0.000000,0.000000,0.000000,-1,-0.209138,0.309324,0.085651,0.104269,-0.003136,-0.050517
"2019-04-05 12:09:56.986 +0000",1554466196.985515,1.634006,-0.032144,1.640652,0.997487,0.032138,0.063135,0.000000,0.000000,0.000000,-1,-0.038682,0.327709,0.049585,0.072093,-0.003772,-0.069696
"2019-04-05 12:09:57.008 +0000",1554466197.007823,1.642638,-0.032142,1.638336,0.996905,0.032137,0.071743,0.000000,0.000000,0.000000,-1,0.189438,0.421075,-0.008211,0.006162,-0.010271,-0.097591
"2019-04-05 12:09:57.030 +0000",1554466197.030131,1.650955,-0.033075,1.631439,0.996244,0.033069,0.080029,0.000000,0.000000,0.000000,-1,0.382443,0.331258,-0.033382,-0.000242,-0.017215,-0.117718
"2019-04-05 12:09:57.052 +0000",1554466197.052437,1.645471,-0.033894,1.620414,0.996640,0.033887,0.074562,0.000000,0.000000,0.000000,-1,0.546376,0.112100,-0.093381,0.040805,-0.024213,-0.120598
"2019-04-05 12:09:57.075 +0000",1554466197.074716,1.644600,-0.037534,1.606904,0.996575,0.037525,0.073685,0.000000,0.000000,0.000000,-1,0.641409,-0.097132,-0.131180,0.054709,-0.031803,-0.124863
"2019-04-05 12:09:57.097 +0000",1554466197.097028,1.637112,-0.040915,1.592262,0.996967,0.040904,0.066212,0.000000,0.000000,0.000000,-1,0.666353,-0.189471,-0.151433,0.023510,-0.036601,-0.119755
"2019-04-05 12:09:57.119 +0000",1554466197.119332,1.631172,-0.045184,1.578099,0.997159,0.045168,0.060278,0.000000,0.000000,0.000000,-1,0.626138,-0.275615,-0.155648,0.000552,-0.038882,-0.101843
"2019-04-05 12:09:57.142 +0000",1554466197.141639,1.619309,-0.048192,1.565233,0.997664,0.048173,0.048437,0.000000,0.000000,0.000000,-1,0.544471,-0.424541,-0.164278,0.013078,-0.038866,-0.078543
"2019-04-05 12:09:57.164 +0000",1554466197.163917,1.607077,-0.052531,1.554785,0.997963,0.052507,0.036223,0.000000,0.000000,0.000000,-1,0.425130,-0.580888,-0.181550,0.037742,-0.039613,-0.050124
"2019-04-05 12:09:57.186 +0000",1554466197.186213,1.591415,-0.056116,1.547329,0.998214,0.056087,0.020585,0.000000,0.000000,0.000000,-1,0.283332,-0.707626,-0.174280,0.022584,-0.045345,-0.019456
"2019-04-05 12:09:57.209 +0000",1554466197.208533,1.574446,-0.059618,1.542912,0.998217,0.059583,0.003643,0.000000,0.000000,0.000000,-1,0.149222,-0.764134,-0.139101,0.017622,-0.049207,0.002369
"2019-04-05 12:09:57.231 +0000",1554466197.230841,1.559406,-0.058464,1.541157,0.998227,0.058430,-0.011371,0.000000,0.000000,0.000000,-1,0.041550,-0.709888,-0.098678,0.001026,-0.048131,0.027957
"2019-04-05 12:09:57.253 +0000",1554466197.253150,1.544684,-0.060203,1.541953,0.997848,0.060166,-0.026062,0.000000,0.000000,0.000000,-1,-0.092482,-0.638469,-0.065875,-0.022857,-0.050721,0.052932
"2019-04-05 12:09:57.275 +0000",1554466197.275427,1.530864,-0.061566,1.545686,0.997310,0.061527,-0.039847,0.000000,0.000000,0.000000,-1,-0.205293,-0.622458,-0.048698,-0.019954,-0.038303,0.082586
"2019-04-05 12:09:57.298 +0000",1554466197.297735,1.524694,-0.061554,1.551232,0.997046,0.061515,-0.045999,0.000000,0.000000,0.000000,-1,-0.245356,-0.499441,-0.049805,-0.008093,-0.023902,0.104196
"2019-04-05 12:09:57.320 +0000",1554466197.320040,1.515809,-0.063021,1.556155,0.996506,0.062980,-0.054851,0.000000,0.000000,0.000000,-1,-0.192621,-0.372745,-0.058350,0.007156,-0.010261,0.117915
"2019-04-05 12:09:57.342 +0000",1554466197.342351,1.507779,-0.064407,1.557591,0.995946,0.064362,-0.062845,0.000000,0.000000,0.000000,-1,0.036898,-0.375132,-0.064433,0.036555,0.011886,0.138422
"2019-04-05 12:09:57.365 +0000",1554466197.364637,1.507069,-0.067067,1.552473,0.995727,0.067017,-0.063541,0.000000,0.000000,0.000000,-1,0.403016,-0.527518,-0.074099,0.043275,0.024734,0.147983
"2019-04-05 12:09:57.387 +0000",1554466197.386936,1.492185,-0.066977,1.536905,0.994677,0.066927,-0.078354,0.000000,0.000000,0.000000,-1,0.879761,-0.658770,-0.029311,0.024763,0.034636,0.167527
"2019-04-05 12:09:57.409 +0000",1554466197.409228,1.476609,-0.064923,1.510230,0.993470,0.064877,-0.093850,0.000000,0.000000,0.000000,-1,1.390451,-0.605527,0.003929,0.014617,0.050647,0.185433
"2019-04-05 12:09:57.432 +0000",1554466197.431551,1.463361,-0.060754,1.473254,0.992400,0.060717,-0.107031,0.000000,0.000000,0.000000,-1,1.813401,-0.417034,0.029729,0.023652,0.056791,0.203329
"2019-04-05 12:09:57.454 +0000",1554466197.453828,1.454024,-0.054489,1.428937,0.991716,0.054462,-0.116334,0.000000,0.000000,0.000000,-1,2.097180,-0.240835,0.072946,0.038481,0.061993,0.221925
"2019-04-05 12:09:57.476 +0000",1554466197.476137,1.447987,-0.046463,1.380690,0.991397,0.046446,-0.122369,0.000000,0.000000,0.000000,-1,2.220340,-0.128689,0.111701,0.031216,0.067552,0.236627
"2019-04-05 12:09:57.498 +0000",1554466197.498444,1.444804,-0.038315,1.331299,0.991345,0.038306,-0.125567,0.000000,0.000000,0.000000,-1,2.252916,-0.115181,0.100429,-0.010404,0.068734,0.245822
"2019-04-05 12:09:57.521 +0000",1554466197.520752,1.440313,-0.029670,1.282080,0.991063,0.029665,-0.130056,0.000000,0.000000,0.000000,-1,2.222811,-0.131176,0.103039,-0.040593,0.073698,0.251409
"2019-04-05 12:09:57.543 +0000",1554466197.543030,1.435960,-0.021401,1.234246,0.990696,0.021399,-0.134397,0.000000,0.000000,0.000000,-1,2.136123,-0.141178,0.070836,-0.062428,0.078836,0.255399
"2019-04-05 12:09:57.565 +0000",1554466197.565340,1.432678,-0.014182,1.189365,0.990377,0.014182,-0.137666,0.000000,0.000000,0.000000,-1,1.965410,-0.087274,0.031828,-0.078527,0.084481,0.251375
"2019-04-05 12:09:57.588 +0000",1554466197.587647,1.430860,-0.008682,1.149748,0.990188,0.008682,-0.139475,0.000000,0.000000,0.000000,-1,1.672945,-0.055626,-0.023162,-0.071959,0.089066,0.249841
"2019-04-05 12:09:57.610 +0000",1554466197.609954,1.429331,-0.005515,1.118016,0.989995,0.005515,-0.140992,0.000000,0.000000,0.000000,-1,1.272588,-0.059692,-0.076641,-0.047765,0.090569,0.253999
"2019-04-05 12:09:57.632 +0000",1554466197.632237,1.428639,-0.004699,1.095750,0.989902,0.004699,-0.141678,0.000000,0.000000,0.000000,-1,0.819621,-0.005932,-0.121971,0.001141,0.076538,0.254745
"2019-04-05 12:09:57.655 +0000",1554466197.654538,1.429283,-0.006406,1.083994,0.989983,0.006406,-0.141038,0.000000,0.000000,0.000000,-1,0.322767,0.056430,-0.164916,0.006766,0.069308,0.252565
"2019-04-05 12:09:57.677 +0000",1554466197.676848,1.432060,-0.010567,1.083849,0.990336,0.010567,-0.138284,0.000000,0.000000,0.000000,-1,-0.240448,0.169110,-0.199585,0.002599,0.052696,0.250101
"2019-04-05 12:09:57.699 +0000",1554466197.699139,1.437691,-0.017323,1.096246,0.991006,0.017322,-0.132693,0.000000,0.000000,0.000000,-1,-0.815023,0.281888,-0.239289,-0.025781,0.022275,0.234622
"2019-04-05 12:09:57.721 +0000",1554466197.721461,1.445068,-0.026491,1.122766,0.991759,0.026488,-0.125354,0.000000,0.000000,0.000000,-1,-1.498703,0.306129,-0.258405,-0.028883,0.000322,0.221072
"2019-04-05 12:09:57.744 +0000",1554466197.743740,1.452779,-0.037239,1.166140,0.992356,0.037231,-0.117662,0.000000,0.000000,0.000000,-1,-2.310174,0.254239,-0.227278,-0.028107,-0.020583,0.205431
"2019-04-05 12:09:57.766 +0000",1554466197.766048,1.453783,-0.048276,1.233660,0.992005,0.048257,-0.116610,0.000000,0.000000,0.000000,-1,-3.550615,-0.449376,-0.082623,-0.021820,-0.049722,0.177279
"2019-04-05 12:09:57.788 +0000",1554466197.788357,1.450028,-0.058318,1.327047,0.991029,0.058285,-0.120270,0.000000,0.000000,0.000000,-1,-4.510281,-0.837076,-0.038642,0.013427,-0.043468,0.164139
"2019-04-05 12:09:57.811 +0000",1554466197.810664,1.447021,-0.069499,1.436023,0.989954,0.069443,-0.123161,0.000000,0.000000,0.000000,-1,-5.114837,-0.244782,0.179140,0.018774,-0.059067,0.128776
"2019-04-05 12:09:57.833 +0000",1554466197.832941,1.453116,-0.077463,1.558077,0.990106,0.077386,-0.117056,0.000000,0.000000,0.000000,-1,-5.666012,-0.206207,0.353478,0.032035,-0.058907,0.057578
"2019-04-05 12:09:57.855 +0000",1554466197.855256,1.448829,-0.084710,1.690183,0.989012,0.084608,-0.121229,0.000000,0.000000,0.000000,-1,-5.983697,-1.002053,0.405066,0.107515,0.041826,-0.019824
"2019-04-05 12:09:57.878 +0000",1554466197.877558,1.421656,-0.088768,1.823256,0.985006,0.088651,-0.148003,0.000000,0.000000,0.000000,-1,-5.778614,-2.197539,0.759395,0.104182,0.055361,-0.043144
"2019-04-05 12:09:57.900 +0000",1554466197.899867,1.378069,-0.087693,1.938755,0.977714,0.087581,-0.190800,0.000000,0.000000,0.000000,-1,-4.517001,-2.264908,1.014845,0.073876,0.097478,-0.096935
"2019-04-05 12:09:57.922 +0000",1554466197.922159,1.361146,-0.080575,2.016561,0.974931,0.080487,-0.207442,0.000000,0.000000,0.000000,-1,-2.628058,-0.232120,0.955431,0.096557,0.188281,-0.224137
"2019-04-05 12:09:57.944 +0000",1554466197.944449,1.379541,-0.073847,2.053113,0.979091,0.073780,-0.189573,0.000000,0.000000,0.000000,-1,-0.916008,1.022464,0.404153,0.077092,0.184429,-0.260256
"2019-04-05 12:09:57.967 +0000",1554466197.966758,1.405519,-0.071239,2.051670,0.983871,0.071179,-0.164109,0.000000,0.000000,0.000000,-1,0.652736,1.214528,-0.044716,0.087449,0.153644,-0.268249
"2019-04-05 12:09:57.989 +0000",1554466197.989058,1.428333,-0.069085,2.020545,0.987508,0.069030,-0.141643,0.000000,0.000000,0.000000,-1,1.768663,0.999445,-0.116761,-0.104711,0.118729,-0.220951
"2019-04-05 12:09:58.011 +0000",1554466198.011369,1.438532,-0.064083,1.971840,0.989231,0.064039,-0.131608,0.000000,0.000000,0.000000,-1,2.385592,0.347948,-0.058611,-0.072453,0.129351,-0.189025
"2019-04-05 12:09:58.034 +0000",1554466198.033644,1.435525,-0.059124,1.914355,0.989133,0.059089,-0.134624,0.000000,0.000000,0.000000,-1,2.656998,-0.132132,-0.170844,0.016467,0.119286,-0.072652
"2019-04-05 12:09:58.056 +0000",1554466198.055954,1.427752,-0.056503,1.854635,0.988207,0.056473,-0.142330,0.000000,0.000000,0.000000,-1,2.636363,-0.194145,-0.299318,0.055433,0.103378,0.001827
"2019-04-05 12:09:58.078 +0000",1554466198.078254,1.421597,-0.055502,1.797895,0.987368,0.055474,-0.148418,0.000000,0.000000,0.000000,-1,2.424333,-0.084864,-0.328912,0.004759,0.098716,0.080028
"2019-04-05 12:09:58.101 +0000",1554466198.100570,1.418714,-0.055545,1.747496,0.986933,0.055517,-0.151264,0.000000,0.000000,0.000000,-1,2.114490,0.026858,-0.352366,0.003866,0.093195,0.088886
"2019-04-05 12:09:58.123 +0000",1554466198.122849,1.417146,-0.057005,1.703930,0.986614,0.056974,-0.152798,0.000000,0.000000,0.000000,-1,1.803348,0.021748,-0.367340,0.031178,0.070635,0.094585
"2019-04-05 12:09:58.145 +0000",1554466198.145158,1.412930,-0.059647,1.666891,0.985809,0.059612,-0.156932,0.000000,0.000000,0.000000,-1,1.504626,-0.172794,-0.380628,0.025498,0.021153,0.107508
"2019-04-05 12:09:58.167 +0000",1554466198.167465,1.404820,-0.063448,1.636374,0.984273,0.063405,-0.164882,0.000000,0.000000,0.000000,-1,1.204708,-0.331630,-0.385549,0.011256,0.006480,0.117412
"2019-04-05 12:09:58.190 +0000",1554466198.189773,1.395092,-0.068326,1.612794,0.982306,0.068273,-0.174394,0.000000,0.000000,0.000000,-1,0.878485,-0.372424,-0.401454,-0.023124,-0.022207,0.132020
"2019-04-05 12:09:58.212 +0000",1554466198.212051,1.386254,-0.074832,1.596699,0.980269,0.074762,-0.182983,0.000000,0.000000,0.000000,-1,0.519709,-0.320974,-0.418191,-0.049041,-0.036737,0.145721
"2019-04-05 12:09:58.234 +0000",1554466198.234355,1.379272,-0.082280,1.588402,0.978394,0.082187,-0.189712,0.000000,0.000000,0.000000,-1,0.172449,-0.270534,-0.379090,-0.063843,-0.047809,0.162368
"2019-04-05 12:09:58.257 +0000",1554466198.256670,1.371997,-0.090083,1.587399,0.976330,0.089961,-0.196692,0.000000,0.000000,0.000000,-1,-0.139754,-0.373809,-0.329926,-0.047085,-0.060893,0.167349
"2019-04-05 12:09:58.279 +0000",1554466198.278976,1.361181,-0.097570,1.592075,0.973459,0.097415,-0.207094,0.000000,0.000000,0.000000,-1,-0.345337,-0.586452,-0.262378,0.006445,-0.067264,0.177828
"2019-04-05 12:09:58.301 +0000",1554466198.301275,1.346542,-0.104767,1.601045,0.969614,0.104575,-0.221161,0.000000,0.000000,0.000000,-1,-0.520815,-0.743760,-0.203992,0.192037,-0.063926,0.175720
"2019-04-05 12:09:58.324 +0000",1554466198.323561,1.331207,-0.111316,1.613640,0.965423,0.111086,-0.235835,0.000000,0.000000,0.000000,-1,-0.666013,-0.738614,-0.129667,0.217179,-0.070284,0.185939
"2019-04-05 12:09:58.346 +0000",1554466198.345871,1.317277,-0.117813,1.628986,0.961325,0.117540,-0.249074,0.000000,0.000000,0.000000,-1,-0.765000,-0.675858,-0.114140,0.212304,-0.075441,0.200261
"2019-04-05 12:09:58.368 +0000",1554466198.368166,1.305388,-0.125136,1.644989,0.957440,0.124810,-0.260253,0.000000,0.000000,0.000000,-1,-0.761408,-0.612090,-0.166807,0.055133,-0.079491,0.227568
"2019-04-05 12:09:58.390 +0000",1554466198.390486,1.294220,-0.133827,1.658442,0.953394,0.133428,-0.270622,0.000000,0.000000,0.000000,-1,-0.612413,-0.556964,-0.242905,0.003744,-0.082571,0.238502
"2019-04-05 12:09:58.413 +0000",1554466198.412811,1.283957,-0.142659,1.666197,0.949399,0.142176,-0.280048,0.000000,0.000000,0.000000,-1,-0.317851,-0.475900,-0.308007,-0.086408,-0.074076,0.249897
"2019-04-05 12:09:58.435 +0000",1554466198.435100,1.274647,-0.150125,1.665398,0.945709,0.149562,-0.288557,0.000000,0.000000,0.000000,-1,0.104798,-0.367600,-0.342281,-0.092041,-0.076518,0.255704
"2019-04-05 12:09:58.457 +0000",1554466198.457409,1.266622,-0.154878,1.654602,0.942674,0.154260,-0.295921,0.000000,0.000000,0.000000,-1,0.577768,-0.243158,-0.343183,-0.063753,-0.067178,0.264045
"2019-04-05 12:09:58.480 +0000",1554466198.479714,1.258969,-0.156380,1.632502,0.940161,0.155743,-0.303055,0.000000,0.000000,0.000000,-1,1.114541,-0.161876,-0.378410,-0.025656,-0.059155,0.276322
"2019-04-05 12:09:58.502 +0000",1554466198.501993,1.250701,-0.153966,1.598902,0.937977,0.153359,-0.310935,0.000000,0.000000,0.000000,-1,1.641545,-0.120915,-0.341332,-0.008854,-0.050026,0.291022
"2019-04-05 12:09:58.524 +0000",1554466198.524303,1.242188,-0.147380,1.556165,0.936232,0.146847,-0.319227,0.000000,0.000000,0.000000,-1,2.023025,-0.072659,-0.310583,0.003694,-0.036404,0.308088
"2019-04-05 12:09:58.547 +0000",1554466198.546603,1.236054,-0.136678,1.506777,0.935687,0.136253,-0.325462,0.000000,0.000000,0.000000,-1,2.348358,0.116003,-0.230243,0.053220,-0.019920,0.318703
"2019-04-05 12:09:58.569 +0000",1554466198.568912,1.235092,-0.122556,1.451561,0.937097,0.122249,-0.326963,0.000000,0.000000,0.000000,-1,2.601979,0.365901,-0.212504,0.093100,-0.004848,0.321836
"2019-04-05 12:09:58.591 +0000",1554466198.591194,1.236372,-0.108267,1.395273,0.939069,0.108056,-0.326304,0.000000,0.000000,0.000000,-1,2.543014,0.317921,-0.207141,0.056506,0.007957,0.327067
"2019-04-05 12:09:58.614 +0000",1554466198.613504,1.239087,-0.094369,1.341018,0.941280,0.094229,-0.324210,0.000000,0.000000,0.000000,-1,2.477871,0.445825,-0.208304,0.039951,0.020364,0.329536
"2019-04-05 12:09:58.636 +0000",1554466198.635883,1.249890,-0.081775,1.287893,0.945779,0.081684,-0.314373,0.000000,0.000000,0.000000,-1,2.363743,0.823206,-0.267527,0.027778,0.014691,0.309825
"2019-04-05 12:09:58.658 +0000",1554466198.658118,1.264869,-0.072842,1.239262,0.951039,0.072778,-0.300379,0.000000,0.000000,0.000000,-1,2.076370,0.798376,-0.294722,0.050959,0.015204,0.296137
"2019-04-05 12:09:58.680 +0000",1554466198.680399,1.276041,-0.067216,1.197634,0.954713,0.067165,-0.289850,0.000000,0.000000,0.000000,-1,1.709859,0.528607,-0.319707,0.077758,0.024861,0.289468
"2019-04-05 12:09:58.703 +0000",1554466198.702707,1.282003,-0.065304,1.164971,0.956545,0.065257,-0.284189,0.000000,0.000000,0.000000,-1,1.237934,0.268738,-0.347375,0.083753,0.012746,0.270608
"2019-04-05 12:09:58.725 +0000",1554466198.725014,1.285020,-0.066669,1.142759,0.957312,0.066619,-0.281276,0.000000,0.000000,0.000000,-1,0.768815,0.210767,-0.335897,0.084314,0.000718,0.260051
"2019-04-05 12:09:58.747 +0000",1554466198.747322,1.291858,-0.070466,1.129753,0.958963,0.070407,-0.274651,0.000000,0.000000,0.000000,-1,0.352549,0.422208,-0.328028,0.052298,-0.024448,0.247903
"2019-04-05 12:09:58.770 +0000",1554466198.769630,1.301908,-0.076880,1.126543,0.961219,0.076804,-0.264875,0.000000,0.000000,0.000000,-1,-0.137733,0.455352,-0.292556,0.036034,-0.050437,0.236509
"2019-04-05 12:09:58.792 +0000",1554466198.791908,1.311665,-0.084422,1.135766,0.963170,0.084322,-0.255329,0.000000,0.000000,0.000000,-1,-0.699276,0.370672,-0.179156,0.037150,-0.062472,0.226963
"2019-04-05 12:09:58.814 +0000",1554466198.814207,1.317752,-0.093535,1.158167,0.963923,0.093399,-0.249258,0.000000,0.000000,0.000000,-1,-1.283775,-0.022944,-0.106442,0.100622,-0.087967,0.195410
"2019-04-05 12:09:58.837 +0000",1554466198.836522,1.310831,-0.101809,1.191555,0.961395,0.101634,-0.255717,0.000000,0.000000,0.000000,-1,-1.659695,-0.646024,0.092452,0.110413,-0.102900,0.203852
"2019-04-05 12:09:58.859 +0000",1554466198.858830,1.305080,-0.107650,1.231975,0.959319,0.107443,-0.261081,0.000000,0.000000,0.000000,-1,-1.890565,-0.145881,0.298805,0.104402,-0.103079,0.197177
"2019-04-05 12:09:58.881 +0000",1554466198.881106,1.320623,-0.112047,1.276718,0.962794,0.111812,-0.246019,0.000000,0.000000,0.000000,-1,-2.005301,0.705414,0.318492,0.084264,-0.102413,0.133882
"2019-04-05 12:09:58.903 +0000",1554466198.903414,1.341887,-0.113424,1.322001,0.967656,0.113181,-0.225457,0.000000,0.000000,0.000000,-1,-1.935549,0.687725,0.508481,0.035380,-0.086967,0.116876
"2019-04-05 12:09:58.926 +0000",1554466198.925724,1.363403,-0.110274,1.366729,0.972627,0.110051,-0.204659,0.000000,0.000000,0.000000,-1,-1.962651,0.887337,0.596017,0.019499,-0.036854,0.053628
"2019-04-05 12:09:58.948 +0000",1554466198.948031,1.402035,-0.106048,1.423898,0.980255,0.105850,-0.167018,0.000000,0.000000,0.000000,-1,-2.986580,1.796225,0.656980,0.028183,0.061753,-0.148504
"2019-04-05 12:09:58.970 +0000",1554466198.970309,1.427569,-0.107579,1.502848,0.984039,0.107371,-0.141913,0.000000,0.000000,0.000000,-1,-3.572670,-0.228984,0.306266,0.069337,0.072713,-0.136499
"2019-04-05 12:09:58.993 +0000",1554466198.992616,1.417843,-0.113755,1.573459,0.981938,0.113509,-0.151373,0.000000,0.000000,0.000000,-1,-2.739371,-0.638805,0.168839,0.112072,0.084153,-0.151270
"2019-04-05 12:09:59.015 +0000",1554466199.014934,1.426797,-0.118127,1.612244,0.982753,0.117853,-0.142503,0.000000,0.000000,0.000000,-1,-1.117520,0.572779,-0.039708,-0.089092,0.215903,-0.459151
"2019-04-05 12:09:59.037 +0000",1554466199.037224,1.440935,-0.122796,1.613292,0.984113,0.122488,-0.128521,0.000000,0.000000,0.000000,-1,0.548605,0.535750,-0.254520,0.092715,0.048777,-0.116810
"2019-04-05 12:09:59.060 +0000",1554466199.059540,1.442260,-0.123442,1.579934,0.984204,0.123128,-0.127207,0.000000,0.000000,0.000000,-1,1.964753,0.113441,-0.185656,0.093738,0.018961,-0.124380
"2019-04-05 12:09:59.082 +0000",1554466199.081820,1.433428,-0.119390,1.520453,0.983528,0.119107,-0.135962,0.000000,0.000000,0.000000,-1,3.000878,-0.155317,-0.131964,-0.048607,0.011737,-0.057336
"2019-04-05 12:09:59.104 +0000",1554466199.104135,1.422065,-0.106631,1.445009,0.983343,0.106429,-0.147342,0.000000,0.000000,0.000000,-1,3.610572,-0.131666,0.191868,-0.051397,0.012940,-0.025937
"2019-04-05 12:09:59.126 +0000",1554466199.126436,1.408800,-0.089729,1.363070,0.982937,0.089609,-0.160640,0.000000,0.000000,0.000000,-1,3.720392,-0.374332,0.094826,-0.001003,0.009406,0.070827
"2019-04-05 12:09:59.149 +0000",1554466199.148743,1.391171,-0.076030,1.286136,0.981068,0.075957,-0.178145,0.000000,0.000000,0.000000,-1,3.304946,-0.699297,0.086369,-0.000478,-0.003310,0.144011
"2019-04-05 12:09:59.171 +0000",1554466199.171021,1.371738,-0.061295,1.224865,0.978412,0.061257,-0.197375,0.000000,0.000000,0.000000,-1,2.524871,-0.522478,0.088187,0.066113,0.024482,0.172641
"2019-04-05 12:09:59.193 +0000",1554466199.193328,1.373541,-0.051030,1.181184,0.979332,0.051008,-0.195723,0.000000,0.000000,0.000000,-1,1.670169,0.667900,0.074773,0.003105,0.023912,0.247237
"2019-04-05 12:09:59.216 +0000",1554466199.215635,1.402962,-0.047694,1.165197,0.984828,0.047676,-0.166858,0.000000,0.000000,0.000000,-1,-0.051801,1.730801,-0.043327,0.050512,0.022163,0.254230
"2019-04-05 12:09:59.238 +0000",1554466199.237918,1.443806,-0.056576,1.189869,0.990360,0.056546,-0.126447,0.000000,0.000000,0.000000,-1,-1.614787,1.564152,-0.340247,-0.020741,0.028843,0.241650
"2019-04-05 12:09:59.260 +0000",1554466199.260232,1.472830,-0.066795,1.231972,0.992986,0.066746,-0.097592,0.000000,0.000000,0.000000,-1,-1.990808,1.035637,-0.181890,-0.036946,0.054882,0.213467
"2019-04-05 12:09:59.283 +0000",1554466199.282529,1.497863,-0.074254,1.271666,0.994593,0.074186,-0.072668,0.000000,0.000000,0.000000,-1,-1.619534,1.007507,-0.180240,-0.048762,0.070788,0.138738
"2019-04-05 12:09:59.305 +0000",1554466199.304837,1.520063,-0.080807,1.299157,0.995454,0.080719,-0.050546,0.000000,0.000000,0.000000,-1,-1.043020,0.702411,-0.247996,0.103865,0.060134,0.062906
"2019-04-05 12:09:59.327 +0000",1554466199.327128,1.517737,-0.087185,1.318497,0.994800,0.087075,-0.052833,0.000000,0.000000,0.000000,-1,-0.774043,-0.644291,-0.194989,0.029935,0.043602,0.024665
"2019-04-05 12:09:59.349 +0000",1554466199.349423,1.503531,-0.090545,1.327773,0.993651,0.090421,-0.066939,0.000000,0.000000,0.000000,-1,-0.145155,-0.498526,-0.106694,-0.063750,0.039400,-0.006364
"2019-04-05 12:09:59.372 +0000",1554466199.371730,1.501569,-0.090867,1.319810,0.993489,0.090742,-0.068887,0.000000,0.000000,0.000000,-1,0.609628,0.139473,0.012020,-0.021794,0.019777,-0.111106
"2019-04-05 12:09:59.394 +0000",1554466199.394037,1.502785,-0.089567,1.299952,0.993689,0.089448,-0.067687,0.000000,0.000000,0.000000,-1,1.024594,0.082887,-0.033200,0.090692,0.006668,-0.118989
"2019-04-05 12:09:59.416 +0000",1554466199.416346,1.499237,-0.088885,1.275680,0.993503,0.088768,-0.071216,0.000000,0.000000,0.000000,-1,1.075932,-0.140919,-0.017545,0.011029,-0.036064,-0.042050
"2019-04-05 12:09:59.439 +0000",1554466199.438642,1.492989,-0.085870,1.253772,0.993301,0.085764,-0.077443,0.000000,0.000000,0.000000,-1,0.913346,-0.221673,0.113359,-0.010574,-0.045069,0.010716
"2019-04-05 12:09:59.461 +0000",1554466199.460932,1.484794,-0.081259,1.237511,0.993017,0.081170,-0.085613,0.000000,0.000000,0.000000,-1,0.606032,-0.350884,0.135463,-0.074651,-0.008797,0.069973
"2019-04-05 12:09:59.483 +0000",1554466199.483229,1.476622,-0.077157,1.230248,0.992607,0.077080,-0.093755,0.000000,0.000000,0.000000,-1,0.201070,-0.304158,0.174572,0.108574,0.005149,0.168722
"2019-04-05 12:09:59.506 +0000",1554466199.505546,1.471105,-0.074029,1.230857,0.992310,0.073962,-0.099254,0.000000,0.000000,0.000000,-1,-0.166615,-0.247915,0.125534,0.118912,0.011945,0.177470
"2019-04-05 12:09:59.528 +0000",1554466199.527855,1.465127,-0.073849,1.239619,0.991712,0.073782,-0.105185,0.000000,0.000000,0.000000,-1,-0.497091,-0.303928,-0.008088,0.070636,0.015925,0.180106
"2019-04-05 12:09:59.550 +0000",1554466199.550133,1.463241,-0.075985,1.252426,0.991353,0.075911,-0.107038,0.000000,0.000000,0.000000,-1,-0.584745,0.036709,-0.028517,0.013301,0.074540,0.152112
"2019-04-05 12:09:59.572 +0000",1554466199.572441,1.470008,-0.076956,1.263860,0.991981,0.076880,-0.100320,0.000000,0.000000,0.000000,-1,-0.462639,0.323612,0.029775,-0.014243,0.053324,0.126778
"2019-04-05 12:09:59.595 +0000",1554466199.594748,1.471591,-0.077517,1.271300,0.992095,0.077440,-0.098745,0.000000,0.000000,0.000000,-1,-0.221082,-0.200496,-0.012610,-0.073165,0.031920,0.103018
"2019-04-05 12:09:59.617 +0000",1554466199.617058,1.463699,-0.079127,1.269369,0.991160,0.079044,-0.106558,0.000000,0.000000,0.000000,-1,0.242566,-0.286790,-0.110888,-0.061991,0.090466,0.092551
"2019-04-05 12:09:59.639 +0000",1554466199.639347,1.463107,-0.079726,1.259335,0.991049,0.079641,-0.107140,0.000000,0.000000,0.000000,-1,0.579326,0.075347,-0.025880,0.022089,0.041635,-0.012153
"2019-04-05 12:09:59.662 +0000",1554466199.661641,1.459992,-0.075611,1.243105,0.991028,0.075539,-0.110262,0.000000,0.000000,0.000000,-1,0.790598,-0.157629,0.146232,-0.032852,0.045937,-0.001569
"2019-04-05 12:09:59.684 +0000",1554466199.683949,1.456372,-0.067449,1.226551,0.991202,0.067398,-0.113916,0.000000,0.000000,0.000000,-1,0.760310,-0.120976,0.402686,-0.028097,0.045944,0.033685
"2019-04-05 12:09:59.706 +0000",1554466199.706254,1.450216,-0.057156,1.210929,0.991118,0.057125,-0.120092,0.000000,0.000000,0.000000,-1,0.750896,-0.216240,0.263347,0.103380,0.016086,0.055517
"2019-04-05 12:09:59.729 +0000",1554466199.728565,1.449629,-0.052141,1.194103,0.991319,0.052117,-0.120707,0.000000,0.000000,0.000000,-1,0.821680,0.117499,0.032155,0.176634,0.010536,0.085490
"2019-04-05 12:09:59.751 +0000",1554466199.750844,1.451328,-0.051528,1.174187,0.991554,0.051505,-0.119026,0.000000,0.000000,0.000000,-1,0.906349,0.032116,-0.107232,0.318993,-0.048103,0.114280
"2019-04-05 12:09:59.773 +0000",1554466199.773141,1.441181,-0.050186,1.157355,0.990363,0.050164,-0.129090,0.000000,0.000000,0.000000,-1,0.595351,-0.692031,0.034282,-0.196540,0.071265,0.139649
"2019-04-05 12:09:59.795 +0000",1554466199.795460,1.424731,-0.048541,1.150647,0.988186,0.048522,-0.145375,0.000000,0.000000,0.000000,-1,0.145258,-0.676034,0.084809,-0.046826,0.035111,0.154713
"2019-04-05 12:09:59.818 +0000",1554466199.817768,1.411519,-0.046016,1.153999,0.986297,0.045999,-0.158437,0.000000,0.000000,0.000000,-1,-0.258303,-0.535737,0.144177,0.002808,-0.001367,0.169621
"2019-04-05 12:09:59.840 +0000",1554466199.840045,1.405657,-0.046371,1.164889,0.985335,0.046354,-0.164213,0.000000,0.000000,0.000000,-1,-0.627346,-0.055466,-0.001666,-0.003783,0.026278,0.247938
"2019-04-05 12:09:59.862 +0000",1554466199.862361,1.429486,-0.050725,1.183311,0.988759,0.050703,-0.140660,0.000000,0.000000,0.000000,-1,-0.914701,0.529398,-0.135908,0.031139,-0.017134,0.214116
"2019-04-05 12:09:59.885 +0000",1554466199.884661,1.442084,-0.056674,1.205439,0.990136,0.056644,-0.128151,0.000000,0.000000,0.000000,-1,-1.074038,0.413738,-0.125025,-0.081002,-0.005634,0.191536
"2019-04-05 12:09:59.907 +0000",1554466199.906968,1.448945,-0.062089,1.229065,0.990673,0.062049,-0.121316,0.000000,0.000000,0.000000,-1,-1.015060,0.208483,-0.084721,-0.150158,0.047830,0.164803
"2019-04-05 12:09:59.929 +0000",1554466199.929246,1.458410,-0.065180,1.246285,0.991581,0.065134,-0.111912,0.000000,0.000000,0.000000,-1,-0.610696,0.332037,0.008635,0.016582,0.019140,0.054981
"2019-04-05 12:09:59.952 +0000",1554466199.951554,1.463026,-0.065165,1.253179,0.992088,0.065119,-0.107333,0.000000,0.000000,0.000000,-1,-0.112748,0.069138,0.045917,0.034493,-0.008265,0.001651
"2019-04-05 12:09:59.974 +0000",1554466199.973861,1.462130,-0.063554,1.249875,0.992095,0.063511,-0.108234,0.000000,0.000000,0.000000,-1,0.268401,-0.002168,0.015702,0.061021,0.013271,-0.021801
"2019-04-05 12:09:59.996 +0000",1554466199.996148,1.461772,-0.062597,1.240937,0.992116,0.062556,-0.108596,0.000000,0.000000,0.000000,-1,0.466507,-0.003391,-0.004051,0.014751,0.032567,-0.051347
"2019-04-05 12:10:00.018 +0000",1554466200.018478,1.457960,-0.060748,1.229589,0.991808,0.060711,-0.112389,0.000000,0.000000,0.000000,-1,0.528043,-0.209827,0.048670,-0.006151,0.034855,-0.022849
"2019-04-05 12:10:00.041 +0000",1554466200.040756,1.452651,-0.058024,1.218874,0.991358,0.057992,-0.117672,0.000000,0.000000,0.000000,-1,0.449176,-0.177748,0.081846,-0.020197,0.044044,0.035336
"2019-04-05 12:10:00.063 +0000",1554466200.063082,1.450017,-0.054468,1.211787,0.991243,0.054441,-0.120307,0.000000,0.000000,0.000000,-1,0.252539,-0.073057,0.136657,0.042311,0.028094,0.119102
"2019-04-05 12:10:00.085 +0000",1554466200.085370,1.448629,-0.052166,1.209988,0.991197,0.052142,-0.121698,0.000000,0.000000,0.000000,-1,-0.011238,-0.025568,0.039360,0.032378,0.033536,0.133005
"2019-04-05 12:10:00.108 +0000",1554466200.107679,1.451558,-0.052458,1.213635,0.991534,0.052434,-0.118792,0.000000,0.000000,0.000000,-1,-0.233215,0.195663,0.012491,0.058271,0.021403,0.144641
"2019-04-05 12:10:00.130 +0000",1554466200.129957,1.455781,-0.052844,1.219822,0.992006,0.052819,-0.114601,0.000000,0.000000,0.000000,-1,-0.290922,0.129246,0.021739,0.003263,0.003135,0.134407
"2019-04-05 12:10:00.152 +0000",1554466200.152255,1.457183,-0.052184,1.226555,0.992200,0.052161,-0.113214,0.000000,0.000000,0.000000,-1,-0.297004,0.008946,0.088553,-0.044782,0.002939,0.121042
"2019-04-05 12:10:00.175 +0000",1554466200.174572,1.456526,-0.049800,1.233056,0.992247,0.049779,-0.113880,0.000000,0.000000,0.000000,-1,-0.252910,-0.060926,0.147498,-0.009123,0.008219,0.089039
"2019-04-05 12:10:00.197 +0000",1554466200.196881,1.455754,-0.047494,1.237958,0.992270,0.047476,-0.114659,0.000000,0.000000,0.000000,-1,-0.190365,-0.038935,0.101429,0.024362,0.011454,0.077702
"2019-04-05 12:10:00.219 +0000",1554466200.219171,1.454084,-0.045927,1.242111,0.992150,0.045911,-0.116325,0.000000,0.000000,0.000000,-1,-0.179197,-0.069779,0.076897,0.030769,0.002597,0.078681
"2019-04-05 12:10:00.241 +0000",1554466200.241465,1.453304,-0.043372,1.245399,0.992172,0.043359,-0.117112,0.000000,0.000000,0.000000,-1,-0.106223,-0.040033,0.126286,-0.018096,0.018714,0.073197
"2019-04-05 12:10:00.264 +0000",1554466200.263762,1.463732,-0.045300,1.247831,0.993254,0.045284,-0.106750,0.000000,0.000000,0.000000,-1,-0.032279,-0.043703,0.112695,0.021181,0.029301,0.066681
"2019-04-05 12:10:00.286 +0000",1554466200.286082,1.464505,-0.044437,1.247775,0.993375,0.044422,-0.105987,0.000000,0.000000,0.000000,-1,0.038806,0.098542,-0.012591,0.049808,0.018826,0.064071
"2019-04-05 12:10:00.308 +0000",1554466200.308387,1.474142,-0.048289,1.245269,0.994172,0.048270,-0.096391,0.000000,0.000000,0.000000,-1,0.172795,0.089811,-0.065806,-0.001146,0.017755,0.047776
"2019-04-05 12:10:00.331 +0000",1554466200.330667,1.475761,-0.050914,1.239684,0.994197,0.050892,-0.094770,0.000000,0.000000,0.000000,-1,0.275128,0.101653,-0.196124,-0.052486,0.030987,0.054609
"2019-04-05 12:10:00.353 +0000",1554466200.352973,1.479036,-0.054640,1.232942,0.994307,0.054612,-0.091494,0.000000,0.000000,0.000000,-1,0.282917,0.171979,-0.143401,-0.040297,0.030333,0.042376
"2019-04-05 12:10:00.375 +0000",1554466200.375282,1.484385,-0.058487,1.227364,0.994565,0.058454,-0.086156,0.000000,0.000000,0.000000,-1,0.250701,-0.071051,-0.004810,-0.085859,0.022860,0.042119
"2019-04-05 12:10:00.398 +0000",1554466200.397591,1.479759,-0.058679,1.221848,0.994145,0.058645,-0.090755,0.000000,0.000000,0.000000,-1,0.225426,-0.196634,-0.029757,-0.045582,0.019449,0.069134
"2019-04-05 12:10:00.420 +0000",1554466200.419869,1.478802,-0.058563,1.218647,0.994064,0.058529,-0.091708,0.000000,0.000000,0.000000,-1,0.087751,0.067907,0.000090,0.120682,-0.022595,0.074053
"2019-04-05 12:10:00.442 +0000",1554466200.442194,1.490536,-0.058481,1.219242,0.995077,0.058447,-0.080037,0.000000,0.000000,0.000000,-1,-0.056617,0.087444,-0.031151,-0.004110,-0.006018,0.090902
"2019-04-05 12:10:00.464 +0000",1554466200.464482,1.492827,-0.057221,1.222730,0.995330,0.057190,-0.077763,0.000000,0.000000,0.000000,-1,-0.190037,0.073388,0.166162,-0.014221,0.003388,0.092656
"2019-04-05 12:10:00.487 +0000",1554466200.486792,1.500541,-0.055572,1.228202,0.995993,0.055543,-0.070089,0.000000,0.000000,0.000000,-1,-0.215259,-0.152913,0.171878,-0.007086,0.022933,0.084433
"2019-04-05 12:10:00.509 +0000",1554466200.509101,1.499781,-0.054388,1.234182,0.996005,0.054361,-0.070851,0.000000,0.000000,0.000000,-1,-0.292177,0.060582,0.037213,0.042417,0.018149,0.079961
"2019-04-05 12:10:00.531 +0000",1554466200.531377,1.500856,-0.053529,1.241099,0.996126,0.053503,-0.069784,0.000000,0.000000,0.000000,-1,-0.307164,-0.072133,0.075600,0.066542,-0.018316,0.049657
"2019-04-05 12:10:00.554 +0000",1554466200.553685,1.495997,-0.051988,1.247479,0.995857,0.051965,-0.074629,0.000000,0.000000,0.000000,-1,-0.265935,-0.280033,0.070020,-0.126106,0.052680,0.067686
"2019-04-05 12:10:00.576 +0000",1554466200.575994,1.493698,-0.052351,1.252505,0.995663,0.052327,-0.076917,0.000000,0.000000,0.000000,-1,-0.188287,0.023536,-0.010795,-0.003995,0.040461,0.044080
"2019-04-05 12:10:00.598 +0000",1554466200.598301,1.496829,-0.048439,1.255120,0.996096,0.048420,-0.073813,0.000000,0.000000,0.000000,-1,-0.130362,0.006570,0.047701,-0.008425,-0.017430,0.037146
"2019-04-05 12:10:00.621 +0000",1554466200.620579,1.495162,-0.048284,1.256686,0.995979,0.048265,-0.075474,0.000000,0.000000,0.000000,-1,-0.035302,-0.060031,-0.007492,-0.099235,0.007842,0.049869
"2019-04-05 12:10:00.643 +0000",1554466200.642890,1.495844,-0.049420,1.256425,0.995975,0.049400,-0.074790,0.000000,0.000000,0.000000,-1,0.030944,0.054105,-0.084150,0.058438,-0.024269,0.011863
"2019-04-05 12:10:00.665 +0000",1554466200.665181,1.499096,-0.050699,1.255141,0.996149,0.050677,-0.071547,0.000000,0.000000,0.000000,-1,0.078577,0.014767,-0.085016,-0.016169,-0.023837,0.034514
"2019-04-05 12:10:00.688 +0000",1554466200.687503,1.498668,-0.048407,1.253439,0.996232,0.048388,-0.071981,0.000000,0.000000,0.000000,-1,0.077394,-0.092313,0.248470,-0.045029,-0.001925,0.034566
"2019-04-05 12:10:00.710 +0000",1554466200.709780,1.497268,-0.048604,1.251667,0.996120,0.048585,-0.073376,0.000000,0.000000,0.000000,-1,0.116507,-0.184226,0.012346,-0.021389,0.041824,0.042705
"2019-04-05 12:10:00.732 +0000",1554466200.732087,1.498644,-0.048402,1.249540,0.996230,0.048383,-0.072005,0.000000,0.000000,0.000000,-1,0.069271,0.125959,0.065397,0.261201,-0.016187,0.044768
"2019-04-05 12:10:00.754 +0000",1554466200.754395,1.500468,-0.050299,1.248038,0.996266,0.050278,-0.070181,0.000000,0.000000,0.000000,-1,0.068328,0.067285,-0.156140,-0.109929,-0.002518,0.043173
"2019-04-05 12:10:00.777 +0000",1554466200.776704,1.504237,-0.053884,1.245776,0.996338,0.053858,-0.066413,0.000000,0.000000,0.000000,-1,0.103434,0.276276,-0.195196,-0.048172,0.060400,0.065223
"2019-04-05 12:10:00.799 +0000",1554466200.798982,1.513816,-0.056224,1.243061,0.996799,0.056194,-0.056860,0.000000,0.000000,0.000000,-1,0.110693,0.496040,0.010027,-0.094471,0.021534,0.030355
"2019-04-05 12:10:00.821 +0000",1554466200.821289,1.520856,-0.054901,1.240185,0.997248,0.054873,-0.049845,0.000000,0.000000,0.000000,-1,0.165624,0.142992,0.005741,-0.070231,0.035825,0.033060
"2019-04-05 12:10:00.844 +0000",1554466200.843595,1.522546,-0.060107,1.236511,0.997032,0.060071,-0.048145,0.000000,0.000000,0.000000,-1,0.152805,-0.063792,-0.027180,0.040535,0.027103,0.045581
"2019-04-05 12:10:00.866 +0000",1554466200.865896,1.524149,-0.060049,1.233877,0.997112,0.060013,-0.046546,0.000000,0.000000,0.000000,-1,0.096598,0.093768,0.004892,-0.051906,-0.016876,0.013038
"2019-04-05 12:10:00.888 +0000",1554466200.888191,1.525100,-0.060086,1.233378,0.997153,0.060050,-0.045598,0.000000,0.000000,0.000000,-1,-0.001036,-0.172838,0.100253,0.016702,0.023553,0.054890
"2019-04-05 12:10:00.910 +0000",1554466200.910490,1.519974,-0.057439,1.234482,0.997062,0.057408,-0.050717,0.000000,0.000000,0.000000,-1,-0.076223,-0.230580,0.128026,0.030648,0.022731,0.061307
"2019-04-05 12:10:00.933 +0000",1554466200.932797,1.519965,-0.053937,1.238083,0.997256,0.053911,-0.050735,0.000000,0.000000,0.000000,-1,-0.189174,-0.163053,0.102573,0.048734,-0.010469,0.054092
"2019-04-05 12:10:00.955 +0000",1554466200.955107,1.516916,-0.051863,1.244274,0.997206,0.051839,-0.053781,0.000000,0.000000,0.000000,-1,-0.315747,-0.162997,0.131051,0.029588,-0.017370,0.073267
"2019-04-05 12:10:00.977 +0000",1554466200.977414,1.516876,-0.049557,1.252244,0.997321,0.049537,-0.053828,0.000000,0.000000,0.000000,-1,-0.354948,-0.179277,0.056751,-0.038840,-0.010841,0.061991
"2019-04-05 12:10:01.000 +0000",1554466200.999691,1.516059,-0.049191,1.259908,0.997294,0.049171,-0.054644,0.000000,0.000000,0.000000,-1,-0.331125,0.054301,0.014990,-0.003215,-0.004082,0.062060
"2019-04-05 12:10:01.022 +0000",1554466201.022012,1.521783,-0.050062,1.266687,0.997548,0.050041,-0.048932,0.000000,0.000000,0.000000,-1,-0.285042,0.165891,-0.083980,-0.056233,-0.011344,0.031766
"2019-04-05 12:10:01.044 +0000",1554466201.044302,1.523783,-0.053215,1.272382,0.997481,0.053190,-0.046929,0.000000,0.000000,0.000000,-1,-0.247792,-0.006563,-0.148182,-0.036315,-0.006758,0.028115
"2019-04-05 12:10:01.067 +0000",1554466201.066609,1.521242,-0.056321,1.277578,0.997189,0.056291,-0.049456,0.000000,0.000000,0.000000,-1,-0.242672,-0.152758,-0.098501,-0.063961,0.005126,0.018862
"2019-04-05 12:10:01.089 +0000",1554466201.088913,1.519352,-0.057727,1.283053,0.997014,0.057695,-0.051336,0.000000,0.000000,0.000000,-1,-0.238243,-0.109096,0.057418,-0.007756,0.006331,0.014379
"2019-04-05 12:10:01.111 +0000",1554466201.111201,1.518700,-0.055706,1.287641,0.997094,0.055677,-0.051992,0.000000,0.000000,0.000000,-1,-0.172654,0.030194,0.123199,0.065146,-0.002759,0.019094
"2019-04-05 12:10:01.134 +0000",1554466201.133507,1.521633,-0.052792,1.289826,0.997400,0.052768,-0.049075,0.000000,0.000000,0.000000,-1,-0.041258,0.036109,0.046294,0.087118,-0.011096,0.018176
"2019-04-05 12:10:01.156 +0000",1554466201.155818,1.521381,-0.052735,1.289740,0.997391,0.052710,-0.049327,0.000000,0.000000,0.000000,-1,0.024993,0.002727,-0.004244,0.031616,-0.002814,0.013026
"2019-04-05 12:10:01.178 +0000",1554466201.178125,1.522983,-0.052372,1.289020,0.997488,0.052348,-0.047729,0.000000,0.000000,0.000000,-1,0.040155,0.085204,0.008677,-0.044622,0.026341,-0.012238
"2019-04-05 12:10:01.200 +0000",1554466201.200403,1.522586,-0.053781,1.287756,0.997394,0.053755,-0.048122,0.000000,0.000000,0.000000,-1,0.066467,0.006504,0.014341,-0.027728,0.018801,0.002285
"2019-04-05 12:10:01.223 +0000",1554466201.222708,1.522875,-0.053753,1.285873,0.997409,0.053727,-0.047834,0.000000,0.000000,0.000000,-1,0.073952,0.028596,0.000502,0.015286,0.007293,0.019941
"2019-04-05 12:10:01.245 +0000",1554466201.245032,1.523959,-0.053754,1.285716,0.997461,0.053728,-0.046752,0.000000,0.000000,0.000000,-1,-0.025127,0.001382,-0.000479,-0.031976,0.002989,0.017883
"2019-04-05 12:10:01.267 +0000",1554466201.267327,1.523513,-0.054253,1.286186,0.997413,0.054226,-0.047196,0.000000,0.000000,0.000000,-1,-0.002667,-0.001178,-0.028979,0.003747,0.014362,0.027787
"2019-04-05 12:10:01.290 +0000",1554466201.289632,1.526184,-0.055042,1.286501,0.997492,0.055014,-0.044530,0.000000,0.000000,0.000000,-1,-0.003922,0.030793,-0.034226,0.044592,-0.004400,0.033482
"2019-04-05 12:10:01.312 +0000",1554466201.311914,1.526359,-0.055701,1.285662,0.997463,0.055673,-0.044354,0.000000,0.000000,0.000000,-1,0.041247,0.011154,-0.027829,-0.011883,0.011130,0.036328
"2019-04-05 12:10:01.334 +0000",1554466201.334217,1.528788,-0.056910,1.285938,0.997500,0.056880,-0.041928,0.000000,0.000000,0.000000,-1,-0.039023,0.024659,-0.027986,0.015882,-0.007273,0.028607
"2019-04-05 12:10:01.357 +0000",1554466201.356527,1.528723,-0.057356,1.286932,0.997472,0.057325,-0.041991,0.000000,0.000000,0.000000,-1,-0.045249,-0.022016,-0.008966,0.009516,-0.007581,0.020888
"2019-04-05 12:10:01.379 +0000",1554466201.378834,1.530138,-0.057197,1.288093,0.997540,0.057166,-0.040580,0.000000,0.000000,0.000000,-1,-0.047752,0.018563,-0.014287,-0.006725,-0.013221,0.024055
"2019-04-05 12:10:01.401 +0000",1554466201.401111,1.533752,-0.055578,1.288334,0.997771,0.055549,-0.036979,0.000000,0.000000,0.000000,-1,0.061568,0.066745,0.025035,0.017244,-0.016594,0.017737
"2019-04-05 12:10:01.423 +0000",1554466201.423420,1.535672,-0.054358,1.287595,0.997907,0.054331,-0.035065,0.000000,0.000000,0.000000,-1,0.052657,-0.017051,0.000963,0.000216,-0.012033,0.015686
