timestamp,timeIntervalSince1970,attitude.roll,attitude.pitch,attitude.yaw,gravity.x,gravity.y,gravity.z,magneticField.x,magneticField.y,magneticField.z,magneticField.accuracy,rotationRate.x,rotationRate.y,rotationRate.z,userAcceleration.x,userAcceleration.y,userAcceleration.z
"2019-03-26 11:20:10.593 +0000",1553599210.593404,-0.159785,0.247576,0.021752,-0.154254,-0.245055,-0.957159,0.000000,0.000000,0.000000,-1,-0.061411,0.148516,0.314251,0.027774,0.108870,-0.135065
"2019-03-26 11:20:10.616 +0000",1553599210.615710,-0.166557,0.243116,0.029340,-0.160912,-0.240728,-0.957161,0.000000,0.000000,0.000000,-1,-0.103036,-0.508300,0.343431,0.188378,0.100393,0.070091
"2019-03-26 11:20:10.638 +0000",1553599210.637989,-0.188002,0.245386,0.035651,-0.181297,-0.242931,-0.952951,0.000000,0.000000,0.000000,-1,0.314928,-1.072104,0.196028,0.187981,0.033702,0.053232
"2019-03-26 11:20:10.660 +0000",1553599210.660288,-0.212859,0.257422,0.040965,-0.204294,-0.254588,-0.945224,0.000000,0.000000,0.000000,-1,0.693295,-0.942054,0.064779,0.117029,0.025203,-0.112027
"2019-03-26 11:20:10.683 +0000",1553599210.682594,-0.230291,0.271373,0.045946,-0.219907,-0.268054,-0.937970,0.000000,0.000000,0.000000,-1,0.577061,-0.645430,0.117921,0.033796,0.099628,-0.155353
"2019-03-26 11:20:10.705 +0000",1553599210.704913,-0.248917,0.278772,0.051800,-0.236844,-0.275175,-0.931764,0.000000,0.000000,0.000000,-1,0.283571,-0.897546,0.167173,0.051129,0.110304,-0.108291
"2019-03-26 11:20:10.727 +0000",1553599210.727191,-0.274542,0.279417,0.054361,-0.260592,-0.275796,-0.925218,0.000000,0.000000,0.000000,-1,-0.177270,-1.340779,0.120048,0.089358,0.094231,0.004976
"2019-03-26 11:20:10.749 +0000",1553599210.749487,-0.314739,0.266544,0.052154,-0.298636,-0.263399,-0.917299,0.000000,0.000000,0.000000,-1,-0.773989,-1.868053,-0.013227,0.000846,0.057772,0.051897
"2019-03-26 11:20:10.772 +0000",1553599210.771797,-0.350794,0.250245,0.042557,-0.332940,-0.247641,-0.909849,0.000000,0.000000,0.000000,-1,-0.780853,-1.636268,-0.197647,0.068826,-0.008020,0.167753
"2019-03-26 11:20:10.794 +0000",1553599210.794113,-0.376649,0.239227,0.036740,-0.357331,-0.236952,-0.903420,0.000000,0.000000,0.000000,-1,-0.397879,-0.851440,0.075913,0.062440,0.036772,0.190560
"2019-03-26 11:20:10.816 +0000",1553599210.816393,-0.375900,0.232238,0.042522,-0.357255,-0.230156,-0.905206,0.000000,0.000000,0.000000,-1,-0.139380,0.638664,0.465972,0.019288,0.158485,0.066873
"2019-03-26 11:20:10.839 +0000",1553599210.838699,-0.363727,0.224252,0.052922,-0.346851,-0.222377,-0.911177,0.000000,0.000000,0.000000,-1,-0.180168,0.426542,0.650197,-0.106106,0.147670,0.012388
"2019-03-26 11:20:10.861 +0000",1553599210.861009,-0.374112,0.214494,0.071428,-0.357071,-0.212853,-0.909502,0.000000,0.000000,0.000000,-1,0.043283,-0.749591,0.603695,-0.031997,0.147515,-0.015028
"2019-03-26 11:20:10.883 +0000",1553599210.883316,-0.433007,0.196114,0.070161,-0.411559,-0.194860,-0.890308,0.000000,0.000000,0.000000,-1,-1.284714,-3.406373,0.522504,0.035262,0.041051,-0.064266
"2019-03-26 11:20:10.906 +0000",1553599210.905609,-0.523244,0.151027,0.069756,-0.494005,-0.150453,-0.856343,0.000000,0.000000,0.000000,-1,-1.872887,-4.301526,1.009047,0.370943,-0.174040,0.302311
"2019-03-26 11:20:10.928 +0000",1553599210.927901,-0.598540,0.117720,0.068626,-0.559537,-0.117448,-0.820441,0.000000,0.000000,0.000000,-1,-0.754189,-3.133292,0.460762,0.151472,-0.182799,0.260337
"2019-03-26 11:20:10.950 +0000",1553599210.950210,-0.695380,0.125154,0.081195,-0.635666,-0.124827,-0.761805,0.000000,0.000000,0.000000,-1,1.410870,-5.074623,0.186154,-0.009491,0.049601,0.043223
"2019-03-26 11:20:10.973 +0000",1553599210.972519,-0.846765,0.157969,0.134293,-0.739813,-0.157313,-0.654163,0.000000,0.000000,0.000000,-1,3.481549,-6.822211,1.034957,-0.069772,0.174373,-0.545102
"2019-03-26 11:20:10.995 +0000",1553599210.994816,-1.004551,0.183590,0.230165,-0.829739,-0.182560,-0.527452,0.000000,0.000000,0.000000,-1,4.308386,-5.920657,1.860951,0.420651,0.171543,-0.806288
"2019-03-26 11:20:11.017 +0000",1553599211.017102,-1.138342,0.191544,0.338110,-0.891335,-0.190375,-0.411436,0.000000,0.000000,0.000000,-1,4.386629,-4.700695,2.079656,0.457955,0.189185,-0.848009
"2019-03-26 11:20:11.039 +0000",1553599211.039432,-1.277361,0.177466,0.459391,-0.942221,-0.176536,-0.284700,0.000000,0.000000,0.000000,-1,5.016326,-5.963005,2.603474,0.370093,0.247535,-0.600356
"2019-03-26 11:20:11.062 +0000",1553599211.061714,-1.439739,0.153315,0.579020,-0.979795,-0.152715,-0.129150,0.000000,0.000000,0.000000,-1,4.678393,-5.749643,1.826097,0.643430,0.108267,-0.516449
"2019-03-26 11:20:11.084 +0000",1553599211.084004,-1.539196,0.127364,0.675933,-0.991405,-0.127020,-0.031339,0.000000,0.000000,0.000000,-1,4.194781,-3.125863,1.523478,0.388958,0.102392,-0.663348
"2019-03-26 11:20:11.106 +0000",1553599211.106304,-1.635834,0.093339,0.759960,-0.993542,-0.093204,0.064709,0.000000,0.000000,0.000000,-1,3.266614,-4.448956,1.450468,-0.110675,-0.024960,-0.205365
"2019-03-26 11:20:11.129 +0000",1553599211.128600,-1.749074,0.048810,0.815310,-0.982978,-0.048791,0.177124,0.000000,0.000000,0.000000,-1,2.164666,-5.061052,1.706019,0.583000,-0.269508,-0.174103
"2019-03-26 11:20:11.151 +0000",1553599211.150920,-1.858789,0.033279,0.818992,-0.958285,-0.033272,0.283871,0.000000,0.000000,0.000000,-1,-0.601830,-4.073049,0.146628,0.578860,-0.373481,0.025730
"2019-03-26 11:20:11.173 +0000",1553599211.173226,-1.887169,0.042064,0.784364,-0.949530,-0.042051,0.310846,0.000000,0.000000,0.000000,-1,-2.302800,-0.464489,-0.171457,0.339575,-0.092180,0.164633
"2019-03-26 11:20:11.196 +0000",1553599211.195521,-1.894899,0.070541,0.752536,-0.945580,-0.070482,0.317666,0.000000,0.000000,0.000000,-1,-0.948388,-0.342394,-0.876588,-0.681023,-0.195951,0.615714
"2019-03-26 11:20:11.218 +0000",1553599211.217813,-1.923392,0.074000,0.761139,-0.935911,-0.073933,0.344390,0.000000,0.000000,0.000000,-1,1.007710,-2.308080,0.209805,-0.242586,-0.271328,-0.194594
"2019-03-26 11:20:11.240 +0000",1553599211.240121,-2.013213,0.047063,0.788245,-0.902719,-0.047046,0.427650,0.000000,0.000000,0.000000,-1,1.752694,-4.569916,0.874042,0.018213,0.013782,-0.598900
"2019-03-26 11:20:11.262 +0000",1553599211.262429,-2.110197,0.012470,0.809544,-0.857950,-0.012469,0.513582,0.000000,0.000000,0.000000,-1,1.428721,-3.740612,0.955861,0.406213,0.092853,-0.609194
"2019-03-26 11:20:11.285 +0000",1553599211.284707,-2.155665,-0.023574,0.808317,-0.833553,0.023571,0.551937,0.000000,0.000000,0.000000,-1,0.152202,-1.070770,1.837209,0.059627,-0.020520,0.139485
"2019-03-26 11:20:11.307 +0000",1553599211.307015,-2.146258,-0.068306,0.778600,-0.836985,0.068252,0.542953,0.000000,0.000000,0.000000,-1,0.144203,1.463589,2.217885,-0.091375,-0.004104,0.407456
"2019-03-26 11:20:11.329 +0000",1553599211.329320,-2.108329,-0.099579,0.743854,-0.854719,0.099415,0.509482,0.000000,0.000000,0.000000,-1,-0.844334,1.713895,1.840596,0.137953,0.010235,0.434594
"2019-03-26 11:20:11.352 +0000",1553599211.351615,-2.091045,-0.132740,0.693526,-0.860062,0.132350,0.492723,0.000000,0.000000,0.000000,-1,-1.281421,0.792253,2.777755,-0.037231,0.197743,-0.230562
"2019-03-26 11:20:11.374 +0000",1553599211.373928,-2.082120,-0.169412,0.637724,-0.859613,0.168603,0.482326,0.000000,0.000000,0.000000,-1,-1.340816,0.884054,2.346447,-0.109061,0.110221,-0.463283
"2019-03-26 11:20:11.396 +0000",1553599211.396214,-2.065953,-0.209549,0.601251,-0.860646,0.208019,0.464775,0.000000,0.000000,0.000000,-1,0.466821,0.814821,2.696428,-0.122111,0.013432,-0.069084
"2019-03-26 11:20:11.419 +0000",1553599211.418523,-2.072587,-0.256436,0.595343,-0.848054,0.253635,0.465268,0.000000,0.000000,0.000000,-1,0.515662,-0.896332,1.734092,-0.396575,-0.201800,0.128895
"2019-03-26 11:20:11.441 +0000",1553599211.440832,-2.092444,-0.292150,0.586298,-0.830262,0.288011,0.477194,0.000000,0.000000,0.000000,-1,0.424311,-0.376147,1.699662,0.325273,-0.326677,-0.729727
"2019-03-26 11:20:11.463 +0000",1553599211.463139,-2.092024,-0.331851,0.568004,-0.819894,0.325794,0.470778,0.000000,0.000000,0.000000,-1,-0.003414,0.593600,1.845939,-0.089652,-0.222156,0.275682
"2019-03-26 11:20:11.485 +0000",1553599211.485418,-2.065752,-0.344906,0.548530,-0.828165,0.338109,0.447019,0.000000,0.000000,0.000000,-1,-0.612407,2.044778,0.215131,-0.070868,-0.242329,-0.059674
"2019-03-26 11:20:11.508 +0000",1553599211.507723,-2.037626,-0.321873,0.557025,-0.847139,0.316344,0.426945,0.000000,0.000000,0.000000,-1,0.345160,-0.132431,-1.757441,-0.361128,-0.510832,0.141399
"2019-03-26 11:20:11.530 +0000",1553599211.530032,-2.067802,-0.277466,0.612731,-0.845394,0.273919,0.458560,0.000000,0.000000,0.000000,-1,1.754628,-2.969337,-3.228988,-0.509296,-0.427331,0.172544
"2019-03-26 11:20:11.552 +0000",1553599211.552340,-2.123532,-0.239921,0.692768,-0.826713,0.237626,0.509979,0.000000,0.000000,0.000000,-1,2.255222,-3.136256,-2.866294,-0.445931,0.248183,-0.323441
"2019-03-26 11:20:11.575 +0000",1553599211.574636,-2.155655,-0.213242,0.749858,-0.814905,0.211629,0.539577,0.000000,0.000000,0.000000,-1,0.649919,-1.227579,-2.508041,0.612146,1.037730,-0.102885
"2019-03-26 11:20:11.597 +0000",1553599211.596925,-2.166338,-0.158090,0.777322,-0.817521,0.157433,0.553962,0.000000,0.000000,0.000000,-1,-0.761136,-1.006811,-2.524251,0.997560,0.871834,-0.018089
"2019-03-26 11:20:11.619 +0000",1553599211.619234,-2.170084,-0.127425,0.769237,-0.819043,0.127080,0.559481,0.000000,0.000000,0.000000,-1,-1.423780,0.605385,0.287900,-0.415759,0.575068,-0.149325
"2019-03-26 11:20:11.642 +0000",1553599211.641541,-2.181345,-0.140365,0.738303,-0.811276,0.139904,0.567678,0.000000,0.000000,0.000000,-1,-0.226885,-0.485668,1.455522,-0.345432,0.532276,-0.176306
"2019-03-26 11:20:11.664 +0000",1553599211.663818,-2.191879,-0.160247,0.720340,-0.802830,0.159562,0.574460,0.000000,0.000000,0.000000,-1,-0.247979,-0.599748,1.223304,0.122013,-0.506059,0.022998
"2019-03-26 11:20:11.686 +0000",1553599211.686126,-2.209638,-0.179274,0.703455,-0.789921,0.178316,0.586710,0.000000,0.000000,0.000000,-1,-0.082219,-0.578602,1.265366,0.197422,0.765685,0.377096
"2019-03-26 11:20:11.708 +0000",1553599211.708435,-2.221684,-0.200466,0.672948,-0.779615,0.199126,0.593759,0.000000,0.000000,0.000000,-1,-0.615876,-0.206945,1.681141,-0.151797,0.248094,-0.147806
"2019-03-26 11:20:11.731 +0000",1553599211.730727,-2.227884,-0.220844,0.650625,-0.772545,0.219053,0.595978,0.000000,0.000000,0.000000,-1,-0.126298,0.169933,0.788538,0.027702,-0.006757,-0.122864
"2019-03-26 11:20:11.753 +0000",1553599211.753020,-2.224244,-0.214818,0.645973,-0.775743,0.213170,0.593954,0.000000,0.000000,0.000000,-1,-0.509386,0.291116,-0.280808,0.024049,-0.034245,-0.131262
"2019-03-26 11:20:11.775 +0000",1553599211.775328,-2.214639,-0.202699,0.637785,-0.783420,0.201314,0.587984,0.000000,0.000000,0.000000,-1,-0.566496,0.546128,-0.178890,-0.121090,0.166972,-0.139421
"2019-03-26 11:20:11.798 +0000",1553599211.797622,-2.209886,-0.197132,0.637846,-0.787094,0.195857,0.584913,0.000000,0.000000,0.000000,-1,0.125178,-0.073862,-0.252485,-0.007965,-0.159862,-0.063017
"2019-03-26 11:20:11.820 +0000",1553599211.819943,-2.220776,-0.204014,0.630218,-0.779586,0.202602,0.592620,0.000000,0.000000,0.000000,-1,0.216818,-0.475838,0.448306,0.011672,-0.030711,-0.074706
"2019-03-26 11:20:11.842 +0000",1553599211.842252,-2.199253,-0.200053,0.643931,-0.792802,0.198721,0.576172,0.000000,0.000000,0.000000,-1,0.385750,1.670432,-0.935268,-0.023055,0.209848,-0.086396
"2019-03-26 11:20:11.865 +0000",1553599211.864530,-2.164332,-0.182551,0.656021,-0.815194,0.181538,0.550002,0.000000,0.000000,0.000000,-1,-0.490403,0.828595,-0.945538,0.484826,-0.937321,0.022340
"2019-03-26 11:20:11.887 +0000",1553599211.886837,-2.176318,-0.167758,0.643169,-0.810663,0.166972,0.561201,0.000000,0.000000,0.000000,-1,-0.898158,-0.674063,0.207683,-0.190604,-0.270839,0.160006
"2019-03-26 11:20:11.909 +0000",1553599211.909144,-2.186317,-0.161609,0.628936,-0.805834,0.160906,0.569860,0.000000,0.000000,0.000000,-1,-0.471146,-0.234455,-0.042904,-0.174238,0.390180,-0.424673
"2019-03-26 11:20:11.931 +0000",1553599211.931454,-2.186635,-0.148772,0.623268,-0.807273,0.148224,0.571262,0.000000,0.000000,0.000000,-1,-0.634249,0.214198,-0.435246,-0.068048,0.541901,0.011471
"2019-03-26 11:20:11.954 +0000",1553599211.953730,-2.182936,-0.134579,0.615757,-0.811020,0.134173,0.569424,0.000000,0.000000,0.000000,-1,-0.471878,0.195127,-0.294826,-0.077454,0.168348,0.053149
"2019-03-26 11:20:11.976 +0000",1553599211.976039,-2.190603,-0.122526,0.619688,-0.807888,0.122219,0.576523,0.000000,0.000000,0.000000,-1,-0.178407,-0.826305,-0.749596,-0.154819,-0.047665,-0.032227
"2019-03-26 11:20:11.998 +0000",1553599211.998346,-2.253608,-0.100710,0.610260,-0.771871,0.100540,0.627780,0.000000,0.000000,0.000000,-1,-1.707460,-3.569693,0.018426,-0.060008,-0.416046,-0.138384
"2019-03-26 11:20:12.021 +0000",1553599212.020642,-2.347969,-0.081598,0.555461,-0.710527,0.081507,0.698933,0.000000,0.000000,0.000000,-1,-2.416858,-5.472672,1.707263,0.307756,-1.230067,-0.136830
"2019-03-26 11:20:12.043 +0000",1553599212.042941,-2.449666,-0.081471,0.493950,-0.635906,0.081381,0.767464,0.000000,0.000000,0.000000,-1,-1.623475,-2.221397,1.931813,0.014522,0.376123,-0.321907
"2019-03-26 11:20:12.065 +0000",1553599212.065238,-2.432275,-0.085217,0.449009,-0.648953,0.085114,0.756053,0.000000,0.000000,0.000000,-1,-0.801368,1.482216,1.741741,0.191494,0.868347,-0.668651
"2019-03-26 11:20:12.088 +0000",1553599212.087547,-2.438703,-0.108292,0.429116,-0.642638,0.108080,0.758508,0.000000,0.000000,0.000000,-1,0.461952,-1.362904,1.344513,-0.186311,0.899030,0.412283
"2019-03-26 11:20:12.110 +0000",1553599212.109855,-2.478771,-0.154964,0.384835,-0.607970,0.154345,0.778813,0.000000,0.000000,0.000000,-1,0.703905,-0.479355,3.624331,-0.177674,-0.369524,-0.233235
"2019-03-26 11:20:12.132 +0000",1553599212.132164,-2.468203,-0.214037,0.329595,-0.609409,0.212407,0.763874,0.000000,0.000000,0.000000,-1,0.476209,1.581515,3.423580,-0.002438,-1.052678,-0.182789
"2019-03-26 11:20:12.154 +0000",1553599212.154441,-2.451947,-0.260924,0.282618,-0.614728,0.257973,0.745359,0.000000,0.000000,0.000000,-1,0.227295,0.674975,2.517242,0.050580,0.616234,0.203188
"2019-03-26 11:20:12.177 +0000",1553599212.176747,-2.454993,-0.280736,0.257272,-0.609095,0.277063,0.743128,0.000000,0.000000,0.000000,-1,-0.208247,-0.098495,0.731339,-0.519049,0.704306,0.007894
"2019-03-26 11:20:12.199 +0000",1553599212.199056,-2.472267,-0.271990,0.251883,-0.597648,0.268648,0.755410,0.000000,0.000000,0.000000,-1,-0.342483,-1.089267,-0.337953,-0.007103,0.335890,-0.094750
"2019-03-26 11:20:12.221 +0000",1553599212.221364,-2.493038,-0.266828,0.262684,-0.582660,0.263673,0.768755,0.000000,0.000000,0.000000,-1,0.335245,-1.019735,-0.564059,0.205264,0.187606,-0.196520
"2019-03-26 11:20:12.244 +0000",1553599212.243654,-2.504851,-0.266059,0.281930,-0.573658,0.262931,0.775747,0.000000,0.000000,0.000000,-1,0.489026,-0.541926,-0.767961,0.006824,0.112847,-0.150030
"2019-03-26 11:20:12.266 +0000",1553599212.265950,-2.512552,-0.264455,0.304258,-0.567914,0.261384,0.780482,0.000000,0.000000,0.000000,-1,0.540180,-0.690916,-0.810036,-0.123400,0.277954,-0.052790
"2019-03-26 11:20:12.288 +0000",1553599212.288255,-2.521571,-0.262725,0.322520,-0.561115,0.259713,0.785939,0.000000,0.000000,0.000000,-1,0.265041,-0.577158,-0.628804,-0.155316,0.351158,0.084942
"2019-03-26 11:20:12.311 +0000",1553599212.310565,-2.532719,-0.254833,0.328944,-0.553473,0.252084,0.793802,0.000000,0.000000,0.000000,-1,-0.496534,-0.394565,-0.089875,-0.179025,0.314673,0.088782
"2019-03-26 11:20:12.333 +0000",1553599212.332873,-2.536633,-0.250204,0.327188,-0.551020,0.247602,0.796913,0.000000,0.000000,0.000000,-1,0.115962,-0.021456,-0.060671,0.018870,-0.027036,-0.050880
"2019-03-26 11:20:12.355 +0000",1553599212.355150,-2.538673,-0.254259,0.332137,-0.548819,0.251528,0.797202,0.000000,0.000000,0.000000,-1,0.274856,-0.306986,-0.112652,0.047995,-0.238405,-0.106589
"2019-03-26 11:20:12.377 +0000",1553599212.377459,-2.545040,-0.256566,0.339412,-0.543405,0.253761,0.800198,0.000000,0.000000,0.000000,-1,0.256660,-0.405944,-0.251962,0.070733,-0.397071,-0.114773
"2019-03-26 11:20:12.400 +0000",1553599212.399767,-2.554400,-0.256022,0.344107,-0.535968,0.253234,0.805364,0.000000,0.000000,0.000000,-1,-0.060056,-0.448504,-0.089209,-0.017652,-0.010391,-0.041677
"2019-03-26 11:20:12.422 +0000",1553599212.422074,-2.560935,-0.254173,0.342293,-0.530949,0.251445,0.809239,0.000000,0.000000,0.000000,-1,-0.059309,-0.256017,0.061669,-0.109187,0.144505,-0.061787
"2019-03-26 11:20:12.444 +0000",1553599212.444351,-2.570681,-0.251167,0.336525,-0.523443,0.248535,0.815008,0.000000,0.000000,0.000000,-1,-0.133161,-0.509150,0.142038,-0.167108,-0.144165,-0.078908
"2019-03-26 11:20:12.467 +0000",1553599212.466653,-2.584001,-0.250964,0.337566,-0.512568,0.248338,0.821951,0.000000,0.000000,0.000000,-1,0.006104,-0.654082,-0.133256,-0.067953,-0.108827,-0.154546
"2019-03-26 11:20:12.489 +0000",1553599212.488968,-2.598583,-0.248133,0.341287,-0.500889,0.245595,0.829936,0.000000,0.000000,0.000000,-1,0.015859,-0.688766,-0.196212,-0.109722,0.096751,-0.105067
"2019-03-26 11:20:12.511 +0000",1553599212.511277,-2.608411,-0.247426,0.347342,-0.492797,0.244909,0.834967,0.000000,0.000000,0.000000,-1,0.158646,-0.370498,-0.300700,-0.128663,0.091563,-0.060248
"2019-03-26 11:20:12.534 +0000",1553599212.533554,-2.611905,-0.247096,0.357381,-0.489917,0.244589,0.836754,0.000000,0.000000,0.000000,-1,0.219717,-0.203651,-0.424969,-0.118039,0.029337,-0.019753
"2019-03-26 11:20:12.556 +0000",1553599212.555861,-2.610721,-0.247007,0.369446,-0.490918,0.244503,0.836192,0.000000,0.000000,0.000000,-1,0.278660,0.004124,-0.462763,-0.137576,0.128437,-0.021663
"2019-03-26 11:20:12.578 +0000",1553599212.578169,-2.604482,-0.247762,0.381831,-0.496032,0.245235,0.832954,0.000000,0.000000,0.000000,-1,0.321589,0.219547,-0.429922,-0.108873,0.068791,-0.037941
"2019-03-26 11:20:12.600 +0000",1553599212.600477,-2.594915,-0.249622,0.394508,-0.503740,0.247038,0.827779,0.000000,0.000000,0.000000,-1,0.370550,0.330249,-0.438327,-0.074904,0.037554,-0.062078
"2019-03-26 11:20:12.623 +0000",1553599212.622778,-2.584130,-0.250773,0.408349,-0.512487,0.248153,0.822057,0.000000,0.000000,0.000000,-1,0.337571,0.279484,-0.519766,-0.087260,0.051683,-0.026555
"2019-03-26 11:20:12.645 +0000",1553599212.645055,-2.579830,-0.250206,0.422387,-0.516092,0.247603,0.819965,0.000000,0.000000,0.000000,-1,0.308443,-0.116644,-0.521225,-0.118033,0.087815,0.025235
"2019-03-26 11:20:12.667 +0000",1553599212.667371,-2.578774,-0.251763,0.437092,-0.516751,0.249112,0.819092,0.000000,0.000000,0.000000,-1,0.445333,-0.063566,-0.489383,-0.068133,0.095096,-0.011581
"2019-03-26 11:20:12.690 +0000",1553599212.689662,-2.574424,-0.255005,0.451968,-0.519873,0.252250,0.816151,0.000000,0.000000,0.000000,-1,0.469356,0.050955,-0.461857,-0.025873,0.026329,-0.158466
"2019-03-26 11:20:12.712 +0000",1553599212.711986,-2.571801,-0.257051,0.465928,-0.521732,0.254230,0.814348,0.000000,0.000000,0.000000,-1,0.358869,-0.117613,-0.459167,-0.033032,0.017179,-0.121172
"2019-03-26 11:20:12.734 +0000",1553599212.734264,-2.572554,-0.256901,0.479339,-0.521140,0.254085,0.814773,0.000000,0.000000,0.000000,-1,0.285823,-0.205207,-0.516726,-0.049585,0.031209,-0.054992
"2019-03-26 11:20:12.757 +0000",1553599212.756573,-2.573187,-0.256114,0.493293,-0.520731,0.253323,0.815271,0.000000,0.000000,0.000000,-1,0.310840,-0.156088,-0.541963,-0.035879,0.085727,-0.032953
"2019-03-26 11:20:12.779 +0000",1553599212.778880,-2.572038,-0.255776,0.508148,-0.521714,0.252997,0.814744,0.000000,0.000000,0.000000,-1,0.340931,-0.106913,-0.553551,-0.086822,0.089426,-0.073472
"2019-03-26 11:20:12.801 +0000",1553599212.801188,-2.570760,-0.255457,0.523340,-0.522798,0.252687,0.814145,0.000000,0.000000,0.000000,-1,0.344656,-0.135223,-0.558260,-0.099929,0.079924,-0.085446
"2019-03-26 11:20:12.823 +0000",1553599212.823465,-2.570417,-0.254912,0.537397,-0.523152,0.252160,0.814081,0.000000,0.000000,0.000000,-1,0.278391,-0.137505,-0.504925,-0.087154,0.026954,-0.068048
"2019-03-26 11:20:12.846 +0000",1553599212.845773,-2.570263,-0.254062,0.549606,-0.523393,0.251338,0.814180,0.000000,0.000000,0.000000,-1,0.241012,-0.132366,-0.444200,-0.047195,0.050573,-0.026461
"2019-03-26 11:20:12.868 +0000",1553599212.868081,-2.570884,-0.252903,0.560038,-0.523044,0.250215,0.814750,0.000000,0.000000,0.000000,-1,0.192282,-0.144501,-0.395732,-0.029263,0.032194,-0.056113
"2019-03-26 11:20:12.890 +0000",1553599212.890389,-2.569927,-0.252431,0.571143,-0.523887,0.249758,0.814348,0.000000,0.000000,0.000000,-1,0.273767,-0.037556,-0.425179,-0.058144,0.035368,-0.080629
"2019-03-26 11:20:12.913 +0000",1553599212.912691,-2.565767,-0.254513,0.583353,-0.526986,0.251774,0.811724,0.000000,0.000000,0.000000,-1,0.419471,0.159391,-0.409498,-0.091926,0.047619,-0.016146
"2019-03-26 11:20:12.935 +0000",1553599212.934973,-2.557918,-0.257254,0.597424,-0.532959,0.254426,0.806984,0.000000,0.000000,0.000000,-1,0.418036,0.161678,-0.454178,-0.072312,0.012542,-0.026893
"2019-03-26 11:20:12.957 +0000",1553599212.957282,-2.552868,-0.259035,0.611032,-0.536775,0.256148,0.803904,0.000000,0.000000,0.000000,-1,0.385426,0.049796,-0.434591,-0.131744,0.029664,-0.022196
"2019-03-26 11:20:12.980 +0000",1553599212.979589,-2.547596,-0.260549,0.623752,-0.540787,0.257611,0.800740,0.000000,0.000000,0.000000,-1,0.331624,0.110140,-0.411579,-0.105880,0.025699,-0.081487
"2019-03-26 11:20:13.002 +0000",1553599213.001899,-2.542830,-0.260089,0.633964,-0.544665,0.257166,0.798252,0.000000,0.000000,0.000000,-1,0.182564,0.101667,-0.359465,-0.089628,0.015356,-0.057575
"2019-03-26 11:20:13.024 +0000",1553599213.024175,-2.538997,-0.258531,0.641981,-0.547946,0.255660,0.796488,0.000000,0.000000,0.000000,-1,0.107511,0.040364,-0.298166,-0.075131,0.043305,-0.001322
"2019-03-26 11:20:13.046 +0000",1553599213.046484,-2.537456,-0.256118,0.648706,-0.549523,0.253327,0.796147,0.000000,0.000000,0.000000,-1,0.059739,-0.045812,-0.309827,-0.040596,0.051773,-0.011434
"2019-03-26 11:20:13.069 +0000",1553599213.068790,-2.537360,-0.253113,0.655131,-0.550029,0.250419,0.796717,0.000000,0.000000,0.000000,-1,0.057214,-0.070415,-0.309610,-0.023519,0.047142,-0.031199
"2019-03-26 11:20:13.091 +0000",1553599213.091100,-2.535401,-0.251247,0.662460,-0.551853,0.248612,0.796021,0.000000,0.000000,0.000000,-1,0.142666,0.061311,-0.293375,-0.056057,0.024719,-0.052033
"2019-03-26 11:20:13.113 +0000",1553599213.113377,-2.532265,-0.251189,0.668502,-0.554356,0.248556,0.794299,0.000000,0.000000,0.000000,-1,0.134366,0.053157,-0.174214,-0.027645,0.041926,-0.102389
"2019-03-26 11:20:13.136 +0000",1553599213.135673,-2.532995,-0.251785,0.672224,-0.553691,0.249133,0.794581,0.000000,0.000000,0.000000,-1,0.108245,-0.176536,-0.081627,-0.011861,0.031980,-0.053432
"2019-03-26 11:20:13.158 +0000",1553599213.157992,-2.537662,-0.253579,0.674756,-0.549722,0.250870,0.796787,0.000000,0.000000,0.000000,-1,0.146075,-0.234110,-0.022795,0.017068,0.034454,-0.057270
"2019-03-26 11:20:13.181 +0000",1553599213.180761,-2.541249,-0.256356,0.676632,-0.546465,0.253557,0.798176,0.000000,0.000000,0.000000,-1,0.126211,-0.167539,0.016303,0.038194,0.007796,-0.085576
"2019-03-26 11:20:13.203 +0000",1553599213.203068,-2.547417,-0.257064,0.675859,-0.541430,0.254242,0.801383,0.000000,0.000000,0.000000,-1,-0.069443,-0.340938,0.051253,-0.034757,0.023208,-0.098471
"2019-03-26 11:20:13.225 +0000",1553599213.225345,-2.558428,-0.255183,0.674369,-0.532836,0.252422,0.807694,0.000000,0.000000,0.000000,-1,-0.056010,-0.497406,-0.011860,-0.061326,0.045689,-0.041321
"2019-03-26 11:20:13.248 +0000",1553599213.247654,-2.568270,-0.255637,0.676295,-0.524799,0.252861,0.812802,0.000000,0.000000,0.000000,-1,0.077928,-0.480401,-0.082665,-0.051862,0.069343,-0.048566
"2019-03-26 11:20:13.270 +0000",1553599213.269961,-2.578494,-0.254765,0.678905,-0.516579,0.252018,0.818311,0.000000,0.000000,0.000000,-1,0.017478,-0.470820,-0.143562,-0.120857,0.032391,-0.078245
"2019-03-26 11:20:13.292 +0000",1553599213.292270,-2.586157,-0.253525,0.682205,-0.510458,0.250818,0.822510,0.000000,0.000000,0.000000,-1,0.031391,-0.308429,-0.142517,-0.093729,0.051703,-0.027680
"2019-03-26 11:20:13.315 +0000",1553599213.314548,-2.591134,-0.251932,0.684233,-0.506566,0.249275,0.825380,0.000000,0.000000,0.000000,-1,-0.054910,-0.220946,-0.096190,-0.102458,0.073417,-0.017946
"2019-03-26 11:20:13.337 +0000",1553599213.336854,-2.595739,-0.249790,0.685002,-0.503036,0.247200,0.828159,0.000000,0.000000,0.000000,-1,-0.052317,-0.215948,-0.076384,-0.092240,0.031425,-0.017765
"2019-03-26 11:20:13.359 +0000",1553599213.359147,-2.600242,-0.248925,0.686606,-0.499411,0.246362,0.830598,0.000000,0.000000,0.000000,-1,0.031696,-0.220856,-0.082507,-0.052285,-0.000253,-0.031267
"2019-03-26 11:20:13.381 +0000",1553599213.381472,-2.603666,-0.249894,0.689043,-0.496442,0.247301,0.832098,0.000000,0.000000,0.000000,-1,0.118404,-0.156743,-0.054507,-0.058658,-0.004183,-0.039755
"2019-03-26 11:20:13.404 +0000",1553599213.403748,-2.606256,-0.252835,0.690877,-0.493912,0.250150,0.832752,0.000000,0.000000,0.000000,-1,0.167726,-0.128065,0.039541,-0.063064,0.012179,-0.061436
"2019-03-26 11:20:13.426 +0000",1553599213.426057,-2.609058,-0.256948,0.690614,-0.491051,0.254130,0.833239,0.000000,0.000000,0.000000,-1,0.126743,-0.127695,0.140004,-0.059731,0.008825,-0.081942
"2019-03-26 11:20:13.448 +0000",1553599213.448364,-2.614265,-0.260693,0.687491,-0.486223,0.257750,0.834957,0.000000,0.000000,0.000000,-1,0.045524,-0.251597,0.237831,-0.060622,-0.029082,-0.088039
"2019-03-26 11:20:13.471 +0000",1553599213.470673,-2.622602,-0.264318,0.682209,-0.478778,0.261251,0.838164,0.000000,0.000000,0.000000,-1,0.031955,-0.327606,0.306730,-0.060025,-0.043142,-0.064422
"2019-03-26 11:20:13.493 +0000",1553599213.492980,-2.630655,-0.269811,0.675906,-0.471305,0.266549,0.840728,0.000000,0.000000,0.000000,-1,0.112630,-0.246058,0.390397,-0.068170,-0.056802,-0.035156
"2019-03-26 11:20:13.515 +0000",1553599213.515259,-2.636110,-0.277512,0.668393,-0.465703,0.273964,0.841465,0.000000,0.000000,0.000000,-1,0.154509,-0.098058,0.484623,-0.136088,-0.057945,-0.036824
"2019-03-26 11:20:13.538 +0000",1553599213.537565,-2.595621,-0.271645,0.671691,-0.500209,0.268316,0.823285,0.000000,0.000000,0.000000,-1,0.140923,-0.060262,0.542394,-0.131170,-0.048147,-0.054547
"2019-03-26 11:20:13.560 +0000",1553599213.559873,-2.600932,-0.280436,0.661860,-0.494595,0.276775,0.823876,0.000000,0.000000,0.000000,-1,0.104595,-0.142599,0.567920,-0.136966,-0.045146,-0.080025
"2019-03-26 11:20:13.582 +0000",1553599213.582163,-2.607263,-0.288465,0.651815,-0.488222,0.284481,0.825051,0.000000,0.000000,0.000000,-1,0.079415,-0.152532,0.546908,-0.093153,0.015934,-0.056725
"2019-03-26 11:20:13.604 +0000",1553599213.604458,-2.612441,-0.295425,0.642538,-0.482933,0.291147,0.825839,0.000000,0.000000,0.000000,-1,0.061567,-0.081509,0.464394,-0.095849,0.033392,-0.034915
"2019-03-26 11:20:13.627 +0000",1553599213.626766,-2.614804,-0.301017,0.635215,-0.480153,0.296492,0.825558,0.000000,0.000000,0.000000,-1,0.053647,0.020151,0.350599,-0.078807,0.053759,0.003834
"2019-03-26 11:20:13.649 +0000",1553599213.649075,-2.615676,-0.304448,0.629818,-0.478920,0.299766,0.825091,0.000000,0.000000,0.000000,-1,-0.019576,0.028280,0.233885,-0.069969,0.085762,0.004544
"2019-03-26 11:20:13.671 +0000",1553599213.671383,-2.617322,-0.304102,0.625015,-0.477613,0.299436,0.825968,0.000000,0.000000,0.000000,-1,-0.179325,-0.037367,0.135156,-0.054965,0.101366,-0.019419
"2019-03-26 11:20:13.694 +0000",1553599213.693690,-2.620336,-0.300078,0.620989,-0.475717,0.295595,0.828442,0.000000,0.000000,0.000000,-1,-0.270232,-0.095748,-0.000824,-0.040991,0.093383,-0.021161
"2019-03-26 11:20:13.716 +0000",1553599213.715967,-2.622384,-0.293132,0.619018,-0.475027,0.288952,0.831177,0.000000,0.000000,0.000000,-1,-0.330896,-0.033507,-0.122976,-0.031443,0.083851,-0.008988
"2019-03-26 11:20:13.738 +0000",1553599213.738275,-2.622753,-0.284447,0.617853,-0.475947,0.280627,0.833500,0.000000,0.000000,0.000000,-1,-0.381159,0.008185,-0.151900,-0.025929,0.094373,0.003200
"2019-03-26 11:20:13.761 +0000",1553599213.760583,-2.622569,-0.275072,0.615810,-0.477384,0.271616,0.835661,0.000000,0.000000,0.000000,-1,-0.424876,0.052600,-0.113856,-0.013049,0.070791,0.001650
"2019-03-26 11:20:13.783 +0000",1553599213.782892,-2.621945,-0.265689,0.612406,-0.479150,0.262574,0.837538,0.000000,0.000000,0.000000,-1,-0.439710,0.068781,-0.063144,-0.019888,0.047897,-0.014891
"2019-03-26 11:20:13.805 +0000",1553599213.805179,-2.622446,-0.257503,0.607991,-0.479781,0.254667,0.839616,0.000000,0.000000,0.000000,-1,-0.396809,-0.024392,0.014615,-0.024064,0.053729,-0.068696
"2019-03-26 11:20:13.827 +0000",1553599213.827477,-2.626646,-0.250702,0.602628,-0.477093,0.248084,0.843111,0.000000,0.000000,0.000000,-1,-0.371637,-0.165676,0.059299,-0.032124,0.066216,-0.086123
"2019-03-26 11:20:13.850 +0000",1553599213.849784,-2.631537,-0.244306,0.597695,-0.473728,0.241883,0.846802,0.000000,0.000000,0.000000,-1,-0.349142,-0.153452,0.036870,-0.044033,0.066787,-0.102814
"2019-03-26 11:20:13.872 +0000",1553599213.872093,-2.635301,-0.237770,0.593019,-0.471294,0.235536,0.849944,0.000000,0.000000,0.000000,-1,-0.359109,-0.095612,0.043796,-0.074162,0.081679,-0.078841
"2019-03-26 11:20:13.894 +0000",1553599213.894371,-2.612731,-0.253669,0.594370,-0.488404,0.250957,0.835752,0.000000,0.000000,0.000000,-1,-0.311208,-0.133287,0.059221,-0.070464,0.088474,-0.021101
"2019-03-26 11:20:13.917 +0000",1553599213.916678,-2.617076,-0.248983,0.590684,-0.485352,0.246419,0.838875,0.000000,0.000000,0.000000,-1,-0.232407,-0.148216,0.007284,-0.024551,0.091091,-0.001335
"2019-03-26 11:20:13.939 +0000",1553599213.938986,-2.620283,-0.244576,0.588569,-0.483195,0.242145,0.841361,0.000000,0.000000,0.000000,-1,-0.216246,-0.107778,-0.035246,0.000300,0.091000,-0.037284
"2019-03-26 11:20:13.961 +0000",1553599213.961295,-2.614565,-0.259455,0.589008,-0.486132,0.256553,0.835378,0.000000,0.000000,0.000000,-1,-0.251341,-0.078318,-0.076254,-0.020017,0.081246,-0.024449
"2019-03-26 11:20:13.984 +0000",1553599213.983602,-2.615822,-0.253651,0.588299,-0.485821,0.250940,0.837262,0.000000,0.000000,0.000000,-1,-0.227641,-0.032947,-0.116344,-0.008305,0.067054,-0.001416
"2019-03-26 11:20:14.006 +0000",1553599214.005879,-2.616780,-0.248468,0.588201,-0.485664,0.245919,0.838841,0.000000,0.000000,0.000000,-1,-0.183709,-0.057487,-0.104942,-0.019219,0.043860,0.000774
"2019-03-26 11:20:14.028 +0000",1553599214.028174,-2.611766,-0.247206,0.589856,-0.490020,0.244696,0.836662,0.000000,0.000000,0.000000,-1,-0.142196,-0.097851,-0.077262,-0.010224,0.006067,-0.042274
"2019-03-26 11:20:14.050 +0000",1553599214.050496,-2.614058,-0.243980,0.590026,-0.488496,0.241566,0.838461,0.000000,0.000000,0.000000,-1,-0.099570,-0.107688,-0.080878,-0.008910,-0.005208,-0.047690
"2019-03-26 11:20:14.073 +0000",1553599214.072803,-2.616041,-0.241996,0.591055,-0.487072,0.239640,0.839841,0.000000,0.000000,0.000000,-1,-0.029327,-0.092907,-0.083460,-0.029804,-0.018586,-0.047635
"2019-03-26 11:20:14.095 +0000",1553599214.095081,-2.617569,-0.241246,0.592897,-0.485878,0.238913,0.840740,0.000000,0.000000,0.000000,-1,0.034627,-0.089208,-0.088428,-0.047982,-0.023642,-0.048534
"2019-03-26 11:20:14.117 +0000",1553599214.117389,-2.619052,-0.241292,0.595859,-0.484625,0.238957,0.841450,0.000000,0.000000,0.000000,-1,0.082134,-0.106548,-0.124229,-0.065683,-0.031819,-0.046650
"2019-03-26 11:20:14.140 +0000",1553599214.139696,-2.620897,-0.242214,0.599741,-0.482962,0.239853,0.842151,0.000000,0.000000,0.000000,-1,0.143583,-0.121288,-0.125313,-0.074320,-0.044205,-0.045383
"2019-03-26 11:20:14.162 +0000",1553599214.162004,-2.621952,-0.244324,0.603736,-0.481821,0.241900,0.842219,0.000000,0.000000,0.000000,-1,0.173893,-0.062072,-0.084888,-0.068396,-0.046908,-0.032557
"2019-03-26 11:20:14.184 +0000",1553599214.184282,-2.621402,-0.246921,0.606290,-0.481970,0.244419,0.841406,0.000000,0.000000,0.000000,-1,0.137919,0.028037,-0.001346,-0.035257,-0.031681,-0.016882
"2019-03-26 11:20:14.207 +0000",1553599214.206590,-2.620134,-0.249432,0.606264,-0.482729,0.246854,0.840259,0.000000,0.000000,0.000000,-1,0.068095,0.073891,0.093739,-0.006498,-0.042950,0.004055
"2019-03-26 11:20:14.229 +0000",1553599214.228897,-2.618727,-0.251346,0.603984,-0.483674,0.248708,0.839168,0.000000,0.000000,0.000000,-1,0.003095,0.096207,0.145615,0.008485,-0.025273,0.025166
"2019-03-26 11:20:14.251 +0000",1553599214.251188,-2.617385,-0.252968,0.600535,-0.484597,0.250279,0.838168,0.000000,0.000000,0.000000,-1,-0.015571,0.100028,0.181549,0.021630,0.004283,0.026792
"2019-03-26 11:20:14.274 +0000",1553599214.273513,-2.616421,-0.254882,0.596636,-0.485164,0.252131,0.837285,0.000000,0.000000,0.000000,-1,-0.009274,0.076697,0.191683,0.020565,-0.003382,0.016292
"2019-03-26 11:20:14.296 +0000",1553599214.295789,-2.616096,-0.256657,0.592926,-0.485211,0.253849,0.836738,0.000000,0.000000,0.000000,-1,-0.014405,0.049541,0.168352,0.011716,-0.010898,-0.002403
"2019-03-26 11:20:14.318 +0000",1553599214.318098,-2.615699,-0.258036,0.590017,-0.485367,0.255182,0.836242,0.000000,0.000000,0.000000,-1,-0.005808,0.055518,0.122402,-0.014999,0.002341,-0.009842
"2019-03-26 11:20:14.340 +0000",1553599214.340407,-2.614687,-0.258920,0.588013,-0.486099,0.256036,0.835555,0.000000,0.000000,0.000000,-1,-0.012239,0.075035,0.080048,-0.051499,0.019034,-0.017074
"2019-03-26 11:20:14.363 +0000",1553599214.362713,-2.613351,-0.259189,0.586568,-0.487180,0.256297,0.834846,0.000000,0.000000,0.000000,-1,-0.027398,0.073698,0.054002,-0.057421,0.023428,-0.016548
"2019-03-26 11:20:14.385 +0000",1553599214.384992,-2.612504,-0.258951,0.584961,-0.487918,0.256067,0.834485,0.000000,0.000000,0.000000,-1,-0.052507,0.046620,0.052991,-0.049618,0.022040,-0.015088
"2019-03-26 11:20:14.407 +0000",1553599214.407300,-2.612263,-0.258514,0.583177,-0.488176,0.255644,0.834464,0.000000,0.000000,0.000000,-1,-0.055030,0.024477,0.053186,-0.032012,0.013002,-0.013526
"2019-03-26 11:20:14.430 +0000",1553599214.429607,-2.612243,-0.257994,0.581795,-0.488260,0.255141,0.834569,0.000000,0.000000,0.000000,-1,-0.046373,0.014530,0.024746,-0.029395,0.010942,-0.010381
"2019-03-26 11:20:14.452 +0000",1553599214.451916,-2.612229,-0.257180,0.581311,-0.488376,0.254354,0.834741,0.000000,0.000000,0.000000,-1,-0.039011,0.002083,-0.013597,-0.039792,0.015925,-0.010446
"2019-03-26 11:20:14.474 +0000",1553599214.474193,-2.596727,-0.260328,0.585466,-0.500839,0.257397,0.826382,0.000000,0.000000,0.000000,-1,-0.045349,-0.021149,-0.044407,-0.035782,0.014713,-0.008389
"2019-03-26 11:20:14.497 +0000",1553599214.496501,-2.592278,-0.260521,0.587183,-0.504485,0.257584,0.824103,0.000000,0.000000,0.000000,-1,-0.045357,-0.044455,-0.049159,-0.032975,0.015045,-0.008292
"2019-03-26 11:20:14.519 +0000",1553599214.518808,-2.589344,-0.259824,0.588639,-0.506994,0.256910,0.822772,0.000000,0.000000,0.000000,-1,-0.050379,-0.070223,-0.050177,-0.031320,0.006945,-0.009189
"2019-03-26 11:20:14.541 +0000",1553599214.541117,-2.591456,-0.258263,0.588839,-0.505465,0.255401,0.824181,0.000000,0.000000,0.000000,-1,-0.055374,-0.105856,-0.038698,-0.030622,-0.000183,-0.013619
"2019-03-26 11:20:14.563 +0000",1553599214.563423,-2.586439,-0.255810,0.590821,-0.509922,0.253029,0.822165,0.000000,0.000000,0.000000,-1,-0.051601,-0.109413,-0.037461,-0.028469,-0.003761,-0.014823
"2019-03-26 11:20:14.586 +0000",1553599214.585702,-2.585708,-0.254263,0.591773,-0.510729,0.251532,0.822124,0.000000,0.000000,0.000000,-1,-0.040309,-0.087232,-0.041387,-0.025694,0.002985,-0.011226
"2019-03-26 11:20:14.608 +0000",1553599214.608010,-2.587378,-0.253309,0.592244,-0.509482,0.250609,0.823179,0.000000,0.000000,0.000000,-1,-0.018962,-0.074908,-0.037765,-0.018854,-0.000518,-0.004804
"2019-03-26 11:20:14.630 +0000",1553599214.630318,-2.587599,-0.251460,0.593023,-0.509543,0.248819,0.823684,0.000000,0.000000,0.000000,-1,-0.006388,-0.066236,-0.029174,-0.007227,-0.006585,0.000123
"2019-03-26 11:20:14.653 +0000",1553599214.652626,-2.589056,-0.249636,0.593215,-0.508579,0.247051,0.824811,0.000000,0.000000,0.000000,-1,-0.003811,-0.067385,-0.008093,-0.000225,-0.011257,0.002002
"2019-03-26 11:20:14.675 +0000",1553599214.674903,-2.590519,-0.249631,0.593264,-0.507373,0.247047,0.825555,0.000000,0.000000,0.000000,-1,-0.000014,-0.062434,-0.000692,0.002383,-0.013511,-0.002175
"2019-03-26 11:20:14.697 +0000",1553599214.697226,-2.591503,-0.248748,0.593266,-0.506674,0.246191,0.826240,0.000000,0.000000,0.000000,-1,0.003783,-0.055006,0.009153,-0.004358,-0.005239,-0.000846
"2019-03-26 11:20:14.720 +0000",1553599214.719518,-2.592422,-0.248628,0.593187,-0.505930,0.246074,0.826730,0.000000,0.000000,0.000000,-1,-0.002474,-0.052528,0.012845,-0.007971,-0.003093,0.002234
"2019-03-26 11:20:14.742 +0000",1553599214.741827,-2.593326,-0.248603,0.593039,-0.505185,0.246050,0.827192,0.000000,0.000000,0.000000,-1,-0.004989,-0.061131,0.012918,-0.009005,0.001646,0.000856
"2019-03-26 11:20:14.764 +0000",1553599214.764106,-2.594794,-0.248641,0.592698,-0.503966,0.246087,0.827925,0.000000,0.000000,0.000000,-1,-0.004983,-0.059896,0.014147,-0.003069,0.004935,-0.001936
"2019-03-26 11:20:14.786 +0000",1553599214.786407,-2.596150,-0.249098,0.592252,-0.502784,0.246530,0.828511,0.000000,0.000000,0.000000,-1,-0.006197,-0.043883,0.020213,0.000862,0.003745,0.000316
"2019-03-26 11:20:14.809 +0000",1553599214.808720,-2.596850,-0.249558,0.591651,-0.502145,0.246976,0.828766,0.000000,0.000000,0.000000,-1,-0.003612,-0.008162,0.032305,-0.000083,0.001559,0.003128
"2019-03-26 11:20:14.831 +0000",1553599214.831028,-2.596967,-0.249972,0.590801,-0.501995,0.247377,0.828737,0.000000,0.000000,0.000000,-1,-0.006062,0.012792,0.043283,-0.001240,0.000151,0.008680
"2019-03-26 11:20:14.853 +0000",1553599214.853335,-2.596981,-0.249955,0.589860,-0.501986,0.247360,0.828748,0.000000,0.000000,0.000000,-1,-0.013652,0.045914,0.023135,-0.001966,0.000686,0.014575
"2019-03-26 11:20:14.876 +0000",1553599214.875614,-2.596819,-0.250541,0.589282,-0.502045,0.247928,0.828542,0.000000,0.000000,0.000000,-1,-0.011224,0.059337,-0.000541,0.000519,0.014722,0.018458
"2019-03-26 11:20:14.898 +0000",1553599214.897921,-2.595664,-0.250270,0.589326,-0.503037,0.247666,0.828019,0.000000,0.000000,0.000000,-1,-0.008763,0.048228,-0.010365,0.003571,0.015762,0.016921
"2019-03-26 11:20:14.920 +0000",1553599214.920205,-2.595535,-0.250578,0.589234,-0.503104,0.247964,0.827889,0.000000,0.000000,0.000000,-1,-0.023825,0.034667,-0.012720,0.004721,0.006217,0.001167
"2019-03-26 11:20:14.943 +0000",1553599214.942538,-2.594986,-0.250090,0.589122,-0.503620,0.247491,0.827716,0.000000,0.000000,0.000000,-1,-0.032612,0.028506,-0.013907,0.003086,0.003317,-0.001590
"2019-03-26 11:20:14.965 +0000",1553599214.964816,-2.594348,-0.249574,0.588949,-0.504215,0.246991,0.827504,0.000000,0.000000,0.000000,-1,-0.032581,0.023617,-0.006418,-0.004681,0.005130,-0.004994
"2019-03-26 11:20:14.987 +0000",1553599214.987122,-2.594015,-0.249072,0.588664,-0.504555,0.246505,0.827442,0.000000,0.000000,0.000000,-1,-0.016257,0.011347,-0.000099,-0.012199,0.003663,-0.007358
"2019-03-26 11:20:15.009 +0000",1553599215.009430,-2.592958,-0.248314,0.588699,-0.505526,0.245770,0.827067,0.000000,0.000000,0.000000,-1,-0.004905,-0.043870,0.026431,-0.013425,-0.009793,-0.011134
"2019-03-26 11:20:15.032 +0000",1553599215.031739,-2.592822,-0.248180,0.588350,-0.505656,0.245640,0.827026,0.000000,0.000000,0.000000,-1,0.003928,0.000464,0.033474,-0.019444,-0.012074,-0.004730
"2019-03-26 11:20:15.054 +0000",1553599215.054017,-2.592823,-0.248498,0.587917,-0.505615,0.245948,0.826960,0.000000,0.000000,0.000000,-1,0.003865,-0.003284,0.018620,-0.028916,-0.014945,0.001989
"2019-03-26 11:20:15.076 +0000",1553599215.076324,-2.592002,-0.247869,0.588198,-0.506374,0.245338,0.826676,0.000000,0.000000,0.000000,-1,0.008844,-0.054906,0.020303,-0.009815,-0.005623,-0.011750
"2019-03-26 11:20:15.099 +0000",1553599215.098627,-2.592638,-0.249077,0.587494,-0.505693,0.246510,0.826745,0.000000,0.000000,0.000000,-1,0.002800,-0.044851,0.072316,0.005525,-0.000721,-0.022546
"2019-03-26 11:20:15.121 +0000",1553599215.120934,-2.593799,-0.250124,0.585755,-0.504598,0.247524,0.827111,0.000000,0.000000,0.000000,-1,0.010454,-0.018910,0.099381,0.004110,-0.015576,-0.007256
"2019-03-26 11:20:15.143 +0000",1553599215.143232,-2.592438,-0.249711,0.584829,-0.505777,0.247124,0.826510,0.000000,0.000000,0.000000,-1,0.044212,0.003192,0.075596,-0.027975,-0.018379,0.004300
"2019-03-26 11:20:15.166 +0000",1553599215.165526,-2.591293,-0.250895,0.584833,-0.506569,0.248271,0.825681,0.000000,0.000000,0.000000,-1,0.084204,0.009246,0.040810,-0.023551,-0.015818,-0.003446
"2019-03-26 11:20:15.188 +0000",1553599215.187833,-2.589824,-0.252750,0.586012,-0.507540,0.250068,0.824542,0.000000,0.000000,0.000000,-1,0.120432,0.021438,0.003493,-0.007307,-0.005607,-0.011798
"2019-03-26 11:20:15.210 +0000",1553599215.210141,-2.588478,-0.254892,0.587613,-0.508366,0.252140,0.823401,0.000000,0.000000,0.000000,-1,0.110361,0.058279,-0.011725,0.014226,0.002117,-0.003210
"2019-03-26 11:20:15.232 +0000",1553599215.232450,-2.588639,-0.257138,0.588379,-0.507936,0.254314,0.822998,0.000000,0.000000,0.000000,-1,0.076518,0.077907,-0.010656,0.010362,0.015293,0.033615
"2019-03-26 11:20:15.255 +0000",1553599215.254727,-2.587113,-0.258134,0.589107,-0.509057,0.255277,0.822006,0.000000,0.000000,0.000000,-1,0.042671,0.047178,-0.000473,0.008538,0.027911,0.038116
"2019-03-26 11:20:15.277 +0000",1553599215.277035,-2.586385,-0.258488,0.589259,-0.509607,0.255619,0.821559,0.000000,0.000000,0.000000,-1,-0.001231,0.025032,0.003426,0.007669,0.016903,0.024816
"2019-03-26 11:20:15.299 +0000",1553599215.299342,-2.586297,-0.257864,0.588736,-0.509764,0.255016,0.821649,0.000000,0.000000,0.000000,-1,-0.048894,0.004114,0.007313,-0.004030,0.028752,0.004462
"2019-03-26 11:20:15.322 +0000",1553599215.321651,-2.586554,-0.258028,0.587961,-0.509530,0.255175,0.821745,0.000000,0.000000,0.000000,-1,-0.065200,-0.027866,0.007604,-0.010153,0.021330,-0.010801
"2019-03-26 11:20:15.344 +0000",1553599215.343929,-2.586994,-0.256925,0.586868,-0.509317,0.254107,0.822208,0.000000,0.000000,0.000000,-1,-0.065133,-0.003215,0.019790,-0.006720,0.017438,-0.009342
"2019-03-26 11:20:15.366 +0000",1553599215.366245,-2.588543,-0.257242,0.585030,-0.508000,0.254414,0.822927,0.000000,0.000000,0.000000,-1,-0.080070,-0.004383,0.043386,0.007466,0.015346,0.015650
"2019-03-26 11:20:15.389 +0000",1553599215.388542,-2.590596,-0.256502,0.582667,-0.506408,0.253698,0.824128,0.000000,0.000000,0.000000,-1,-0.106387,-0.040050,0.053627,0.013336,0.013483,0.013869
"2019-03-26 11:20:15.411 +0000",1553599215.410853,-2.592572,-0.255469,0.580082,-0.504915,0.252700,0.825351,0.000000,0.000000,0.000000,-1,-0.098829,0.009129,0.051964,0.021944,0.005876,0.012815
"2019-03-26 11:20:15.433 +0000",1553599215.433159,-2.592440,-0.254477,0.577729,-0.505155,0.251739,0.825497,0.000000,0.000000,0.000000,-1,-0.088706,0.036263,0.069095,0.013074,0.012619,0.014408
"2019-03-26 11:20:15.455 +0000",1553599215.455438,-2.592208,-0.254379,0.575570,-0.505360,0.251644,0.825401,0.000000,0.000000,0.000000,-1,-0.076197,0.027622,0.059260,-0.003689,0.004963,0.001000
"2019-03-26 11:20:15.478 +0000",1553599215.477745,-2.591571,-0.253736,0.573721,-0.505970,0.251022,0.825217,0.000000,0.000000,0.000000,-1,-0.072459,0.006714,0.055723,-0.025036,0.007294,-0.014990
"2019-03-26 11:20:15.500 +0000",1553599215.500054,-2.592100,-0.253051,0.571887,-0.505622,0.250359,0.825631,0.000000,0.000000,0.000000,-1,-0.064973,-0.008073,0.048414,-0.027779,0.008262,-0.016625
"2019-03-26 11:20:15.522 +0000",1553599215.522355,-2.590706,-0.253053,0.570856,-0.506772,0.250361,0.824925,0.000000,0.000000,0.000000,-1,-0.059997,-0.030209,0.037445,-0.016482,0.005117,-0.008839
"2019-03-26 11:20:15.545 +0000",1553599215.544637,-2.590818,-0.252502,0.569840,-0.506752,0.249827,0.825099,0.000000,0.000000,0.000000,-1,-0.052523,-0.010576,0.019906,-0.013695,0.005361,-0.005534
"2019-03-26 11:20:15.567 +0000",1553599215.566947,-2.591334,-0.251643,0.569108,-0.506439,0.248996,0.825543,0.000000,0.000000,0.000000,-1,-0.045079,-0.020485,0.001389,-0.014542,0.010877,0.002613
"2019-03-26 11:20:15.589 +0000",1553599215.589245,-2.591777,-0.251361,0.568936,-0.506109,0.248722,0.825827,0.000000,0.000000,0.000000,-1,-0.023803,-0.021753,-0.012233,-0.002695,0.004833,0.002771
"2019-03-26 11:20:15.612 +0000",1553599215.611562,-2.591858,-0.251557,0.569385,-0.506017,0.248912,0.825826,0.000000,0.000000,0.000000,-1,0.030097,0.000359,-0.026048,-0.003092,0.007100,0.006098
"2019-03-26 11:20:15.634 +0000",1553599215.633840,-2.591377,-0.253039,0.571389,-0.506221,0.250348,0.825268,0.000000,0.000000,0.000000,-1,0.129064,-0.000953,-0.058245,-0.005437,0.005802,0.009480
"2019-03-26 11:20:15.656 +0000",1553599215.656147,-2.590868,-0.254903,0.574570,-0.506396,0.252151,0.824611,0.000000,0.000000,0.000000,-1,0.136486,-0.005966,-0.083008,-0.007322,-0.004272,0.011556
"2019-03-26 11:20:15.678 +0000",1553599215.678454,-2.589096,-0.254595,0.577939,-0.507897,0.251853,0.823778,0.000000,0.000000,0.000000,-1,0.091215,0.032045,-0.113153,-0.017890,-0.004463,0.018827
"2019-03-26 11:20:15.701 +0000",1553599215.700763,-2.586854,-0.254863,0.581580,-0.509707,0.252113,0.822580,0.000000,0.000000,0.000000,-1,0.091162,0.049213,-0.129435,-0.022321,0.008202,0.017798
"2019-03-26 11:20:15.723 +0000",1553599215.723071,-2.584742,-0.254910,0.585224,-0.511437,0.252158,0.821492,0.000000,0.000000,0.000000,-1,0.079864,0.051659,-0.131942,-0.006782,0.002190,0.000835
"2019-03-26 11:20:15.745 +0000",1553599215.745349,-2.584269,-0.254154,0.588121,-0.511926,0.251427,0.821411,0.000000,0.000000,0.000000,-1,0.068638,0.059073,-0.113406,0.025766,-0.010979,-0.002868
"2019-03-26 11:20:15.768 +0000",1553599215.767656,-2.583458,-0.254055,0.590287,-0.512605,0.251331,0.821017,0.000000,0.000000,0.000000,-1,0.043679,0.068997,-0.082487,0.028566,-0.003650,0.003980
"2019-03-26 11:20:15.790 +0000",1553599215.789964,-2.581461,-0.253917,0.591859,-0.514263,0.251197,0.820021,0.000000,0.000000,0.000000,-1,0.025018,0.072823,-0.045312,0.029506,-0.019248,0.009645
"2019-03-26 11:20:15.812 +0000",1553599215.812252,-2.581195,-0.252509,0.592011,-0.514668,0.249834,0.820183,0.000000,0.000000,0.000000,-1,-0.006242,0.054462,-0.011677,0.013798,-0.016756,-0.000420
"2019-03-26 11:20:15.835 +0000",1553599215.834549,-2.580597,-0.251538,0.591671,-0.515287,0.248894,0.820080,0.000000,0.000000,0.000000,-1,-0.026236,0.027489,0.014598,0.007948,-0.016564,-0.006405
"2019-03-26 11:20:15.857 +0000",1553599215.856856,-2.580381,-0.250691,0.590883,-0.515576,0.248073,0.820147,0.000000,0.000000,0.000000,-1,-0.031227,-0.001979,0.028495,-0.005710,-0.014904,-0.015841
"2019-03-26 11:20:15.879 +0000",1553599215.879165,-2.581238,-0.250637,0.590067,-0.514880,0.248021,0.820600,0.000000,0.000000,0.000000,-1,-0.016197,-0.035185,0.028797,-0.011243,-0.014028,-0.016141
"2019-03-26 11:20:15.901 +0000",1553599215.901474,-2.580644,-0.249496,0.589643,-0.515518,0.246915,0.820533,0.000000,0.000000,0.000000,-1,-0.013684,-0.028984,0.033684,-0.012589,-0.012983,-0.008613
"2019-03-26 11:20:15.924 +0000",1553599215.923751,-2.580890,-0.249503,0.589080,-0.515315,0.246922,0.820658,0.000000,0.000000,0.000000,-1,0.002602,-0.037580,0.031279,-0.019093,-0.005192,-0.000086
"2019-03-26 11:20:15.946 +0000",1553599215.946058,-2.582034,-0.250070,0.588814,-0.514301,0.247472,0.821128,0.000000,0.000000,0.000000,-1,0.025100,-0.052399,0.014052,-0.021252,0.001628,-0.001548
"2019-03-26 11:20:15.968 +0000",1553599215.968360,-2.581333,-0.251408,0.589385,-0.514700,0.248768,0.820487,0.000000,0.000000,0.000000,-1,0.027598,-0.048698,0.006578,-0.020105,0.010800,-0.000418
"2019-03-26 11:20:15.991 +0000",1553599215.990675,-2.581490,-0.252308,0.589857,-0.514453,0.249640,0.820377,0.000000,0.000000,0.000000,-1,0.030110,-0.031478,0.002706,-0.017255,0.009210,0.004376
"2019-03-26 11:20:16.013 +0000",1553599216.012983,-2.581598,-0.252978,0.589954,-0.514275,0.250288,0.820291,0.000000,0.000000,0.000000,-1,0.023909,0.007926,0.013519,-0.011909,0.009798,0.007315
"2019-03-26 11:20:16.035 +0000",1553599216.035259,-2.580683,-0.253893,0.590083,-0.514903,0.251174,0.819626,0.000000,0.000000,0.000000,-1,0.035233,0.041157,0.015711,-0.008168,0.006318,0.016876
"2019-03-26 11:20:16.058 +0000",1553599216.057567,-2.579963,-0.254883,0.590279,-0.515361,0.252132,0.819044,0.000000,0.000000,0.000000,-1,0.035199,0.038658,0.007053,-0.003179,0.009160,0.017092
"2019-03-26 11:20:16.080 +0000",1553599216.079875,-2.579829,-0.255740,0.590345,-0.515355,0.252962,0.818791,0.000000,0.000000,0.000000,-1,0.015106,0.007879,0.004843,0.003133,0.015166,0.016063
"2019-03-26 11:20:16.102 +0000",1553599216.102184,-2.579871,-0.256038,0.590051,-0.515281,0.253250,0.818749,0.000000,0.000000,0.000000,-1,-0.008655,-0.005586,0.024801,0.009101,0.012894,0.005469
"2019-03-26 11:20:16.124 +0000",1553599216.124461,-2.581531,-0.256717,0.588686,-0.513829,0.253907,0.819458,0.000000,0.000000,0.000000,-1,-0.037437,-0.010487,0.039733,0.015980,0.004058,-0.000229
"2019-03-26 11:20:16.147 +0000",1553599216.146768,-2.582524,-0.256222,0.587144,-0.513081,0.253428,0.820074,0.000000,0.000000,0.000000,-1,-0.080130,-0.009332,0.027305,0.006520,0.011404,0.005472
"2019-03-26 11:20:16.169 +0000",1553599216.169075,-2.583235,-0.254547,0.585622,-0.512723,0.251807,0.820797,0.000000,0.000000,0.000000,-1,-0.105293,-0.018021,0.010003,0.001202,0.021798,0.008258
"2019-03-26 11:20:16.191 +0000",1553599216.191366,-2.584906,-0.254796,0.583888,-0.511317,0.252048,0.821600,0.000000,0.000000,0.000000,-1,-0.107783,-0.026663,0.006387,0.010920,0.018597,-0.001013
"2019-03-26 11:20:16.214 +0000",1553599216.213663,-2.585814,-0.253832,0.582501,-0.510699,0.251115,0.822270,0.000000,0.000000,0.000000,-1,-0.088940,0.006543,0.004871,0.012408,0.015121,0.000499
"2019-03-26 11:20:16.236 +0000",1553599216.235971,-2.585792,-0.252406,0.581346,-0.510906,0.249734,0.822562,0.000000,0.000000,0.000000,-1,-0.080140,0.020088,0.007235,0.010921,0.004996,0.004205
"2019-03-26 11:20:16.258 +0000",1553599216.258271,-2.585936,-0.250505,0.580224,-0.511037,0.247894,0.823037,0.000000,0.000000,0.000000,-1,-0.063803,0.011527,0.019716,-0.004832,-0.004348,0.006431
"2019-03-26 11:20:16.281 +0000",1553599216.280586,-2.585755,-0.249548,0.579343,-0.511310,0.246966,0.823146,0.000000,0.000000,0.000000,-1,-0.034945,0.001723,0.024773,-0.008038,-0.005664,0.001485
"2019-03-26 11:20:16.303 +0000",1553599216.302895,-2.585114,-0.249056,0.578630,-0.511903,0.246489,0.822921,0.000000,0.000000,0.000000,-1,0.001495,0.015345,0.040784,-0.014968,-0.023146,-0.005981
"2019-03-26 11:20:16.325 +0000",1553599216.325173,-2.584992,-0.249931,0.577901,-0.511889,0.247337,0.822675,0.000000,0.000000,0.000000,-1,0.025375,0.011713,0.053232,-0.027403,-0.032051,-0.008130
"2019-03-26 11:20:16.347 +0000",1553599216.347478,-2.584950,-0.251285,0.577376,-0.511746,0.248648,0.822369,0.000000,0.000000,0.000000,-1,0.047940,0.005563,0.050815,-0.032383,-0.028205,-0.013836
"2019-03-26 11:20:16.370 +0000",1553599216.369788,-2.585082,-0.253009,0.577313,-0.511410,0.250318,0.822071,0.000000,0.000000,0.000000,-1,0.074203,-0.012940,0.034863,-0.033237,-0.022520,-0.016346
"2019-03-26 11:20:16.392 +0000",1553599216.392095,-2.585515,-0.254899,0.577806,-0.510803,0.252148,0.821889,0.000000,0.000000,0.000000,-1,0.089198,-0.022823,0.022552,-0.029388,-0.020367,-0.016805
"2019-03-26 11:20:16.414 +0000",1553599216.414382,-2.583830,-0.256468,0.579323,-0.511978,0.253666,0.820690,0.000000,0.000000,0.000000,-1,0.104169,0.014020,-0.002591,-0.010727,-0.000645,0.001118
"2019-03-26 11:20:16.437 +0000",1553599216.436681,-2.582563,-0.257949,0.580902,-0.512817,0.255098,0.819722,0.000000,0.000000,0.000000,-1,0.087774,0.043438,-0.028912,-0.008926,0.000502,0.009746
"2019-03-26 11:20:16.459 +0000",1553599216.458988,-2.581080,-0.258936,0.582701,-0.513898,0.256052,0.818747,0.000000,0.000000,0.000000,-1,0.075147,0.048272,-0.050050,-0.006412,0.018789,0.015695
"2019-03-26 11:20:16.481 +0000",1553599216.481281,-2.579760,-0.259220,0.584484,-0.514939,0.256327,0.818006,0.000000,0.000000,0.000000,-1,0.036211,0.030996,-0.059838,0.009171,0.034414,0.014925
"2019-03-26 11:20:16.504 +0000",1553599216.503573,-2.579149,-0.258616,0.585727,-0.515522,0.255743,0.817822,0.000000,0.000000,0.000000,-1,-0.011474,0.000223,-0.059585,0.011402,0.036387,0.014469
"2019-03-26 11:20:16.526 +0000",1553599216.525883,-2.580202,-0.258904,0.586137,-0.514621,0.256021,0.818302,0.000000,0.000000,0.000000,-1,-0.056617,-0.010900,-0.061960,0.017016,0.038703,0.012996
"2019-03-26 11:20:16.548 +0000",1553599216.548189,-2.580428,-0.256846,0.586201,-0.514715,0.254031,0.818863,0.000000,0.000000,0.000000,-1,-0.090417,-0.008391,-0.045870,0.010641,0.031217,0.015488
"2019-03-26 11:20:16.570 +0000",1553599216.570499,-2.580736,-0.254599,0.585830,-0.514765,0.251858,0.819503,0.000000,0.000000,0.000000,-1,-0.092882,-0.010809,-0.034685,-0.000143,0.022419,0.016587
"2019-03-26 11:20:16.593 +0000",1553599216.592806,-2.581693,-0.253643,0.585170,-0.514108,0.250932,0.820198,0.000000,0.000000,0.000000,-1,-0.070196,-0.037762,-0.007134,-0.008063,0.012251,0.008750
"2019-03-26 11:20:16.615 +0000",1553599216.615084,-2.583075,-0.252665,0.584323,-0.513104,0.249986,0.821116,0.000000,0.000000,0.000000,-1,-0.053802,-0.059801,0.017880,-0.006519,-0.003907,-0.005137
"2019-03-26 11:20:16.637 +0000",1553599216.637389,-2.584646,-0.252375,0.583121,-0.511852,0.249705,0.821983,0.000000,0.000000,0.000000,-1,-0.024854,-0.048631,0.040123,-0.004795,-0.027628,-0.010078
"2019-03-26 11:20:16.660 +0000",1553599216.659700,-2.585544,-0.252896,0.582077,-0.511045,0.250209,0.822331,0.000000,0.000000,0.000000,-1,0.009099,-0.010426,0.054685,-0.008670,-0.029262,-0.012975
"2019-03-26 11:20:16.682 +0000",1553599216.682007,-2.585889,-0.253925,0.581079,-0.510625,0.251205,0.822288,0.000000,0.000000,0.000000,-1,0.024187,-0.001780,0.062058,-0.013011,-0.028915,-0.012001
"2019-03-26 11:20:16.704 +0000",1553599216.704286,-2.585140,-0.254083,0.580570,-0.511220,0.251358,0.821872,0.000000,0.000000,0.000000,-1,0.039195,-0.003007,0.055855,-0.011439,-0.015823,-0.004687
"2019-03-26 11:20:16.727 +0000",1553599216.726592,-2.585326,-0.255412,0.580153,-0.510890,0.252644,0.821683,0.000000,0.000000,0.000000,-1,0.041633,-0.001843,0.038478,-0.013768,-0.008732,-0.004117
"2019-03-26 11:20:16.749 +0000",1553599216.748900,-2.584692,-0.256065,0.580315,-0.511324,0.253275,0.821218,0.000000,0.000000,0.000000,-1,0.027724,-0.006855,0.012459,-0.011869,0.001897,0.003092
"2019-03-26 11:20:16.771 +0000",1553599216.771208,-2.584825,-0.256573,0.580556,-0.511146,0.253767,0.821177,0.000000,0.000000,0.000000,-1,0.021403,-0.004445,0.000029,-0.011773,0.012560,0.004277
"2019-03-26 11:20:16.793 +0000",1553599216.793487,-2.583986,-0.258353,0.581101,-0.511595,0.255489,0.820363,0.000000,0.000000,0.000000,-1,0.020174,-0.003202,-0.001210,-0.005510,0.011845,-0.001302
"2019-03-26 11:20:16.816 +0000",1553599216.815794,-2.583569,-0.259099,0.581147,-0.511836,0.256210,0.819988,0.000000,0.000000,0.000000,-1,0.003961,0.026379,0.014652,0.000148,0.006409,0.004322
"2019-03-26 11:20:16.838 +0000",1553599216.838101,-2.582665,-0.258991,0.580802,-0.512592,0.256105,0.819549,0.000000,0.000000,0.000000,-1,-0.018646,0.059535,0.001943,0.006671,0.003370,0.013230
"2019-03-26 11:20:16.860 +0000",1553599216.860390,-2.583932,-0.260110,0.579993,-0.511402,0.257187,0.819953,0.000000,0.000000,0.000000,-1,-0.046328,0.070425,-0.027903,0.007648,0.028107,0.027367
"2019-03-26 11:20:16.883 +0000",1553599216.882715,-2.583420,-0.259932,0.579860,-0.511845,0.257015,0.819730,0.000000,0.000000,0.000000,-1,-0.040091,0.077731,-0.041593,0.010182,0.024433,0.025927
"2019-03-26 11:20:16.905 +0000",1553599216.904995,-2.581811,-0.258837,0.580255,-0.513312,0.255956,0.819144,0.000000,0.000000,0.000000,-1,-0.031325,0.062969,-0.042699,0.009666,0.015925,0.018152
"2019-03-26 11:20:16.927 +0000",1553599216.927291,-2.580599,-0.256746,0.580728,-0.514588,0.253935,0.818972,0.000000,0.000000,0.000000,-1,-0.052739,0.043213,-0.058666,-0.000914,-0.005903,-0.000705
"2019-03-26 11:20:16.950 +0000",1553599216.949611,-2.579497,-0.255309,0.581572,-0.515685,0.252545,0.818713,0.000000,0.000000,0.000000,-1,-0.032727,0.011209,-0.068298,-0.006181,0.003467,-0.003130
"2019-03-26 11:20:16.972 +0000",1553599216.971918,-2.577992,-0.254731,0.582946,-0.516994,0.251985,0.818059,0.000000,0.000000,0.000000,-1,-0.007645,0.013678,-0.073270,-0.021168,0.007079,-0.011495
"2019-03-26 11:20:16.994 +0000",1553599216.994197,-2.577575,-0.253870,0.584429,-0.517452,0.251151,0.818026,0.000000,0.000000,0.000000,-1,0.008644,-0.004771,-0.074339,-0.029423,-0.016792,-0.021319
"2019-03-26 11:20:17.017 +0000",1553599217.016504,-2.577591,-0.253524,0.586015,-0.517485,0.250817,0.818108,0.000000,0.000000,0.000000,-1,0.030006,-0.033002,-0.060434,-0.034731,-0.008248,-0.019264
"2019-03-26 11:20:17.039 +0000",1553599217.038812,-2.578240,-0.253514,0.587340,-0.516954,0.250807,0.818446,0.000000,0.000000,0.000000,-1,0.030055,-0.050166,-0.045395,-0.024046,-0.012358,-0.031108
"2019-03-26 11:20:17.061 +0000",1553599217.061120,-2.579083,-0.253674,0.588714,-0.516243,0.250962,0.818847,0.000000,0.000000,0.000000,-1,0.041328,-0.051406,-0.049101,-0.014366,-0.018022,-0.023193
"2019-03-26 11:20:17.083 +0000",1553599217.083423,-2.578609,-0.252420,0.590693,-0.516799,0.249748,0.818868,0.000000,0.000000,0.000000,-1,0.055073,-0.042800,-0.057877,-0.012650,-0.006508,0.005107
"2019-03-26 11:20:17.106 +0000",1553599217.105706,-2.578509,-0.252569,0.592736,-0.516861,0.249892,0.818785,0.000000,0.000000,0.000000,-1,0.063837,-0.030505,-0.062950,-0.013443,-0.002013,0.006883
"2019-03-26 11:20:17.128 +0000",1553599217.128014,-2.578672,-0.252938,0.594725,-0.516679,0.250249,0.818791,0.000000,0.000000,0.000000,-1,0.058820,-0.029277,-0.062963,-0.011413,0.002238,0.008403
"2019-03-26 11:20:17.150 +0000",1553599217.150299,-2.578556,-0.253271,0.596839,-0.516729,0.250572,0.818660,0.000000,0.000000,0.000000,-1,0.067578,-0.030518,-0.067913,-0.006846,0.001014,0.004185
"2019-03-26 11:20:17.173 +0000",1553599217.172628,-2.579073,-0.253939,0.598870,-0.516216,0.251218,0.818786,0.000000,0.000000,0.000000,-1,0.070136,-0.056285,-0.051556,-0.007039,0.002551,0.007676
"2019-03-26 11:20:17.195 +0000",1553599217.194907,-2.579726,-0.254788,0.600428,-0.515568,0.252040,0.818942,0.000000,0.000000,0.000000,-1,0.056468,-0.053707,-0.020572,-0.008099,0.003392,0.004377
"2019-03-26 11:20:17.217 +0000",1553599217.217213,-2.580463,-0.255406,0.600694,-0.514880,0.252639,0.819190,0.000000,0.000000,0.000000,-1,0.005233,-0.028959,0.022606,-0.010968,-0.000594,0.007699
"2019-03-26 11:20:17.240 +0000",1553599217.239522,-2.582679,-0.254536,0.598766,-0.513180,0.251797,0.820515,0.000000,0.000000,0.000000,-1,-0.091176,-0.027614,0.068452,0.001660,0.001957,0.023693
"2019-03-26 11:20:17.262 +0000",1553599217.261831,-2.585128,-0.253368,0.595207,-0.511325,0.250666,0.822018,0.000000,0.000000,0.000000,-1,-0.150002,-0.018937,0.098131,0.016131,0.023168,0.034824
"2019-03-26 11:20:17.284 +0000",1553599217.284108,-2.586968,-0.251630,0.590731,-0.510040,0.248983,0.823327,0.000000,0.000000,0.000000,-1,-0.179977,-0.045873,0.134333,0.036300,0.037364,0.035621
"2019-03-26 11:20:17.306 +0000",1553599217.306416,-2.590076,-0.249960,0.585419,-0.507696,0.247365,0.825261,0.000000,0.000000,0.000000,-1,-0.192400,-0.101084,0.173274,0.031698,0.015300,0.013637
"2019-03-26 11:20:17.329 +0000",1553599217.328724,-2.593901,-0.248561,0.579547,-0.504715,0.246010,0.827491,0.000000,0.000000,0.000000,-1,-0.187316,-0.108396,0.190709,0.025284,0.016441,0.003548
"2019-03-26 11:20:17.351 +0000",1553599217.351033,-2.597681,-0.247042,0.573547,-0.501776,0.244537,0.829712,0.000000,0.000000,0.000000,-1,-0.193618,-0.099821,0.181946,0.008597,0.011338,-0.008118
"2019-03-26 11:20:17.373 +0000",1553599217.373321,-2.598963,-0.245903,0.568358,-0.500856,0.243432,0.830593,0.000000,0.000000,0.000000,-1,-0.176058,-0.032181,0.167705,-0.030623,0.009620,-0.011302
"2019-03-26 11:20:17.396 +0000",1553599217.395618,-2.600037,-0.244840,0.563447,-0.500097,0.242401,0.831351,0.000000,0.000000,0.000000,-1,-0.137180,0.020692,0.157328,-0.035563,0.005905,-0.008338
"2019-03-26 11:20:17.418 +0000",1553599217.417924,-2.600195,-0.244763,0.559390,-0.499975,0.242326,0.831447,0.000000,0.000000,0.000000,-1,-0.073221,0.047753,0.149672,-0.027674,-0.003572,-0.005442
"2019-03-26 11:20:17.440 +0000",1553599217.440233,-2.600522,-0.245500,0.555685,-0.499611,0.243041,0.831457,0.000000,0.000000,0.000000,-1,-0.045608,0.010899,0.159935,-0.022225,-0.010070,-0.010488
"2019-03-26 11:20:17.463 +0000",1553599217.462541,-2.599840,-0.245726,0.552125,-0.500150,0.243260,0.831068,0.000000,0.000000,0.000000,-1,-0.045562,0.008526,0.174826,-0.014941,-0.015935,-0.019514
"2019-03-26 11:20:17.485 +0000",1553599217.484818,-2.600502,-0.246841,0.548234,-0.499459,0.244342,0.831167,0.000000,0.000000,0.000000,-1,-0.039315,0.017110,0.167309,-0.014579,-0.020069,-0.009969
"2019-03-26 11:20:17.507 +0000",1553599217.507126,-2.601035,-0.248383,0.544698,-0.498822,0.245837,0.831108,0.000000,0.000000,0.000000,-1,-0.006718,0.015880,0.163612,-0.016544,-0.018145,-0.008294
"2019-03-26 11:20:17.529 +0000",1553599217.529434,-2.598922,-0.248735,0.542351,-0.500532,0.246178,0.829979,0.000000,0.000000,0.000000,-1,0.019530,0.010957,0.147510,-0.010470,-0.013252,-0.011802
"2019-03-26 11:20:17.552 +0000",1553599217.551742,-2.598318,-0.250067,0.540395,-0.500862,0.247469,0.829395,0.000000,0.000000,0.000000,-1,0.033194,0.010866,0.117731,-0.009376,-0.014879,-0.012729
"2019-03-26 11:20:17.574 +0000",1553599217.574019,-2.598177,-0.251694,0.538921,-0.500771,0.249045,0.828978,0.000000,0.000000,0.000000,-1,0.029281,0.029162,0.077870,-0.014686,-0.002112,0.001710
"2019-03-26 11:20:17.596 +0000",1553599217.596335,-2.596409,-0.253801,0.538420,-0.501962,0.251085,0.827641,0.000000,0.000000,0.000000,-1,0.012864,0.026600,0.045638,-0.019446,0.014616,0.008434
"2019-03-26 11:20:17.619 +0000",1553599217.618635,-2.595277,-0.255084,0.538143,-0.502732,0.252326,0.826796,0.000000,0.000000,0.000000,-1,0.005263,0.011779,0.025922,-0.021347,0.017693,0.004045
"2019-03-26 11:20:17.641 +0000",1553599217.640944,-2.594725,-0.255692,0.537875,-0.503108,0.252915,0.826388,0.000000,0.000000,0.000000,-1,-0.031207,-0.023973,0.005140,-0.019063,0.021530,0.003492
"2019-03-26 11:20:17.663 +0000",1553599217.663222,-2.595954,-0.254400,0.537112,-0.502261,0.251664,0.827284,0.000000,0.000000,0.000000,-1,-0.090235,-0.051113,-0.008290,-0.024823,0.026412,0.006319
"2019-03-26 11:20:17.686 +0000",1553599217.685529,-2.596041,-0.253957,0.536580,-0.502246,0.251236,0.827423,0.000000,0.000000,0.000000,-1,-0.120416,-0.075789,-0.032878,-0.023312,0.023834,0.008545
"2019-03-26 11:20:17.708 +0000",1553599217.707836,-2.596598,-0.252000,0.536632,-0.502040,0.249341,0.828121,0.000000,0.000000,0.000000,-1,-0.090390,-0.052487,-0.059120,-0.031011,0.024722,0.017277
"2019-03-26 11:20:17.730 +0000",1553599217.730145,-2.597665,-0.249610,0.536772,-0.501463,0.247026,0.829165,0.000000,0.000000,0.000000,-1,-0.086617,-0.053706,-0.056626,-0.028872,0.021086,0.012510
"2019-03-26 11:20:17.752 +0000",1553599217.752452,-2.599552,-0.247625,0.536737,-0.500149,0.245102,0.830527,0.000000,0.000000,0.000000,-1,-0.076545,-0.099154,-0.040091,0.017972,-0.007507,-0.018928
"2019-03-26 11:20:17.775 +0000",1553599217.774731,-2.602273,-0.245931,0.536325,-0.498100,0.243460,0.832240,0.000000,0.000000,0.000000,-1,-0.056362,-0.086749,-0.012901,0.021874,-0.012121,-0.020930
"2019-03-26 11:20:17.797 +0000",1553599217.797036,-2.603686,-0.244670,0.536017,-0.497081,0.242237,0.833206,0.000000,0.000000,0.000000,-1,-0.057624,-0.043729,-0.021967,0.011851,-0.020114,-0.005905
"2019-03-26 11:20:17.819 +0000",1553599217.819338,-2.604162,-0.242943,0.536047,-0.496897,0.240561,0.833801,0.000000,0.000000,0.000000,-1,-0.070281,0.000416,-0.057100,0.003153,-0.003271,0.010544
"2019-03-26 11:20:17.842 +0000",1553599217.841653,-2.603165,-0.240796,0.537175,-0.497992,0.238475,0.833747,0.000000,0.000000,0.000000,-1,-0.036590,0.055584,-0.109678,0.003332,0.000508,0.012460
"2019-03-26 11:20:17.864 +0000",1553599217.863930,-2.601462,-0.239753,0.539668,-0.499539,0.237463,0.833110,0.000000,0.000000,0.000000,-1,0.056195,0.087540,-0.123564,0.010677,0.006175,0.028096
"2019-03-26 11:20:17.886 +0000",1553599217.886239,-2.598875,-0.240189,0.543380,-0.501639,0.237887,0.831726,0.000000,0.000000,0.000000,-1,0.123877,0.069078,-0.133296,0.007498,0.010404,0.032883
"2019-03-26 11:20:17.909 +0000",1553599217.908546,-2.596506,-0.241218,0.547778,-0.503481,0.238886,0.830326,0.000000,0.000000,0.000000,-1,0.142649,0.056752,-0.141862,0.017092,0.004172,0.003048
"2019-03-26 11:20:17.931 +0000",1553599217.930855,-2.594046,-0.243400,0.552361,-0.505249,0.241003,0.828638,0.000000,0.000000,0.000000,-1,0.137650,0.044459,-0.140502,-0.002381,0.008310,-0.005655
"2019-03-26 11:20:17.953 +0000",1553599217.953133,-2.592228,-0.244183,0.556295,-0.506656,0.241763,0.827556,0.000000,0.000000,0.000000,-1,0.106384,0.038387,-0.116892,-0.023297,0.009457,-0.006878
"2019-03-26 11:20:17.975 +0000",1553599217.975441,-2.590902,-0.244589,0.559108,-0.507702,0.242158,0.826800,0.000000,0.000000,0.000000,-1,0.062618,0.022516,-0.080794,-0.027516,0.009505,-0.005603
"2019-03-26 11:20:17.998 +0000",1553599217.997748,-2.590506,-0.244721,0.560472,-0.508012,0.242286,0.826572,0.000000,0.000000,0.000000,-1,0.021436,-0.010494,-0.023454,-0.020460,0.011193,-0.005268
"2019-03-26 11:20:18.020 +0000",1553599218.020057,-2.591001,-0.244829,0.560259,-0.507589,0.242391,0.826801,0.000000,0.000000,0.000000,-1,-0.015975,-0.029972,0.033768,0.001104,0.008784,-0.001682
"2019-03-26 11:20:18.042 +0000",1553599218.042328,-2.593611,-0.244152,0.558179,-0.505515,0.241733,0.828263,0.000000,0.000000,0.000000,-1,-0.064802,-0.009029,0.055895,0.026923,-0.006778,0.013427
"2019-03-26 11:20:18.065 +0000",1553599218.064642,-2.594111,-0.243362,0.556031,-0.505200,0.240967,0.828678,0.000000,0.000000,0.000000,-1,-0.079816,0.010671,0.061916,0.028745,-0.000245,0.017590
"2019-03-26 11:20:18.087 +0000",1553599218.086950,-2.594045,-0.242823,0.554262,-0.505322,0.240444,0.828756,0.000000,0.000000,0.000000,-1,-0.048502,0.027853,0.048131,0.021466,0.015599,0.022868
"2019-03-26 11:20:18.109 +0000",1553599218.109310,-2.593635,-0.242690,0.553533,-0.505678,0.240314,0.828576,0.000000,0.000000,0.000000,-1,-0.006039,0.024008,0.003524,0.010027,0.012280,0.015311
"2019-03-26 11:20:18.132 +0000",1553599218.131566,-2.592727,-0.242475,0.554373,-0.506458,0.240106,0.828160,0.000000,0.000000,0.000000,-1,0.015045,0.010273,-0.053412,-0.019711,0.001776,0.001109
"2019-03-26 11:20:18.154 +0000",1553599218.153844,-2.592596,-0.241726,0.556002,-0.506660,0.239378,0.828247,0.000000,0.000000,0.000000,-1,0.003593,-0.021849,-0.087867,-0.041085,0.003938,-0.012177
"2019-03-26 11:20:18.176 +0000",1553599218.176169,-2.592981,-0.240753,0.557811,-0.506462,0.238434,0.828640,0.000000,0.000000,0.000000,-1,0.006085,-0.040304,-0.088943,-0.048118,0.013870,-0.015087
"2019-03-26 11:20:18.198 +0000",1553599218.198460,-2.591403,-0.240494,0.559892,-0.507802,0.238183,0.827893,0.000000,0.000000,0.000000,-1,0.007439,-0.036494,-0.069130,-0.017589,0.003867,-0.006817
"2019-03-26 11:20:18.221 +0000",1553599218.220783,-2.591998,-0.240149,0.560859,-0.507352,0.237847,0.828265,0.000000,0.000000,0.000000,-1,0.010099,-0.036349,-0.031914,-0.008899,0.001777,-0.007571
"2019-03-26 11:20:18.243 +0000",1553599218.243060,-2.592357,-0.240425,0.561394,-0.507020,0.238115,0.828391,0.000000,0.000000,0.000000,-1,0.034050,-0.010410,-0.007323,0.001801,-0.010256,0.002053
"2019-03-26 11:20:18.265 +0000",1553599218.265359,-2.592569,-0.240080,0.562087,-0.506887,0.237780,0.828568,0.000000,0.000000,0.000000,-1,0.059108,-0.003035,-0.009873,0.001913,-0.017352,0.004592
"2019-03-26 11:20:18.288 +0000",1553599218.287676,-2.592527,-0.241198,0.563123,-0.506783,0.238866,0.828320,0.000000,0.000000,0.000000,-1,0.069110,-0.014125,-0.015973,0.002419,-0.018056,0.001407
"2019-03-26 11:20:18.310 +0000",1553599218.309986,-2.592615,-0.241129,0.564317,-0.506719,0.238800,0.828379,0.000000,0.000000,0.000000,-1,0.056510,-0.023999,-0.023347,-0.002406,-0.014327,-0.004465
"2019-03-26 11:20:18.332 +0000",1553599218.332293,-2.593165,-0.241750,0.565317,-0.506186,0.239403,0.828530,0.000000,0.000000,0.000000,-1,0.041464,-0.038752,-0.019501,-0.006769,-0.006660,-0.004342
"2019-03-26 11:20:18.355 +0000",1553599218.354571,-2.593272,-0.242266,0.566126,-0.506032,0.239903,0.828479,0.000000,0.000000,0.000000,-1,0.023943,-0.037484,-0.010837,-0.005412,0.001888,0.000866
"2019-03-26 11:20:18.377 +0000",1553599218.376878,-2.593989,-0.242729,0.566389,-0.505381,0.240353,0.828747,0.000000,0.000000,0.000000,-1,0.005171,-0.049745,0.000431,-0.005178,0.009357,0.006947
"2019-03-26 11:20:18.399 +0000",1553599218.399185,-2.595270,-0.242556,0.566217,-0.504340,0.240185,0.829429,0.000000,0.000000,0.000000,-1,-0.016145,-0.060811,0.004242,0.001533,0.015507,0.010629
"2019-03-26 11:20:18.421 +0000",1553599218.421494,-2.597801,-0.243809,0.565445,-0.502083,0.241401,0.830445,0.000000,0.000000,0.000000,-1,-0.029868,-0.058335,0.015404,0.004891,0.013528,0.007660
"2019-03-26 11:20:18.444 +0000",1553599218.443772,-2.599121,-0.243771,0.564910,-0.500991,0.241364,0.831114,0.000000,0.000000,0.000000,-1,-0.021098,-0.031308,0.006490,0.002075,0.008087,0.004884
"2019-03-26 11:20:18.466 +0000",1553599218.466080,-2.599513,-0.243645,0.564412,-0.500681,0.241241,0.831337,0.000000,0.000000,0.000000,-1,-0.008506,-0.002981,0.013687,-0.006536,0.006485,0.007561
"2019-03-26 11:20:18.488 +0000",1553599218.488373,-2.599531,-0.242943,0.563909,-0.500753,0.240560,0.831491,0.000000,0.000000,0.000000,-1,-0.002180,0.010610,0.028447,-0.001856,-0.006933,0.006674
"2019-03-26 11:20:18.511 +0000",1553599218.510690,-2.599471,-0.243125,0.563400,-0.500780,0.240737,0.831423,0.000000,0.000000,0.000000,-1,0.019165,0.015559,0.034611,0.002032,-0.007323,0.003263
"2019-03-26 11:20:18.533 +0000",1553599218.532971,-2.599457,-0.243837,0.562601,-0.500704,0.241428,0.831269,0.000000,0.000000,0.000000,-1,0.025521,0.024248,0.055623,0.009706,-0.010944,-0.000871
"2019-03-26 11:20:18.555 +0000",1553599218.555279,-2.598888,-0.244914,0.561812,-0.501042,0.242472,0.830761,0.000000,0.000000,0.000000,-1,0.023016,0.039004,0.054250,0.009679,-0.013942,0.000187
"2019-03-26 11:20:18.578 +0000",1553599218.577587,-2.598280,-0.245111,0.560957,-0.501523,0.242664,0.830415,0.000000,0.000000,0.000000,-1,0.020502,0.056218,0.054088,0.000348,-0.005054,0.004592
"2019-03-26 11:20:18.600 +0000",1553599218.599897,-2.596877,-0.245881,0.560256,-0.502590,0.243411,0.829551,0.000000,0.000000,0.000000,-1,0.021726,0.069718,0.045282,-0.003163,-0.001300,0.004479
"2019-03-26 11:20:18.622 +0000",1553599218.622205,-2.595234,-0.246493,0.559748,-0.503874,0.244004,0.828597,0.000000,0.000000,0.000000,-1,0.006598,0.085622,0.024045,-0.006944,0.000655,0.007356
"2019-03-26 11:20:18.644 +0000",1553599218.644482,-2.592990,-0.247912,0.559663,-0.505552,0.245381,0.827167,0.000000,0.000000,0.000000,-1,-0.018573,0.085508,-0.004480,-0.017688,0.027370,0.024731
"2019-03-26 11:20:18.667 +0000",1553599218.666790,-2.591398,-0.248287,0.559615,-0.506819,0.245744,0.826283,0.000000,0.000000,0.000000,-1,-0.037439,0.059616,-0.017891,-0.012895,0.031707,0.021953
"2019-03-26 11:20:18.689 +0000",1553599218.689097,-2.590884,-0.247075,0.559397,-0.507400,0.244569,0.826276,0.000000,0.000000,0.000000,-1,-0.057558,0.006698,-0.021152,-0.012650,0.027709,0.009052
"2019-03-26 11:20:18.711 +0000",1553599218.711389,-2.590318,-0.247570,0.559369,-0.507804,0.245048,0.825885,0.000000,0.000000,0.000000,-1,-0.063828,-0.030200,-0.024531,-0.002602,0.017540,-0.012683
"2019-03-26 11:20:18.734 +0000",1553599218.733684,-2.590849,-0.246778,0.559269,-0.507467,0.244281,0.826320,0.000000,0.000000,0.000000,-1,-0.062588,-0.036367,-0.030671,-0.000346,0.014279,-0.012920
"2019-03-26 11:20:18.756 +0000",1553599218.755991,-2.590993,-0.245573,0.559229,-0.507502,0.243112,0.826643,0.000000,0.000000,0.000000,-1,-0.057545,-0.010526,-0.030896,-0.004049,0.001227,-0.008283
"2019-03-26 11:20:18.778 +0000",1553599218.778297,-2.591015,-0.244390,0.559224,-0.507633,0.241965,0.826899,0.000000,0.000000,0.000000,-1,-0.032415,0.001820,-0.022311,-0.012326,-0.003867,-0.000101
"2019-03-26 11:20:18.801 +0000",1553599218.800606,-2.590099,-0.242714,0.559671,-0.508602,0.240338,0.826778,0.000000,0.000000,0.000000,-1,-0.002308,-0.000587,-0.016093,-0.015918,-0.012357,0.007604
"2019-03-26 11:20:18.823 +0000",1553599218.822884,-2.589346,-0.240825,0.560109,-0.509462,0.238503,0.826780,0.000000,0.000000,0.000000,-1,0.000180,0.008042,-0.014953,-0.011305,-0.018823,0.005435
"2019-03-26 11:20:18.845 +0000",1553599218.845192,-2.588775,-0.240768,0.560514,-0.509941,0.238449,0.826500,0.000000,0.000000,0.000000,-1,0.013972,0.030171,-0.020105,0.000572,-0.014419,0.006920
"2019-03-26 11:20:18.867 +0000",1553599218.867498,-2.587410,-0.240124,0.561456,-0.511149,0.237823,0.825934,0.000000,0.000000,0.000000,-1,0.022691,0.022764,-0.031212,-0.007665,-0.007049,-0.002905
"2019-03-26 11:20:18.890 +0000",1553599218.889808,-2.586386,-0.240140,0.562689,-0.511993,0.237838,0.825407,0.000000,0.000000,0.000000,-1,0.028903,0.006738,-0.043475,-0.008912,-0.000351,-0.005171
"2019-03-26 11:20:18.912 +0000",1553599218.912115,-2.585972,-0.240206,0.563798,-0.512326,0.237903,0.825181,0.000000,0.000000,0.000000,-1,0.026414,0.006756,-0.038514,-0.007464,0.000546,-0.002092
"2019-03-26 11:20:18.934 +0000",1553599218.934386,-2.585135,-0.240060,0.564802,-0.513035,0.237761,0.824781,0.000000,0.000000,0.000000,-1,0.015141,0.016608,-0.036128,-0.011806,0.002763,0.011187
"2019-03-26 11:20:18.957 +0000",1553599218.956702,-2.584393,-0.240144,0.565497,-0.513637,0.237842,0.824383,0.000000,0.000000,0.000000,-1,0.016448,0.016660,-0.023722,-0.011876,0.005948,0.013370
"2019-03-26 11:20:18.979 +0000",1553599218.979009,-2.583692,-0.240153,0.566082,-0.514213,0.237851,0.824022,0.000000,0.000000,0.000000,-1,0.011446,0.015446,-0.019992,-0.010232,0.005420,0.011168
"2019-03-26 11:20:19.001 +0000",1553599219.001318,-2.583370,-0.240187,0.566535,-0.514474,0.237885,0.823849,0.000000,0.000000,0.000000,-1,0.010210,0.005628,-0.013703,-0.003333,0.003677,0.005848
"2019-03-26 11:20:19.024 +0000",1553599219.023595,-2.583567,-0.240514,0.566547,-0.514271,0.238202,0.823884,0.000000,0.000000,0.000000,-1,0.002751,0.008136,0.001163,0.000767,0.004916,0.005873
"2019-03-26 11:20:19.046 +0000",1553599219.045902,-2.583556,-0.240514,0.566407,-0.514280,0.238202,0.823879,0.000000,0.000000,0.000000,-1,-0.004758,0.010603,0.004861,-0.001772,0.000033,0.009267
"2019-03-26 11:20:19.068 +0000",1553599219.068209,-2.583276,-0.240307,0.566068,-0.514536,0.238000,0.823777,0.000000,0.000000,0.000000,-1,-0.018527,0.016772,0.011003,-0.005086,0.003577,0.011718
"2019-03-26 11:20:19.091 +0000",1553599219.090519,-2.583275,-0.240257,0.565624,-0.514544,0.237953,0.823786,0.000000,0.000000,0.000000,-1,-0.016027,0.021673,0.007243,-0.001844,0.004250,0.011343
"2019-03-26 11:20:19.113 +0000",1553599219.112796,-2.583177,-0.240181,0.565225,-0.514634,0.237879,0.823751,0.000000,0.000000,0.000000,-1,-0.013524,0.019203,0.006028,-0.000244,0.005194,0.012781
"2019-03-26 11:20:19.135 +0000",1553599219.135104,-2.582909,-0.239784,0.564872,-0.514905,0.237492,0.823693,0.000000,0.000000,0.000000,-1,-0.028606,0.011792,-0.000115,-0.000354,0.008937,0.014381
"2019-03-26 11:20:19.157 +0000",1553599219.157399,-2.583199,-0.239589,0.564451,-0.514690,0.237303,0.823882,0.000000,0.000000,0.000000,-1,-0.034880,-0.002976,0.000019,-0.001652,0.005602,0.004609
"2019-03-26 11:20:19.180 +0000",1553599219.179720,-2.583364,-0.239178,0.564099,-0.514606,0.236904,0.824049,0.000000,0.000000,0.000000,-1,-0.022335,-0.016490,0.002625,-0.003842,0.001408,0.001146
"2019-03-26 11:20:19.202 +0000",1553599219.202027,-2.583452,-0.238968,0.563949,-0.514560,0.236700,0.824137,0.000000,0.000000,0.000000,-1,-0.003511,-0.011554,0.003829,-0.008511,-0.002066,0.000693
"2019-03-26 11:20:19.224 +0000",1553599219.224305,-2.583954,-0.239070,0.563900,-0.514133,0.236799,0.824374,0.000000,0.000000,0.000000,-1,0.005258,-0.028772,0.003985,-0.013989,-0.006758,-0.001025
"2019-03-26 11:20:19.247 +0000",1553599219.246613,-2.584042,-0.238716,0.564036,-0.514105,0.236455,0.824490,0.000000,0.000000,0.000000,-1,0.004001,-0.044732,0.007838,-0.010202,-0.004613,-0.000699
"2019-03-26 11:20:19.269 +0000",1553599219.268920,-2.584811,-0.238721,0.563803,-0.513470,0.236460,0.824885,0.000000,0.000000,0.000000,-1,0.002809,-0.044664,0.023960,-0.007617,-0.004405,0.001013
"2019-03-26 11:20:19.291 +0000",1553599219.291229,-2.585738,-0.239047,0.563399,-0.512665,0.236777,0.825295,0.000000,0.000000,0.000000,-1,0.005317,-0.037287,0.022655,-0.005676,-0.002661,0.002769
"2019-03-26 11:20:19.314 +0000",1553599219.313507,-2.586461,-0.238978,0.563171,-0.512076,0.236710,0.825679,0.000000,0.000000,0.000000,-1,0.010304,-0.025012,0.015100,-0.005471,-0.001221,0.008778
"2019-03-26 11:20:19.336 +0000",1553599219.335814,-2.587184,-0.239185,0.562850,-0.511454,0.236911,0.826007,0.000000,0.000000,0.000000,-1,0.002797,-0.038516,0.022658,-0.006765,-0.000995,0.006848
"2019-03-26 11:20:19.358 +0000",1553599219.358122,-2.588140,-0.239564,0.562437,-0.510616,0.237279,0.826420,0.000000,0.000000,0.000000,-1,0.007819,-0.039739,0.023911,-0.001194,-0.001912,0.001781
"2019-03-26 11:20:19.380 +0000",1553599219.380422,-2.588507,-0.239837,0.562333,-0.510279,0.237544,0.826552,0.000000,0.000000,0.000000,-1,0.014078,-0.031132,0.020112,-0.003698,-0.002254,-0.000106
"2019-03-26 11:20:19.403 +0000",1553599219.402707,-2.588703,-0.240379,0.562172,-0.510049,0.238070,0.826542,0.000000,0.000000,0.000000,-1,0.025399,0.005788,0.022268,-0.003958,-0.002109,0.003643
"2019-03-26 11:20:19.425 +0000",1553599219.425015,-2.588121,-0.240885,0.562080,-0.510467,0.238562,0.826143,0.000000,0.000000,0.000000,-1,0.022896,0.034071,0.019532,-0.001847,-0.004202,0.008360
"2019-03-26 11:20:19.447 +0000",1553599219.447322,-2.586856,-0.241364,0.562307,-0.511451,0.239028,0.825399,0.000000,0.000000,0.000000,-1,0.025318,0.063494,-0.006779,-0.002358,-0.000670,0.020411
"2019-03-26 11:20:19.470 +0000",1553599219.469632,-2.586143,-0.242331,0.562762,-0.511917,0.239967,0.824837,0.000000,0.000000,0.000000,-1,0.030291,0.049907,-0.017811,-0.004074,0.014611,0.025596
"2019-03-26 11:20:19.492 +0000",1553599219.491908,-2.585666,-0.242987,0.563334,-0.512228,0.240603,0.824459,0.000000,0.000000,0.000000,-1,0.015229,0.017914,-0.016286,-0.000620,0.013929,0.015781
"2019-03-26 11:20:19.514 +0000",1553599219.514216,-2.585524,-0.243002,0.563630,-0.512343,0.240618,0.824383,0.000000,0.000000,0.000000,-1,-0.001051,-0.004196,-0.006173,0.005049,0.011518,0.002139
"2019-03-26 11:20:19.537 +0000",1553599219.536524,-2.585660,-0.243034,0.563497,-0.512227,0.240649,0.824446,0.000000,0.000000,0.000000,-1,-0.014796,-0.007843,0.006262,-0.004085,0.003141,0.002275
"2019-03-26 11:20:19.559 +0000",1553599219.558833,-2.585719,-0.242933,0.562963,-0.512191,0.240551,0.824497,0.000000,0.000000,0.000000,-1,-0.024768,-0.009013,0.021154,-0.010881,0.004475,0.004192
"2019-03-26 11:20:19.581 +0000",1553599219.581141,-2.586519,-0.242811,0.562183,-0.511546,0.240432,0.824932,0.000000,0.000000,0.000000,-1,-0.026010,-0.037278,0.028848,-0.020543,0.001816,0.007420
"2019-03-26 11:20:19.603 +0000",1553599219.603431,-2.586780,-0.242442,0.561448,-0.511378,0.240074,0.825140,0.000000,0.000000,0.000000,-1,-0.026008,-0.038486,0.030093,-0.008290,-0.001137,0.001444
"2019-03-26 11:20:19.626 +0000",1553599219.625726,-2.587536,-0.242356,0.560864,-0.510765,0.239991,0.825545,0.000000,0.000000,0.000000,-1,-0.007249,-0.036068,0.016431,-0.006707,-0.001160,0.004289
"2019-03-26 11:20:19.648 +0000",1553599219.648032,-2.588207,-0.242272,0.560702,-0.510221,0.239909,0.825904,0.000000,0.000000,0.000000,-1,-0.003537,-0.026277,0.002699,-0.004092,0.002142,0.007058
"2019-03-26 11:20:19.670 +0000",1553599219.670343,-2.588759,-0.242152,0.560705,-0.509780,0.239793,0.826210,0.000000,0.000000,0.000000,-1,-0.002314,-0.027535,-0.004733,-0.002961,0.002654,0.006553
"2019-03-26 11:20:19.693 +0000",1553599219.692620,-2.589221,-0.242355,0.560944,-0.509373,0.239990,0.826404,0.000000,0.000000,0.000000,-1,0.001424,-0.036166,-0.010855,-0.005459,0.004029,0.004116
"2019-03-26 11:20:19.715 +0000",1553599219.714928,-2.589851,-0.242271,0.561163,-0.508863,0.239908,0.826742,0.000000,0.000000,0.000000,-1,-0.001084,-0.020185,-0.013478,-0.007525,0.003043,0.005442
"2019-03-26 11:20:19.737 +0000",1553599219.737235,-2.590028,-0.242184,0.561590,-0.508728,0.239823,0.826850,0.000000,0.000000,0.000000,-1,0.006440,-0.007890,-0.016065,-0.003738,0.002654,0.006967
"2019-03-26 11:20:19.760 +0000",1553599219.759543,-2.590307,-0.242065,0.561959,-0.508512,0.239708,0.827016,0.000000,0.000000,0.000000,-1,0.012706,0.000707,-0.018618,-0.000872,0.001076,0.010020
"2019-03-26 11:20:19.782 +0000",1553599219.781820,-2.590443,-0.242266,0.562348,-0.508374,0.239903,0.827044,0.000000,0.000000,0.000000,-1,0.013986,0.008099,-0.013719,0.003415,0.003643,0.010160
"2019-03-26 11:20:19.804 +0000",1553599219.804129,-2.590143,-0.242318,0.562560,-0.508616,0.239953,0.826881,0.000000,0.000000,0.000000,-1,0.003997,0.015514,-0.003865,0.008860,-0.003717,0.008904
"2019-03-26 11:20:19.826 +0000",1553599219.826442,-2.590285,-0.242166,0.562429,-0.508517,0.239806,0.826984,0.000000,0.000000,0.000000,-1,-0.006014,0.027817,0.000985,0.000110,0.002778,0.011974
"2019-03-26 11:20:19.849 +0000",1553599219.848743,-2.590071,-0.241985,0.562212,-0.508717,0.239630,0.826912,0.000000,0.000000,0.000000,-1,-0.016055,0.011823,0.002364,-0.003978,0.003793,0.013160
"2019-03-26 11:20:19.871 +0000",1553599219.871052,-2.590079,-0.241867,0.561902,-0.508726,0.239516,0.826940,0.000000,0.000000,0.000000,-1,-0.013534,0.001998,0.006176,-0.007693,0.007798,0.008539
"2019-03-26 11:20:19.893 +0000",1553599219.893330,-2.590148,-0.241657,0.561510,-0.508694,0.239312,0.827019,0.000000,0.000000,0.000000,-1,-0.019779,0.004479,0.012354,-0.006381,0.003059,0.004616
"2019-03-26 11:20:19.916 +0000",1553599219.915638,-2.589666,-0.241591,0.561379,-0.509102,0.239248,0.826787,0.000000,0.000000,0.000000,-1,0.004027,0.004474,0.006158,-0.007622,-0.001745,0.002620
"2019-03-26 11:20:19.938 +0000",1553599219.937945,-2.589199,-0.241555,0.561379,-0.509492,0.239213,0.826556,0.000000,0.000000,0.000000,-1,0.004034,0.011865,0.007330,-0.009475,-0.005632,0.004025
"2019-03-26 11:20:19.960 +0000",1553599219.960254,-2.588976,-0.241749,0.561437,-0.509652,0.239401,0.826403,0.000000,0.000000,0.000000,-1,0.007784,0.006936,0.004894,-0.008948,-0.003821,0.006178
"2019-03-26 11:20:19.983 +0000",1553599219.982529,-2.588228,-0.241677,0.561643,-0.510279,0.239331,0.826036,0.000000,0.000000,0.000000,-1,0.006509,0.003244,0.001200,-0.010656,-0.000577,0.005507
"2019-03-26 11:20:20.005 +0000",1553599220.004839,-2.587804,-0.241799,0.561799,-0.510614,0.239449,0.825795,0.000000,0.000000,0.000000,-1,0.003986,0.003236,-0.002524,-0.010810,0.002311,0.003383
"2019-03-26 11:20:20.027 +0000",1553599220.027147,-2.587761,-0.241945,0.561935,-0.510631,0.239592,0.825743,0.000000,0.000000,0.000000,-1,0.009011,-0.000443,-0.000008,-0.010838,0.004198,0.004945
"2019-03-26 11:20:20.049 +0000",1553599220.049429,-2.587769,-0.242080,0.562034,-0.510608,0.239723,0.825719,0.000000,0.000000,0.000000,-1,0.007754,0.003241,-0.001282,-0.002927,0.001855,0.007227
"2019-03-26 11:20:20.072 +0000",1553599220.071756,-2.587735,-0.242238,0.562015,-0.510615,0.239876,0.825670,0.000000,0.000000,0.000000,-1,0.006535,0.010648,0.006096,-0.003911,0.002815,0.009443
"2019-03-26 11:20:20.094 +0000",1553599220.094041,-2.587621,-0.242378,0.561892,-0.510692,0.240012,0.825584,0.000000,0.000000,0.000000,-1,0.001523,0.010648,0.007335,-0.004231,0.001870,0.008874
"2019-03-26 11:20:20.116 +0000",1553599220.116348,-2.587322,-0.242573,0.561894,-0.510914,0.240201,0.825391,0.000000,0.000000,0.000000,-1,0.006520,0.011861,0.002364,-0.002971,0.003512,0.009372
"2019-03-26 11:20:20.139 +0000",1553599220.138654,-2.587533,-0.242879,0.561795,-0.510701,0.240498,0.825436,0.000000,0.000000,0.000000,-1,0.001495,0.011840,-0.000115,0.001698,0.004497,0.007678
"2019-03-26 11:20:20.161 +0000",1553599220.160934,-2.588002,-0.242996,0.561531,-0.510299,0.240611,0.825652,0.000000,0.000000,0.000000,-1,-0.021115,0.015467,-0.010074,0.002426,0.008031,0.011384
"2019-03-26 11:20:20.183 +0000",1553599220.183242,-2.587863,-0.242251,0.561302,-0.510508,0.239888,0.825733,0.000000,0.000000,0.000000,-1,-0.039931,0.006853,-0.008765,0.002528,0.012477,0.009823
"2019-03-26 11:20:20.206 +0000",1553599220.205549,-2.588453,-0.242422,0.560819,-0.510000,0.240054,0.825999,0.000000,0.000000,0.000000,-1,-0.038645,0.005625,-0.005018,0.004903,0.010785,0.006856
"2019-03-26 11:20:20.228 +0000",1553599220.227856,-2.588614,-0.241774,0.560362,-0.509948,0.239425,0.826213,0.000000,0.000000,0.000000,-1,-0.036103,0.008111,0.002406,0.001678,0.002915,0.006077
"2019-03-26 11:20:20.250 +0000",1553599220.250165,-2.588667,-0.241438,0.559839,-0.509947,0.239099,0.826309,0.000000,0.000000,0.000000,-1,-0.013452,0.003272,0.021067,-0.005739,-0.006341,0.009156
"2019-03-26 11:20:20.272 +0000",1553599220.272430,-2.587405,-0.240031,0.559542,-0.511165,0.237733,0.825950,0.000000,0.000000,0.000000,-1,-0.003383,-0.002783,0.037228,-0.020191,-0.016099,-0.000907
"2019-03-26 11:20:20.295 +0000",1553599220.294751,-2.586952,-0.239885,0.558938,-0.511558,0.237591,0.825747,0.000000,0.000000,0.000000,-1,0.011670,-0.006436,0.040977,-0.019265,-0.016705,-0.004077
"2019-03-26 11:20:20.317 +0000",1553599220.317059,-2.586510,-0.240049,0.558633,-0.511902,0.237750,0.825489,0.000000,0.000000,0.000000,-1,0.026666,-0.021206,0.032419,-0.018661,-0.014896,-0.004062
"2019-03-26 11:20:20.339 +0000",1553599220.339365,-2.587211,-0.240969,0.558485,-0.511208,0.238644,0.825661,0.000000,0.000000,0.000000,-1,0.036666,-0.027381,0.025035,-0.021949,-0.010647,-0.002785
"2019-03-26 11:20:20.362 +0000",1553599220.361643,-2.586567,-0.241185,0.558953,-0.511712,0.238853,0.825288,0.000000,0.000000,0.000000,-1,0.042864,-0.023725,0.008865,-0.015921,-0.004753,0.001098
"2019-03-26 11:20:20.384 +0000",1553599220.383951,-2.586253,-0.241784,0.559579,-0.511896,0.239435,0.825005,0.000000,0.000000,0.000000,-1,0.046593,-0.022507,0.001406,-0.010367,-0.000940,0.004661
"2019-03-26 11:20:20.406 +0000",1553599220.406260,-2.586749,-0.242604,0.560206,-0.511383,0.240231,0.825092,0.000000,0.000000,0.000000,-1,0.044057,-0.033598,-0.003458,-0.007889,0.004474,0.007290
"2019-03-26 11:20:20.429 +0000",1553599220.428567,-2.587712,-0.243928,0.560706,-0.510421,0.241516,0.825313,0.000000,0.000000,0.000000,-1,0.037777,-0.022566,-0.009752,0.001845,0.009918,0.011830
"2019-03-26 11:20:20.451 +0000",1553599220.450845,-2.588101,-0.244831,0.561259,-0.509985,0.242392,0.825325,0.000000,0.000000,0.000000,-1,0.032770,-0.006588,-0.011132,0.001333,0.009896,0.012184
"2019-03-26 11:20:20.473 +0000",1553599220.473153,-2.588182,-0.245127,0.561815,-0.509880,0.242679,0.825305,0.000000,0.000000,0.000000,-1,0.015195,-0.012756,-0.013566,0.002007,0.014386,0.015484
"2019-03-26 11:20:20.495 +0000",1553599220.495463,-2.589543,-0.246415,0.561875,-0.508592,0.243929,0.825732,0.000000,0.000000,0.000000,-1,-0.001087,-0.017699,-0.012268,0.005983,0.016981,0.012602
"2019-03-26 11:20:20.518 +0000",1553599220.517768,-2.590415,-0.246616,0.561800,-0.507846,0.244124,0.826133,0.000000,0.000000,0.000000,-1,-0.014858,-0.021386,-0.007271,0.005847,0.013887,0.010796
"2019-03-26 11:20:20.540 +0000",1553599220.540077,-2.591302,-0.246647,0.561453,-0.507109,0.244154,0.826576,0.000000,0.000000,0.000000,-1,-0.031111,-0.018899,0.003872,0.006026,0.008318,0.011039
"2019-03-26 11:20:20.562 +0000",1553599220.562392,-2.591682,-0.245916,0.560805,-0.506888,0.243445,0.826922,0.000000,0.000000,0.000000,-1,-0.043630,-0.012734,0.008774,0.006293,0.006784,0.012022
"2019-03-26 11:20:20.585 +0000",1553599220.584661,-2.593643,-0.245537,0.559697,-0.505313,0.243077,0.827993,0.000000,0.000000,0.000000,-1,-0.036055,-0.022544,0.022518,0.004581,0.003643,0.017664
"2019-03-26 11:20:20.607 +0000",1553599220.606970,-2.595071,-0.245057,0.558446,-0.504191,0.242611,0.828813,0.000000,0.000000,0.000000,-1,-0.043540,-0.010232,0.031093,0.004695,0.000339,0.010405
"2019-03-26 11:20:20.629 +0000",1553599220.629277,-2.595309,-0.244677,0.557357,-0.504042,0.242243,0.829011,0.000000,0.000000,0.000000,-1,-0.034744,0.006998,0.032185,0.001783,-0.005061,0.002913
"2019-03-26 11:20:20.652 +0000",1553599220.651567,-2.594913,-0.243949,0.556562,-0.504462,0.241537,0.828962,0.000000,0.000000,0.000000,-1,-0.019716,0.016833,0.027134,-0.008615,-0.004232,0.005205
"2019-03-26 11:20:20.674 +0000",1553599220.673864,-2.594397,-0.243818,0.556048,-0.504906,0.241410,0.828729,0.000000,0.000000,0.000000,-1,-0.003437,0.011907,0.022218,-0.010185,-0.004486,0.003470
"2019-03-26 11:20:20.696 +0000",1553599220.696171,-2.594097,-0.244008,0.555796,-0.505131,0.241594,0.828538,0.000000,0.000000,0.000000,-1,0.004033,0.019233,0.007270,-0.009548,-0.007051,-0.002931
"2019-03-26 11:20:20.718 +0000",1553599220.718448,-2.592759,-0.243800,0.556129,-0.506265,0.241392,0.827905,0.000000,0.000000,0.000000,-1,0.011528,0.021691,0.001040,-0.011283,-0.001752,0.002967
"2019-03-26 11:20:20.741 +0000",1553599220.740756,-2.591728,-0.243965,0.556633,-0.507098,0.241552,0.827348,0.000000,0.000000,0.000000,-1,0.024008,0.026561,-0.015127,-0.011930,0.000773,0.006743
"2019-03-26 11:20:20.763 +0000",1553599220.763066,-2.590758,-0.244151,0.557318,-0.507876,0.241732,0.826818,0.000000,0.000000,0.000000,-1,0.022717,0.024073,-0.023792,-0.009244,0.000287,0.006785
"2019-03-26 11:20:20.785 +0000",1553599220.785372,-2.590065,-0.244259,0.558078,-0.508435,0.241837,0.826443,0.000000,0.000000,0.000000,-1,0.022690,0.021588,-0.029972,-0.007907,0.005401,0.006351
"2019-03-26 11:20:20.808 +0000",1553599220.807680,-2.589086,-0.244652,0.559030,-0.509194,0.242219,0.825864,0.000000,0.000000,0.000000,-1,0.013890,0.015418,-0.036120,-0.007407,0.008331,0.006289
"2019-03-26 11:20:20.830 +0000",1553599220.829957,-2.588551,-0.244877,0.559770,-0.509608,0.242437,0.825545,0.000000,0.000000,0.000000,-1,0.003900,0.009302,-0.026141,-0.003393,0.007578,0.006959
"2019-03-26 11:20:20.852 +0000",1553599220.852265,-2.588245,-0.244523,0.560176,-0.509905,0.242094,0.825462,0.000000,0.000000,0.000000,-1,-0.007364,0.009322,-0.019943,-0.003202,0.007616,0.011132
"2019-03-26 11:20:20.875 +0000",1553599220.874573,-2.588436,-0.244360,0.560170,-0.509768,0.241936,0.825593,0.000000,0.000000,0.000000,-1,-0.018606,0.005662,-0.008746,-0.000349,0.004692,0.009307
"2019-03-26 11:20:20.897 +0000",1553599220.896882,-2.588541,-0.244022,0.560002,-0.509725,0.241607,0.825716,0.000000,0.000000,0.000000,-1,-0.016067,0.008147,-0.001323,0.000051,0.002030,0.010206
"2019-03-26 11:20:20.919 +0000",1553599220.919189,-2.588410,-0.243787,0.559787,-0.509862,0.241379,0.825698,0.000000,0.000000,0.000000,-1,-0.012279,0.006942,0.004892,-0.000560,-0.000809,0.006456
"2019-03-26 11:20:20.941 +0000",1553599220.941479,-2.588409,-0.243549,0.559529,-0.509894,0.241148,0.825746,0.000000,0.000000,0.000000,-1,-0.008505,0.005727,0.008624,-0.003656,-0.001676,0.008483
"2019-03-26 11:20:20.964 +0000",1553599220.963775,-2.588160,-0.243195,0.559325,-0.510143,0.240805,0.825692,0.000000,0.000000,0.000000,-1,-0.002245,0.006958,0.007370,-0.007130,-0.001791,0.007041
"2019-03-26 11:20:20.986 +0000",1553599220.986083,-2.587977,-0.243111,0.559116,-0.510305,0.240723,0.825615,0.000000,0.000000,0.000000,-1,-0.002251,0.009415,0.006106,-0.005182,-0.001938,0.007789
"2019-03-26 11:20:21.008 +0000",1553599221.008390,-2.587803,-0.243197,0.558997,-0.510439,0.240807,0.825509,0.000000,0.000000,0.000000,-1,0.001502,0.008177,0.003638,-0.007750,0.000923,0.007240
"2019-03-26 11:20:21.031 +0000",1553599221.030668,-2.587397,-0.243321,0.559091,-0.510758,0.240927,0.825276,0.000000,0.000000,0.000000,-1,0.007767,0.005721,0.002420,-0.007430,0.001566,0.007900
"2019-03-26 11:20:21.053 +0000",1553599221.052977,-2.587126,-0.243380,0.559207,-0.510974,0.240984,0.825126,0.000000,0.000000,0.000000,-1,0.003992,0.004482,-0.000053,-0.006757,0.002027,0.008218
"2019-03-26 11:20:21.075 +0000",1553599221.075284,-2.587077,-0.243443,0.559223,-0.511006,0.241045,0.825088,0.000000,0.000000,0.000000,-1,0.002735,0.000791,-0.000021,-0.006343,0.002195,0.006867
"2019-03-26 11:20:21.098 +0000",1553599221.097570,-2.586930,-0.243620,0.559299,-0.511105,0.241217,0.824976,0.000000,0.000000,0.000000,-1,0.002727,0.000785,-0.002501,-0.005649,0.002694,0.006673
"2019-03-26 11:20:21.120 +0000",1553599221.119869,-2.586994,-0.243674,0.559288,-0.511045,0.241270,0.824998,0.000000,0.000000,0.000000,-1,-0.002281,-0.004128,0.000023,-0.004656,0.004366,0.007598
"2019-03-26 11:20:21.142 +0000",1553599221.142176,-2.587101,-0.243569,0.559253,-0.510970,0.241168,0.825074,0.000000,0.000000,0.000000,-1,-0.006040,-0.005355,0.001272,-0.005982,0.001874,0.007247
"2019-03-26 11:20:21.164 +0000",1553599221.164485,-2.587322,-0.243465,0.559119,-0.510801,0.241066,0.825209,0.000000,0.000000,0.000000,-1,-0.007291,-0.007811,0.002534,-0.003390,0.001243,0.006228
"2019-03-26 11:20:21.187 +0000",1553599221.186793,-2.587539,-0.243509,0.559121,-0.510616,0.241110,0.825310,0.000000,0.000000,0.000000,-1,0.005227,-0.006602,-0.003673,-0.002064,0.000330,0.006492
"2019-03-26 11:20:21.209 +0000",1553599221.209070,-2.587697,-0.243384,0.559078,-0.510502,0.240989,0.825416,0.000000,0.000000,0.000000,-1,-0.003534,-0.002899,0.001251,-0.001507,0.001077,0.009163
"2019-03-26 11:20:21.231 +0000",1553599221.231377,-2.587745,-0.243401,0.559088,-0.510460,0.241004,0.825438,0.000000,0.000000,0.000000,-1,0.000229,-0.004128,0.001264,-0.004555,0.003686,0.011293
"2019-03-26 11:20:21.254 +0000",1553599221.253687,-2.587735,-0.243537,0.559083,-0.510451,0.241136,0.825405,0.000000,0.000000,0.000000,-1,0.006525,0.003276,0.006162,-0.004228,0.001097,0.004979
"2019-03-26 11:20:21.276 +0000",1553599221.275995,-2.587702,-0.243547,0.559058,-0.510477,0.241146,0.825386,0.000000,0.000000,0.000000,-1,0.005243,0.002021,-0.000031,-0.004018,0.001423,0.008736
"2019-03-26 11:20:21.298 +0000",1553599221.298303,-2.587647,-0.243649,0.559158,-0.510510,0.241246,0.825336,0.000000,0.000000,0.000000,-1,0.006497,0.000792,-0.000019,-0.005649,0.003322,0.011791
"2019-03-26 11:20:21.321 +0000",1553599221.320603,-2.587859,-0.243882,0.559173,-0.510305,0.241471,0.825397,0.000000,0.000000,0.000000,-1,0.005233,-0.004141,-0.002454,-0.001795,0.004027,0.005337
"2019-03-26 11:20:21.343 +0000",1553599221.342889,-2.588110,-0.243981,0.559086,-0.510085,0.241568,0.825505,0.000000,0.000000,0.000000,-1,0.000242,-0.001662,0.003725,0.001052,0.001062,0.005245
"2019-03-26 11:20:21.365 +0000",1553599221.365196,-2.588082,-0.244005,0.559043,-0.510105,0.241591,0.825486,0.000000,0.000000,0.000000,-1,-0.001024,0.004473,-0.000052,-0.003841,0.000322,0.008712
"2019-03-26 11:20:21.387 +0000",1553599221.387493,-2.588067,-0.244024,0.559023,-0.510116,0.241609,0.825474,0.000000,0.000000,0.000000,-1,0.002741,0.000790,0.001223,-0.004945,0.001311,0.007885
"2019-03-26 11:20:21.410 +0000",1553599221.409781,-2.588191,-0.244008,0.558968,-0.510015,0.241594,0.825540,0.000000,0.000000,0.000000,-1,0.002744,0.000792,0.002463,-0.001658,0.000731,0.005255
"2019-03-26 11:20:21.432 +0000",1553599221.432088,-2.588098,-0.244106,0.558944,-0.510080,0.241689,0.825473,0.000000,0.000000,0.000000,-1,0.005262,0.006949,0.003649,-0.001197,0.000834,0.007123
"2019-03-26 11:20:21.454 +0000",1553599221.454396,-2.587921,-0.244174,0.559006,-0.510217,0.241755,0.825369,0.000000,0.000000,0.000000,-1,0.002734,0.008159,-0.001325,-0.002051,0.000677,0.010157
"2019-03-26 11:20:21.477 +0000",1553599221.476705,-2.587851,-0.244181,0.559107,-0.510274,0.241761,0.825332,0.000000,0.000000,0.000000,-1,-0.001054,0.006900,-0.007516,-0.004436,0.003753,0.009294
"2019-03-26 11:20:21.499 +0000",1553599221.498981,-2.587904,-0.244318,0.559199,-0.510213,0.241895,0.825330,0.000000,0.000000,0.000000,-1,0.000208,0.005671,-0.006261,-0.002528,0.005420,0.006793
"2019-03-26 11:20:21.521 +0000",1553599221.521289,-2.587762,-0.244224,0.559350,-0.510342,0.241804,0.825277,0.000000,0.000000,0.000000,-1,0.000198,0.006891,-0.008753,-0.003589,0.001894,0.005152
"2019-03-26 11:20:21.544 +0000",1553599221.543610,-2.587724,-0.244059,0.559419,-0.510394,0.241644,0.825292,0.000000,0.000000,0.000000,-1,0.000214,0.001988,-0.003747,-0.004163,0.001734,0.007914
"2019-03-26 11:20:21.566 +0000",1553599221.565905,-2.587628,-0.243924,0.559385,-0.510491,0.241512,0.825270,0.000000,0.000000,0.000000,-1,-0.007300,0.004456,-0.001292,-0.005043,0.001423,0.006624
"2019-03-26 11:20:21.588 +0000",1553599221.588183,-2.587573,-0.243850,0.559314,-0.510545,0.241440,0.825258,0.000000,0.000000,0.000000,-1,-0.006027,0.002015,0.003693,-0.004897,0.000732,0.008910
"2019-03-26 11:20:21.610 +0000",1553599221.610490,-2.587714,-0.243767,0.559224,-0.510439,0.241360,0.825347,0.000000,0.000000,0.000000,-1,-0.001013,-0.000445,0.003717,-0.002180,0.000843,0.007753
"2019-03-26 11:20:21.633 +0000",1553599221.632800,-2.587909,-0.243572,0.559081,-0.510303,0.241171,0.825486,0.000000,0.000000,0.000000,-1,-0.002258,-0.004123,0.007469,-0.003781,-0.001501,0.006271
"2019-03-26 11:20:21.655 +0000",1553599221.655108,-2.587962,-0.243565,0.558971,-0.510260,0.241164,0.825515,0.000000,0.000000,0.000000,-1,-0.004764,0.000795,0.007424,-0.005395,-0.000853,0.008149
"2019-03-26 11:20:21.677 +0000",1553599221.677416,-2.587966,-0.243658,0.558854,-0.510246,0.241254,0.825497,0.000000,0.000000,0.000000,-1,0.004005,-0.000441,0.004957,-0.005990,-0.000898,0.007465
"2019-03-26 11:20:21.700 +0000",1553599221.699692,-2.587913,-0.243673,0.558798,-0.510287,0.241268,0.825468,0.000000,0.000000,0.000000,-1,0.005258,0.000792,0.004945,-0.006895,-0.000775,0.008486
"2019-03-26 11:20:21.722 +0000",1553599221.721999,-2.587827,-0.243633,0.558778,-0.510363,0.241230,0.825432,0.000000,0.000000,0.000000,-1,0.001474,-0.002912,0.001252,-0.007230,-0.000355,0.006462
"2019-03-26 11:20:21.744 +0000",1553599221.744309,-2.587895,-0.243778,0.558794,-0.510289,0.241370,0.825437,0.000000,0.000000,0.000000,-1,0.006496,-0.004135,0.002506,-0.005977,0.001367,0.004519
"2019-03-26 11:20:21.767 +0000",1553599221.766593,-2.588036,-0.244042,0.558873,-0.510139,0.241627,0.825454,0.000000,0.000000,0.000000,-1,0.005228,-0.007841,-0.001181,-0.002724,0.004207,0.008210
"2019-03-26 11:20:21.789 +0000",1553599221.788894,-2.588270,-0.244075,0.558916,-0.509941,0.241659,0.825567,0.000000,0.000000,0.000000,-1,0.001459,-0.002936,-0.003706,0.000252,0.003382,0.008280
"2019-03-26 11:20:21.811 +0000",1553599221.811202,-2.588224,-0.244029,0.558921,-0.509985,0.241614,0.825553,0.000000,0.000000,0.000000,-1,-0.002280,0.003233,0.001200,0.000463,0.000650,0.010064
"2019-03-26 11:20:21.834 +0000",1553599221.833509,-2.588157,-0.243938,0.558931,-0.510052,0.241526,0.825538,0.000000,0.000000,0.000000,-1,-0.007307,0.004451,-0.001294,0.000485,0.004309,0.008493
"2019-03-26 11:20:21.856 +0000",1553599221.855817,-2.588597,-0.243842,0.558801,-0.509701,0.241433,0.825781,0.000000,0.000000,0.000000,-1,-0.003556,0.003202,-0.003760,-0.001285,0.003776,0.010354
"2019-03-26 11:20:21.878 +0000",1553599221.878094,-2.588768,-0.243755,0.558727,-0.509571,0.241348,0.825887,0.000000,0.000000,0.000000,-1,-0.006057,0.005661,-0.002541,-0.001995,0.003067,0.009715
"2019-03-26 11:20:21.900 +0000",1553599221.900403,-2.588681,-0.243651,0.558704,-0.509655,0.241247,0.825864,0.000000,0.000000,0.000000,-1,-0.002284,0.005672,-0.000058,-0.003223,0.000269,0.008456
"2019-03-26 11:20:21.923 +0000",1553599221.922704,-2.588608,-0.243466,0.558653,-0.509739,0.241068,0.825864,0.000000,0.000000,0.000000,-1,0.003998,0.006917,0.003653,-0.002697,-0.001841,0.004961
"2019-03-26 11:20:21.945 +0000",1553599221.945019,-2.588395,-0.243343,0.558702,-0.509931,0.240949,0.825781,0.000000,0.000000,0.000000,-1,0.007741,0.005675,-0.000059,-0.004733,-0.000012,0.007151
"2019-03-26 11:20:21.967 +0000",1553599221.967297,-2.588287,-0.243449,0.558795,-0.510007,0.241051,0.825704,0.000000,0.000000,0.000000,-1,0.010250,0.005676,-0.000058,-0.007205,0.002662,0.009791
"2019-03-26 11:20:21.990 +0000",1553599221.989610,-2.588159,-0.243562,0.558839,-0.510098,0.241161,0.825616,0.000000,0.000000,0.000000,-1,0.007748,0.003226,0.002443,-0.004932,0.001072,0.007011
"2019-03-26 11:20:22.012 +0000",1553599222.011912,-2.588001,-0.243647,0.558810,-0.510217,0.241244,0.825518,0.000000,0.000000,0.000000,-1,0.002737,0.006920,0.003648,-0.005743,0.001783,0.008009
"2019-03-26 11:20:22.034 +0000",1553599222.034221,-2.587994,-0.243711,0.558768,-0.510215,0.241306,0.825501,0.000000,0.000000,0.000000,-1,0.000218,-0.001697,0.002483,-0.007348,0.004727,0.011184
"2019-03-26 11:20:22.056 +0000",1553599222.056499,-2.588197,-0.243686,0.558683,-0.510051,0.241281,0.825610,0.000000,0.000000,0.000000,-1,-0.001038,-0.012764,0.003821,-0.007802,0.005576,0.008085
"2019-03-26 11:20:22.079 +0000",1553599222.078805,-2.588448,-0.243958,0.558444,-0.509810,0.241545,0.825682,0.000000,0.000000,0.000000,-1,-0.006036,-0.005376,0.006237,-0.000872,0.001756,0.004610
"2019-03-26 11:20:22.101 +0000",1553599222.101113,-2.588624,-0.243952,0.558234,-0.509664,0.241540,0.825773,0.000000,0.000000,0.000000,-1,0.000227,-0.001693,0.003726,-0.004831,-0.000314,0.008807
"2019-03-26 11:20:22.123 +0000",1553599222.123422,-2.588682,-0.243991,0.558125,-0.509612,0.241577,0.825794,0.000000,0.000000,0.000000,-1,0.002737,0.000768,0.003705,-0.008088,0.001556,0.008740
"2019-03-26 11:20:22.146 +0000",1553599222.145729,-2.588684,-0.244016,0.558114,-0.509607,0.241601,0.825790,0.000000,0.000000,0.000000,-1,0.007747,0.000765,0.002466,-0.003408,0.000006,0.008057
"2019-03-26 11:20:22.168 +0000",1553599222.168007,-2.588872,-0.244078,0.558085,-0.509443,0.241662,0.825873,0.000000,0.000000,0.000000,-1,0.005234,0.004444,0.001192,-0.000460,0.001121,0.007165
"2019-03-26 11:20:22.190 +0000",1553599222.190314,-2.588635,-0.244176,0.558233,-0.509627,0.241757,0.825732,0.000000,0.000000,0.000000,-1,0.006457,0.009331,-0.007535,-0.001878,0.003986,0.009198
"2019-03-26 11:20:22.213 +0000",1553599222.212604,-2.588856,-0.244460,0.558239,-0.509408,0.242032,0.825787,0.000000,0.000000,0.000000,-1,-0.002327,0.010538,-0.010024,0.000070,0.007007,0.011387
"2019-03-26 11:20:22.235 +0000",1553599222.234926,-2.588822,-0.244472,0.558346,-0.509435,0.242044,0.825766,0.000000,0.000000,0.000000,-1,-0.007351,0.009292,-0.012493,-0.000468,0.007528,0.010034
"2019-03-26 11:20:22.257 +0000",1553599222.257208,-2.588548,-0.244225,0.558451,-0.509693,0.241804,0.825678,0.000000,0.000000,0.000000,-1,-0.006086,0.010532,-0.010022,-0.000744,0.006197,0.007605
"2019-03-26 11:20:22.280 +0000",1553599222.279517,-2.588296,-0.244042,0.558546,-0.509924,0.241626,0.825587,0.000000,0.000000,0.000000,-1,-0.004821,0.011772,-0.007552,0.000647,0.004406,0.009252
"2019-03-26 11:20:22.302 +0000",1553599222.301824,-2.588265,-0.243913,0.558569,-0.509966,0.241501,0.825598,0.000000,0.000000,0.000000,-1,-0.008579,0.011770,-0.006311,-0.002912,0.001754,0.008677
"2019-03-26 11:20:22.324 +0000",1553599222.324132,-2.588163,-0.243813,0.558472,-0.510063,0.241404,0.825566,0.000000,0.000000,0.000000,-1,-0.007306,0.008098,-0.001315,-0.004433,0.000432,0.008830
"2019-03-26 11:20:22.346 +0000",1553599222.346409,-2.587978,-0.243776,0.558433,-0.510221,0.241368,0.825479,0.000000,0.000000,0.000000,-1,-0.001029,0.009335,-0.000083,-0.006472,0.000483,0.006842
"2019-03-26 11:20:22.369 +0000",1553599222.368716,-2.587441,-0.243543,0.558496,-0.510693,0.241143,0.825253,0.000000,0.000000,0.000000,-1,0.001473,0.004424,-0.000043,-0.007175,-0.000527,0.006534
"2019-03-26 11:20:22.391 +0000",1553599222.391025,-2.586948,-0.243364,0.558591,-0.511123,0.240969,0.825038,0.000000,0.000000,0.000000,-1,0.004003,0.004458,0.006156,-0.008683,0.000532,0.006139
"2019-03-26 11:20:22.413 +0000",1553599222.413334,-2.586933,-0.243490,0.558555,-0.511119,0.241092,0.825004,0.000000,0.000000,0.000000,-1,0.005244,-0.000471,0.003720,-0.008534,0.000501,0.005943
"2019-03-26 11:20:22.436 +0000",1553599222.435620,-2.586787,-0.243527,0.558655,-0.511235,0.241127,0.824922,0.000000,0.000000,0.000000,-1,0.006476,-0.002947,-0.001222,-0.006419,0.001290,0.008665
"2019-03-26 11:20:22.458 +0000",1553599222.457919,-2.586864,-0.243654,0.558743,-0.511155,0.241250,0.824935,0.000000,0.000000,0.000000,-1,0.003963,-0.001723,-0.002474,-0.005202,0.003379,0.010148
"2019-03-26 11:20:22.480 +0000",1553599222.480226,-2.586827,-0.243611,0.558742,-0.511191,0.241208,0.824925,0.000000,0.000000,0.000000,-1,-0.001036,0.003209,0.001202,-0.004083,0.003649,0.010341
"2019-03-26 11:20:22.503 +0000",1553599222.502534,-2.586879,-0.243606,0.558772,-0.511149,0.241204,0.824953,0.000000,0.000000,0.000000,-1,0.000206,-0.000490,-0.001246,-0.004506,0.004585,0.009367
"2019-03-26 11:20:22.525 +0000",1553599222.524810,-2.587107,-0.243793,0.558743,-0.510937,0.241385,0.825031,0.000000,0.000000,0.000000,-1,-0.002300,-0.002955,-0.001222,-0.002552,0.005029,0.008083
"2019-03-26 11:20:22.547 +0000",1553599222.547113,-2.587362,-0.243728,0.558681,-0.510735,0.241323,0.825175,0.000000,0.000000,0.000000,-1,-0.003539,-0.001714,0.002489,-0.001136,0.002009,0.008733
"2019-03-26 11:20:22.569 +0000",1553599222.569430,-2.587683,-0.243684,0.558573,-0.510475,0.241279,0.825348,0.000000,0.000000,0.000000,-1,-0.001044,-0.002958,0.000020,-0.002312,0.001717,0.010895
"2019-03-26 11:20:22.592 +0000",1553599222.591735,-2.587730,-0.243606,0.558516,-0.510447,0.241204,0.825388,0.000000,0.000000,0.000000,-1,-0.004790,0.001974,0.003696,-0.004354,0.000831,0.009421
"2019-03-26 11:20:22.614 +0000",1553599222.614043,-2.587804,-0.243520,0.558438,-0.510396,0.241120,0.825444,0.000000,0.000000,0.000000,-1,-0.001024,0.001978,0.004938,-0.004252,0.001953,0.010051
"2019-03-26 11:20:22.636 +0000",1553599222.636320,-2.587745,-0.243504,0.558445,-0.510447,0.241105,0.825417,0.000000,0.000000,0.000000,-1,0.000210,0.001959,-0.000024,-0.003683,0.003570,0.005867
"2019-03-26 11:20:22.659 +0000",1553599222.658626,-2.587677,-0.243487,0.558494,-0.510506,0.241088,0.825385,0.000000,0.000000,0.000000,-1,0.003963,0.003181,-0.002514,-0.004417,0.002106,0.008554
"2019-03-26 11:20:22.681 +0000",1553599222.680936,-2.587560,-0.243441,0.558502,-0.510608,0.241043,0.825335,0.000000,0.000000,0.000000,-1,0.001468,0.001965,0.001217,-0.005551,0.001587,0.007994
"2019-03-26 11:20:22.703 +0000",1553599222.703245,-2.587533,-0.243343,0.558534,-0.510642,0.240949,0.825341,0.000000,0.000000,0.000000,-1,0.001447,0.003175,-0.003757,-0.005746,0.001529,0.008216
"2019-03-26 11:20:22.726 +0000",1553599222.725522,-2.587412,-0.243432,0.558601,-0.510731,0.241035,0.825261,0.000000,0.000000,0.000000,-1,0.006472,0.006873,-0.002547,-0.003002,0.001183,0.008281
"2019-03-26 11:20:22.748 +0000",1553599222.747830,-2.587466,-0.243393,0.558629,-0.510691,0.240997,0.825297,0.000000,0.000000,0.000000,-1,0.007733,0.009338,-0.000089,-0.003133,-0.000977,0.009969
"2019-03-26 11:20:22.770 +0000",1553599222.770138,-2.587351,-0.243467,0.558745,-0.510777,0.241069,0.825223,0.000000,0.000000,0.000000,-1,0.006465,0.005636,-0.002538,-0.003810,0.002263,0.009982
"2019-03-26 11:20:22.792 +0000",1553599222.792446,-2.587316,-0.243525,0.558766,-0.510799,0.241125,0.825193,0.000000,0.000000,0.000000,-1,0.001458,-0.001733,0.001247,-0.005147,0.002527,0.008761
"2019-03-26 11:20:22.815 +0000",1553599222.814723,-2.587312,-0.243527,0.558646,-0.510802,0.241127,0.825191,0.000000,0.000000,0.000000,-1,0.002728,0.000745,0.004946,-0.004625,-0.000038,0.007176
"2019-03-26 11:20:22.837 +0000",1553599222.837032,-2.587170,-0.243590,0.558475,-0.510911,0.241188,0.825105,0.000000,0.000000,0.000000,-1,-0.002288,-0.006627,0.006248,-0.007628,0.003624,0.005492
"2019-03-26 11:20:22.859 +0000",1553599222.859339,-2.587574,-0.243534,0.558235,-0.510584,0.241134,0.825323,0.000000,0.000000,0.000000,-1,-0.011080,-0.016476,0.005092,-0.008932,0.003998,0.010096
"2019-03-26 11:20:22.882 +0000",1553599222.881640,-2.588169,-0.243500,0.558058,-0.510097,0.241100,0.825634,0.000000,0.000000,0.000000,-1,-0.009842,-0.028787,0.002722,-0.001835,0.002643,0.005833
"2019-03-26 11:20:22.904 +0000",1553599222.903924,-2.588704,-0.243501,0.557831,-0.509655,0.241102,0.825906,0.000000,0.000000,0.000000,-1,-0.003535,-0.006626,0.007491,0.000393,0.002596,0.005362
"2019-03-26 11:20:22.926 +0000",1553599222.926231,-2.588979,-0.243453,0.557474,-0.509435,0.241056,0.826056,0.000000,0.000000,0.000000,-1,-0.006017,-0.001686,0.013649,-0.000194,-0.000684,0.011545
"2019-03-26 11:20:22.949 +0000",1553599222.948542,-2.589135,-0.243577,0.556950,-0.509290,0.241176,0.826110,0.000000,0.000000,0.000000,-1,-0.005966,-0.001638,0.026054,-0.002612,-0.003368,0.012986
"2019-03-26 11:20:22.971 +0000",1553599222.970849,-2.589274,-0.243295,0.556422,-0.509211,0.240902,0.826239,0.000000,0.000000,0.000000,-1,0.001517,-0.015186,0.019968,-0.010107,-0.003216,0.005884
"2019-03-26 11:20:22.993 +0000",1553599222.993126,-2.589393,-0.243578,0.556319,-0.509077,0.241176,0.826241,0.000000,0.000000,0.000000,-1,0.017785,-0.009061,0.009994,-0.010226,-0.000637,0.000449
"2019-03-26 11:20:23.015 +0000",1553599223.015433,-2.589462,-0.244072,0.556531,-0.508957,0.241656,0.826175,0.000000,0.000000,0.000000,-1,0.026527,0.001971,-0.001265,-0.006164,-0.004764,-0.000308
"2019-03-26 11:20:23.038 +0000",1553599223.037742,-2.589337,-0.244147,0.556891,-0.509051,0.241729,0.826096,0.000000,0.000000,0.000000,-1,0.025258,0.014253,-0.005100,-0.002057,0.000199,0.010788
"2019-03-26 11:20:23.060 +0000",1553599223.060049,-2.589617,-0.244742,0.557150,-0.508744,0.242306,0.826116,0.000000,0.000000,0.000000,-1,0.026503,0.005626,-0.006259,0.000977,0.004855,0.014811
"2019-03-26 11:20:23.082 +0000",1553599223.082357,-2.589381,-0.245025,0.557549,-0.508903,0.242581,0.825937,0.000000,0.000000,0.000000,-1,0.016458,0.004382,-0.008733,0.003425,0.007617,0.011526
"2019-03-26 11:20:23.105 +0000",1553599223.104650,-2.589815,-0.245779,0.557734,-0.508449,0.243312,0.826002,0.000000,0.000000,0.000000,-1,0.001392,0.009255,-0.016216,-0.000203,0.009862,0.010088
"2019-03-26 11:20:23.127 +0000",1553599223.126943,-2.589792,-0.245913,0.558040,-0.508451,0.243442,0.825963,0.000000,0.000000,0.000000,-1,-0.004908,0.009213,-0.024897,0.000470,0.012616,0.011287
"2019-03-26 11:20:23.149 +0000",1553599223.149251,-2.589784,-0.245970,0.558312,-0.508450,0.243497,0.825947,0.000000,0.000000,0.000000,-1,-0.004882,0.007997,-0.019918,-0.002262,0.011416,0.011532
"2019-03-26 11:20:23.172 +0000",1553599223.171548,-2.589549,-0.245587,0.558573,-0.508693,0.243126,0.825906,0.000000,0.000000,0.000000,-1,-0.008635,0.008005,-0.017439,0.003841,0.009682,0.011481
"2019-03-26 11:20:23.194 +0000",1553599223.193824,-2.590183,-0.245616,0.558516,-0.508165,0.243154,0.826223,0.000000,0.000000,0.000000,-1,-0.013644,0.010443,-0.017454,0.004763,0.009029,0.013255
"2019-03-26 11:20:23.216 +0000",1553599223.216132,-2.590391,-0.245299,0.558412,-0.508034,0.242847,0.826394,0.000000,0.000000,0.000000,-1,-0.024890,0.009238,-0.007519,0.001915,0.006619,0.011496
"2019-03-26 11:20:23.238 +0000",1553599223.238441,-2.590136,-0.244673,0.558218,-0.508324,0.242239,0.826394,0.000000,0.000000,0.000000,-1,-0.028655,0.015382,-0.008816,0.000847,0.004679,0.011420
"2019-03-26 11:20:23.261 +0000",1553599223.260748,-2.589716,-0.244212,0.558047,-0.508729,0.241791,0.826276,0.000000,0.000000,0.000000,-1,-0.023613,0.011721,-0.002579,-0.009062,0.003051,0.007175
"2019-03-26 11:20:23.283 +0000",1553599223.283025,-2.589118,-0.243727,0.557974,-0.509286,0.241321,0.826071,0.000000,0.000000,0.000000,-1,-0.016086,0.006817,-0.001295,-0.009437,-0.000156,0.004099
"2019-03-26 11:20:23.305 +0000",1553599223.305333,-2.589055,-0.243492,0.557800,-0.509367,0.241093,0.826087,0.000000,0.000000,0.000000,-1,-0.009791,0.004383,0.004932,-0.009737,-0.003147,0.004205
"2019-03-26 11:20:23.328 +0000",1553599223.327646,-2.588561,-0.242941,0.557790,-0.509844,0.240558,0.825948,0.000000,0.000000,0.000000,-1,-0.004807,0.003141,-0.001264,-0.009611,-0.002231,0.006388
"2019-03-26 11:20:23.350 +0000",1553599223.349949,-2.588246,-0.242652,0.557865,-0.510141,0.240278,0.825847,0.000000,0.000000,0.000000,-1,0.000197,0.005598,-0.003768,-0.008978,-0.003934,0.006703
"2019-03-26 11:20:23.372 +0000",1553599223.372227,-2.587853,-0.242402,0.558088,-0.510498,0.240035,0.825697,0.000000,0.000000,0.000000,-1,0.003934,0.010499,-0.010016,-0.009247,-0.003386,0.006014
"2019-03-26 11:20:23.395 +0000",1553599223.394534,-2.587651,-0.242411,0.558355,-0.510663,0.240044,0.825592,0.000000,0.000000,0.000000,-1,0.006429,0.004340,-0.012441,-0.005923,-0.000603,0.008011
"2019-03-26 11:20:23.417 +0000",1553599223.416842,-2.587319,-0.242293,0.558753,-0.510952,0.239930,0.825447,0.000000,0.000000,0.000000,-1,0.005152,0.001864,-0.017383,-0.005390,0.003341,0.006920
"2019-03-26 11:20:23.439 +0000",1553599223.439150,-2.587131,-0.242291,0.559061,-0.511108,0.239928,0.825351,0.000000,0.000000,0.000000,-1,0.003934,0.006813,-0.009983,-0.003983,0.001741,0.007215
"2019-03-26 11:20:23.461 +0000",1553599223.461427,-2.586864,-0.242220,0.559310,-0.511337,0.239858,0.825229,0.000000,0.000000,0.000000,-1,0.002692,0.010513,-0.007536,-0.001206,0.003016,0.006543
"2019-03-26 11:20:23.484 +0000",1553599223.483735,-2.587022,-0.242021,0.559367,-0.511231,0.239665,0.825350,0.000000,0.000000,0.000000,-1,-0.003584,0.009271,-0.007527,-0.003249,0.003148,0.014417
"2019-03-26 11:20:23.506 +0000",1553599223.506045,-2.587121,-0.241830,0.559352,-0.511174,0.239480,0.825440,0.000000,0.000000,0.000000,-1,-0.013637,0.000637,-0.011173,-0.005916,0.006416,0.013351
"2019-03-26 11:20:23.528 +0000",1553599223.528351,-2.587179,-0.241293,0.559253,-0.511194,0.238959,0.825578,0.000000,0.000000,0.000000,-1,-0.022403,-0.000583,-0.007444,-0.000525,0.010141,0.009871
"2019-03-26 11:20:23.551 +0000",1553599223.550649,-2.587306,-0.240877,0.559063,-0.511141,0.238555,0.825728,0.000000,0.000000,0.000000,-1,-0.013586,0.011747,-0.000107,-0.001691,-0.000533,0.007768
"2019-03-26 11:20:23.573 +0000",1553599223.572937,-2.587261,-0.240435,0.558866,-0.511234,0.238126,0.825794,0.000000,0.000000,0.000000,-1,-0.021127,0.006813,-0.002548,-0.004666,0.000079,0.009533
"2019-03-26 11:20:23.595 +0000",1553599223.595244,-2.587427,-0.239780,0.558465,-0.511178,0.237489,0.826012,0.000000,0.000000,0.000000,-1,-0.038683,0.001891,-0.000031,-0.003211,0.006011,0.012886
"2019-03-26 11:20:23.618 +0000",1553599223.617554,-2.587679,-0.238932,0.557832,-0.511076,0.236665,0.826311,0.000000,0.000000,0.000000,-1,-0.053722,-0.007937,0.005012,0.001082,0.013152,0.010206
"2019-03-26 11:20:23.640 +0000",1553599223.639860,-2.588652,-0.238601,0.556774,-0.510313,0.236344,0.826875,0.000000,0.000000,0.000000,-1,-0.062452,-0.011604,0.014974,0.000715,0.008438,0.007140
"2019-03-26 11:20:23.662 +0000",1553599223.662138,-2.589548,-0.237716,0.555391,-0.509681,0.235484,0.827510,0.000000,0.000000,0.000000,-1,-0.076201,-0.028781,0.028770,-0.004372,0.005102,0.007268
"2019-03-26 11:20:23.684 +0000",1553599223.684446,-2.590891,-0.236748,0.553866,-0.508689,0.234542,0.828387,0.000000,0.000000,0.000000,-1,-0.066132,-0.045955,0.040091,-0.012582,-0.001892,0.005017
"2019-03-26 11:20:23.707 +0000",1553599223.706755,-2.590883,-0.235682,0.552723,-0.508826,0.233506,0.828596,0.000000,0.000000,0.000000,-1,-0.044809,-0.040992,0.041284,-0.019189,-0.003525,0.000139
"2019-03-26 11:20:23.729 +0000",1553599223.729062,-2.590668,-0.234671,0.552111,-0.509127,0.232523,0.828687,0.000000,0.000000,0.000000,-1,-0.023593,-0.036129,0.016425,-0.018461,-0.006723,-0.000989
"2019-03-26 11:20:23.751 +0000",1553599223.751340,-2.591240,-0.234351,0.551912,-0.508692,0.232212,0.829042,0.000000,0.000000,0.000000,-1,-0.008619,-0.007921,-0.007389,-0.013418,-0.004078,0.004882
"2019-03-26 11:20:23.774 +0000",1553599223.773654,-2.591278,-0.233283,0.552224,-0.508790,0.231173,0.829272,0.000000,0.000000,0.000000,-1,0.017673,0.001895,-0.016161,-0.004607,-0.010927,0.007566
"2019-03-26 11:20:23.796 +0000",1553599223.795957,-2.591110,-0.233030,0.553142,-0.508960,0.230927,0.829236,0.000000,0.000000,0.000000,-1,0.046450,-0.010440,-0.028454,-0.005261,-0.016419,0.004107
"2019-03-26 11:20:23.818 +0000",1553599223.818264,-2.590849,-0.232808,0.554791,-0.509203,0.230711,0.829147,0.000000,0.000000,0.000000,-1,0.061382,-0.015442,-0.053225,-0.011182,-0.021666,-0.005111
"2019-03-26 11:20:23.841 +0000",1553599223.840540,-2.590586,-0.233362,0.556799,-0.509354,0.231250,0.828904,0.000000,0.000000,0.000000,-1,0.072608,-0.004434,-0.070686,-0.014282,-0.020175,-0.009431
"2019-03-26 11:20:23.863 +0000",1553599223.862849,-2.589313,-0.233813,0.559225,-0.510354,0.231689,0.828166,0.000000,0.000000,0.000000,-1,0.091455,0.009150,-0.063362,-0.010520,-0.001708,0.004781
"2019-03-26 11:20:23.885 +0000",1553599223.885156,-2.588323,-0.234940,0.561269,-0.511037,0.232785,0.827438,0.000000,0.000000,0.000000,-1,0.091593,0.030183,-0.032537,-0.000621,-0.005520,0.010361
"2019-03-26 11:20:23.907 +0000",1553599223.907465,-2.587200,-0.236314,0.562720,-0.511796,0.234121,0.826591,0.000000,0.000000,0.000000,-1,0.079135,0.036405,-0.012749,0.002015,-0.006811,0.014687
"2019-03-26 11:20:23.930 +0000",1553599223.929741,-2.587727,-0.237512,0.563109,-0.511213,0.235285,0.826621,0.000000,0.000000,0.000000,-1,0.052892,0.029083,0.013360,0.010663,0.004537,0.018594
"2019-03-26 11:20:23.952 +0000",1553599223.952050,-2.588868,-0.239471,0.562489,-0.510026,0.237188,0.826810,0.000000,0.000000,0.000000,-1,0.027963,0.026711,0.049360,0.014131,0.014307,0.018542
"2019-03-26 11:20:23.974 +0000",1553599223.974357,-2.588654,-0.240197,0.561459,-0.510113,0.237894,0.826554,0.000000,0.000000,0.000000,-1,-0.009631,0.013207,0.060629,0.011120,0.015737,0.011260
"2019-03-26 11:20:23.997 +0000",1553599223.996638,-2.589124,-0.242415,0.559616,-0.509446,0.240048,0.826342,0.000000,0.000000,0.000000,-1,-0.066000,-0.013837,0.072036,-0.009093,0.033466,0.011518
"2019-03-26 11:20:24.019 +0000",1553599224.018942,-2.590552,-0.242820,0.556937,-0.508215,0.240440,0.826986,0.000000,0.000000,0.000000,-1,-0.112360,-0.070378,0.087417,-0.015253,0.035972,0.007929
"2019-03-26 11:20:24.041 +0000",1553599224.041251,-2.593127,-0.242342,0.553695,-0.506143,0.239977,0.828390,0.000000,0.000000,0.000000,-1,-0.147502,-0.104852,0.081518,-0.011008,0.031996,-0.000616
"2019-03-26 11:20:24.064 +0000",1553599224.063558,-2.596418,-0.240270,0.550461,-0.503671,0.237965,0.830474,0.000000,0.000000,0.000000,-1,-0.155095,-0.114754,0.066716,-0.008597,0.026531,0.002442
"2019-03-26 11:20:24.086 +0000",1553599224.085868,-2.599361,-0.239775,0.547403,-0.501286,0.237484,0.832054,0.000000,0.000000,0.000000,-1,-0.146265,-0.108584,0.069164,-0.009808,0.021961,0.008904
"2019-03-26 11:20:24.108 +0000",1553599224.108145,-2.602125,-0.238816,0.544595,-0.499101,0.236552,0.833632,0.000000,0.000000,0.000000,-1,-0.091020,-0.092531,0.077732,-0.010314,0.000951,0.004396
"2019-03-26 11:20:24.130 +0000",1553599224.130452,-2.604107,-0.238506,0.542150,-0.497485,0.236251,0.834682,0.000000,0.000000,0.000000,-1,-0.053318,-0.037127,0.085940,-0.005826,-0.020858,0.005574
"2019-03-26 11:20:24.153 +0000",1553599224.152761,-2.604831,-0.237919,0.540143,-0.496951,0.235681,0.835161,0.000000,0.000000,0.000000,-1,0.000625,0.019469,0.084209,0.005984,-0.017999,0.017622
"2019-03-26 11:20:24.175 +0000",1553599224.175068,-2.604411,-0.239182,0.538720,-0.497149,0.236908,0.834696,0.000000,0.000000,0.000000,-1,0.024462,0.034236,0.082847,0.007754,-0.024200,0.016805
"2019-03-26 11:20:24.197 +0000",1553599224.197346,-2.603701,-0.240815,0.537601,-0.497543,0.238494,0.834010,0.000000,0.000000,0.000000,-1,0.044525,0.047761,0.079014,0.006240,-0.033233,0.003347
"2019-03-26 11:20:24.220 +0000",1553599224.219663,-2.602739,-0.241452,0.536881,-0.498267,0.239113,0.833400,0.000000,0.000000,0.000000,-1,0.069521,0.072291,0.058946,0.002967,-0.023232,-0.000361
"2019-03-26 11:20:24.242 +0000",1553599224.241961,-2.601008,-0.243534,0.536746,-0.499451,0.241134,0.832108,0.000000,0.000000,0.000000,-1,0.077009,0.083322,0.047687,-0.004440,-0.027266,0.002640
"2019-03-26 11:20:24.264 +0000",1553599224.264268,-2.599135,-0.244329,0.536803,-0.500910,0.241905,0.831006,0.000000,0.000000,0.000000,-1,0.078237,0.066115,0.050305,-0.009374,-0.021233,0.002154
"2019-03-26 11:20:24.287 +0000",1553599224.286578,-2.597718,-0.246308,0.536709,-0.501839,0.243825,0.829884,0.000000,0.000000,0.000000,-1,0.071965,0.066113,0.050303,-0.018074,-0.012532,0.004024
"2019-03-26 11:20:24.309 +0000",1553599224.308854,-2.594793,-0.248037,0.537080,-0.504043,0.245502,0.828052,0.000000,0.000000,0.000000,-1,0.060600,0.053776,0.033031,-0.022522,0.003766,0.006192
"2019-03-26 11:20:24.331 +0000",1553599224.331163,-2.592972,-0.249397,0.537660,-0.505376,0.246819,0.826847,0.000000,0.000000,0.000000,-1,0.042895,0.036429,-0.001557,-0.017451,0.015449,0.009671
