timestamp,timeIntervalSince1970,attitude.roll,attitude.pitch,attitude.yaw,gravity.x,gravity.y,gravity.z,magneticField.x,magneticField.y,magneticField.z,magneticField.accuracy,rotationRate.x,rotationRate.y,rotationRate.z,userAcceleration.x,userAcceleration.y,userAcceleration.z
"2019-10-06 13:58:45.635 +0000",1570370325.634624,0.139579,0.596267,-0.045594,0.115118,-0.561557,-0.819391,0.000000,0.000000,0.000000,-1,-0.571594,-0.811622,-0.258652,-0.222098,0.048984,-0.160086
"2019-10-06 13:58:45.657 +0000",1570370325.656928,0.130745,0.585769,-0.046568,0.108638,-0.552840,-0.826175,0.000000,0.000000,0.000000,-1,-0.431477,-0.228515,0.045382,-0.100123,0.040938,-0.037106
"2019-10-06 13:58:45.679 +0000",1570370325.679239,0.120462,0.574239,-0.038816,0.100896,-0.543196,-0.833521,0.000000,0.000000,0.000000,-1,-0.675191,-0.478569,0.304289,-0.071645,-0.063524,0.070429
"2019-10-06 13:58:45.702 +0000",1570370325.701548,0.091363,0.555143,-0.029156,0.077535,-0.527065,-0.846281,0.000000,0.000000,0.000000,-1,-1.024995,-1.300966,0.173739,-0.068746,-0.040456,0.150831
"2019-10-06 13:58:45.724 +0000",1570370325.723856,0.063866,0.528929,-0.028989,0.055101,-0.504609,-0.861588,0.000000,0.000000,0.000000,-1,-1.220779,-1.098264,-0.194103,-0.178301,0.031281,0.193207
"2019-10-06 13:58:45.746 +0000",1570370325.746165,0.045374,0.503282,-0.029835,0.039734,-0.482303,-0.875103,0.000000,0.000000,0.000000,-1,-0.932770,-0.501189,-0.103746,-0.190399,0.084888,-0.024723
"2019-10-06 13:58:45.768 +0000",1570370325.768472,0.040429,0.489170,-0.028946,0.035678,-0.469893,-0.882002,0.000000,0.000000,0.000000,-1,-0.480155,-0.052517,0.078547,-0.179065,0.129165,-0.057482
"2019-10-06 13:58:45.791 +0000",1570370325.790780,0.039047,0.478942,-0.024077,0.034644,-0.460841,-0.886806,0.000000,0.000000,0.000000,-1,-0.513350,0.000968,0.234366,-0.211936,0.052973,0.088772
"2019-10-06 13:58:45.813 +0000",1570370325.813088,0.030916,0.462308,-0.014457,0.027666,-0.446015,-0.894598,0.000000,0.000000,0.000000,-1,-0.961546,-0.252883,0.488257,-0.304323,0.007966,0.304113
"2019-10-06 13:58:45.835 +0000",1570370325.835395,0.019462,0.432024,0.002081,0.017673,-0.418710,-0.907948,0.000000,0.000000,0.000000,-1,-1.562791,-0.117112,0.671635,-0.174853,0.019570,0.415333
"2019-10-06 13:58:45.858 +0000",1570370325.857705,0.005931,0.398940,0.018588,0.005465,-0.388442,-0.921457,0.000000,0.000000,0.000000,-1,-1.343700,-0.545233,0.640794,-0.190692,0.103759,0.354715
"2019-10-06 13:58:45.880 +0000",1570370325.879998,-0.026305,0.377828,0.036449,-0.024447,-0.368902,-0.929147,0.000000,0.000000,0.000000,-1,-0.711375,-1.484066,0.831759,-0.290006,0.159979,0.475701
"2019-10-06 13:58:45.902 +0000",1570370325.902319,-0.070315,0.362507,0.056637,-0.065691,-0.354620,-0.932700,0.000000,0.000000,0.000000,-1,-0.756569,-1.595993,0.841417,-0.272581,0.150854,0.653663
"2019-10-06 13:58:45.925 +0000",1570370325.924627,-0.093859,0.333382,0.067596,-0.088561,-0.327240,-0.940782,0.000000,0.000000,0.000000,-1,-1.659445,-0.387635,0.392393,-0.250306,0.135026,0.810365
"2019-10-06 13:58:45.947 +0000",1570370325.946920,-0.104280,0.279377,0.069745,-0.100055,-0.275757,-0.956006,0.000000,0.000000,0.000000,-1,-2.764785,-0.848129,0.405931,-0.253720,0.266174,0.194135
"2019-10-06 13:58:45.969 +0000",1570370325.969223,-0.141336,0.217439,0.080081,-0.137549,-0.215730,-0.966717,0.000000,0.000000,0.000000,-1,-2.454266,-1.840701,1.051273,-0.109857,0.478959,0.002514
"2019-10-06 13:58:45.992 +0000",1570370325.991552,-0.189325,0.176939,0.108128,-0.185258,-0.176017,-0.966798,0.000000,0.000000,0.000000,-1,-1.031598,-1.927240,1.739910,0.004411,0.556068,-0.066848
"2019-10-06 13:58:46.014 +0000",1570370326.013860,-0.244127,0.161193,0.150572,-0.238576,-0.160496,-0.957770,0.000000,0.000000,0.000000,-1,0.118559,-2.315347,2.093680,0.167531,0.561024,0.121039
"2019-10-06 13:58:46.036 +0000",1570370326.036137,-0.327582,0.159294,0.205380,-0.317681,-0.158622,-0.934836,0.000000,0.000000,0.000000,-1,0.820181,-4.236116,2.525372,0.140710,0.574073,0.415732
"2019-10-06 13:58:46.058 +0000",1570370326.058443,-0.476072,0.154910,0.272338,-0.452804,-0.154291,-0.878159,0.000000,0.000000,0.000000,-1,0.994318,-7.468229,3.015618,0.332839,0.579950,0.278901
"2019-10-06 13:58:46.081 +0000",1570370326.080756,-0.694297,0.133538,0.353421,-0.634149,-0.133142,-0.761662,0.000000,0.000000,0.000000,-1,1.410135,-9.918839,3.889801,0.427667,0.707345,-0.060253
"2019-10-06 13:58:46.103 +0000",1570370326.103059,-0.894304,0.086840,0.449432,-0.776836,-0.086730,-0.623702,0.000000,0.000000,0.000000,-1,1.624167,-6.874273,4.803197,-0.247289,0.571609,-0.020219
"2019-10-06 13:58:46.125 +0000",1570370326.125367,-0.984253,0.012303,0.537739,-0.832796,-0.012303,-0.553444,0.000000,0.000000,0.000000,-1,0.987226,-2.334398,5.028101,-0.299605,0.391636,-0.144493
"2019-10-06 13:58:46.148 +0000",1570370326.147677,-1.025615,-0.067615,0.605590,-0.853079,0.067564,-0.517388,0.000000,0.000000,0.000000,-1,0.565427,-2.272117,4.319019,-0.538278,0.285403,-0.436179
"2019-10-06 13:58:46.170 +0000",1570370326.169978,-1.097867,-0.123639,0.673061,-0.883442,0.123325,-0.452019,0.000000,0.000000,0.000000,-1,2.107956,-4.081212,3.314773,-0.780224,-0.114001,-0.932014
"2019-10-06 13:58:46.192 +0000",1570370326.192293,-1.170495,-0.157289,0.762682,-0.909575,0.156641,-0.384885,0.000000,0.000000,0.000000,-1,3.275772,-3.485649,2.911773,-0.672181,-0.145822,-0.835330
"2019-10-06 13:58:46.215 +0000",1570370326.214601,-1.218733,-0.182639,0.859896,-0.923051,0.181625,-0.339100,0.000000,0.000000,0.000000,-1,3.791235,-2.619992,2.440348,-0.494597,-0.216369,-0.624432
"2019-10-06 13:58:46.237 +0000",1570370326.236908,-1.256460,-0.198452,0.963517,-0.932337,0.197152,-0.303117,0.000000,0.000000,0.000000,-1,4.161854,-2.582316,1.962564,-0.678320,-0.394127,-0.477706
"2019-10-06 13:58:46.259 +0000",1570370326.259216,-1.282006,-0.204874,1.055325,-0.938542,0.203444,-0.278837,0.000000,0.000000,0.000000,-1,3.376520,-1.430764,1.125806,-0.769192,-0.605879,0.275389
"2019-10-06 13:58:46.282 +0000",1570370326.281525,-1.284959,-0.200172,1.115383,-0.940268,0.198838,-0.276331,0.000000,0.000000,0.000000,-1,2.148084,-0.363296,0.225096,-0.605981,-0.539811,0.492960
"2019-10-06 13:58:46.304 +0000",1570370326.303832,-1.284549,-0.189408,1.154153,-0.942154,0.188278,-0.277305,0.000000,0.000000,0.000000,-1,1.718347,-0.467455,0.058363,0.254944,-0.186813,-0.016991
"2019-10-06 13:58:46.326 +0000",1570370326.326140,-1.305217,-0.188212,1.203497,-0.947900,0.187103,-0.257833,0.000000,0.000000,0.000000,-1,2.408092,-2.000393,0.895985,0.377801,-0.132156,-0.067973
"2019-10-06 13:58:46.348 +0000",1570370326.348449,-1.358195,-0.201899,1.270789,-0.957630,0.200530,-0.206717,0.000000,0.000000,0.000000,-1,2.795549,-3.324417,1.392956,0.161594,-0.071288,0.092078
"2019-10-06 13:58:46.371 +0000",1570370326.370757,-1.415098,-0.209785,1.330007,-0.966244,0.208250,-0.151670,0.000000,0.000000,0.000000,-1,2.182108,-2.770173,0.360605,-0.331821,-0.082807,0.384565
"2019-10-06 13:58:46.393 +0000",1570370326.393058,-1.451900,-0.199957,1.355806,-0.973156,0.198627,-0.116253,0.000000,0.000000,0.000000,-1,0.535159,-1.157862,-0.524031,0.054912,0.237316,0.833126
"2019-10-06 13:58:46.415 +0000",1570370326.415371,-1.447060,-0.189641,1.347616,-0.974563,0.188507,-0.121208,0.000000,0.000000,0.000000,-1,-0.633055,0.934760,-0.363229,0.283066,0.289231,0.478188
"2019-10-06 13:58:46.438 +0000",1570370326.437681,-1.435567,-0.200703,1.335434,-0.970980,0.199359,-0.132111,0.000000,0.000000,0.000000,-1,-0.475205,0.134163,0.953957,0.709445,0.345105,-0.122650
"2019-10-06 13:58:46.460 +0000",1570370326.459974,-1.457277,-0.239466,1.345055,-0.965212,0.237184,-0.110044,0.000000,0.000000,0.000000,-1,0.703166,-1.488933,2.282602,0.219957,0.518294,-0.311389
"2019-10-06 13:58:46.482 +0000",1570370326.482297,-1.477610,-0.296996,1.378652,-0.952071,0.292649,-0.088977,0.000000,0.000000,0.000000,-1,1.246000,-1.280079,2.789602,-0.131440,0.417068,-0.200848
"2019-10-06 13:58:46.505 +0000",1570370326.504604,-1.498172,-0.345667,1.409816,-0.938369,0.338825,-0.068268,0.000000,0.000000,0.000000,-1,1.107811,-1.317093,1.821010,-0.679184,0.119534,-0.021972
"2019-10-06 13:58:46.527 +0000",1570370326.526913,-1.517018,-0.367636,1.438767,-0.931830,0.359411,-0.050161,0.000000,0.000000,0.000000,-1,1.130986,-1.326186,0.738108,-0.527505,0.112086,0.006231
"2019-10-06 13:58:46.549 +0000",1570370326.549219,-1.553486,-0.374610,1.457497,-0.930511,0.365910,-0.016109,0.000000,0.000000,0.000000,-1,0.507520,-1.894383,0.204490,0.014663,-0.014759,0.219097
"2019-10-06 13:58:46.572 +0000",1570370326.571528,-1.543069,-0.391093,1.466220,-0.924138,0.381199,-0.025630,0.000000,0.000000,0.000000,-1,0.214679,1.103140,1.096997,0.574574,0.551693,-0.066716
"2019-10-06 13:58:46.594 +0000",1570370326.593835,-1.539214,-0.423409,1.470722,-0.911239,0.410870,-0.028789,0.000000,0.000000,0.000000,-1,0.285441,-0.776025,1.540455,0.296356,0.620990,-0.183705
"2019-10-06 13:58:46.616 +0000",1570370326.616144,-1.561189,-0.445330,1.498785,-0.902427,0.430756,-0.008671,0.000000,0.000000,0.000000,-1,1.680257,-1.718202,0.463942,-0.307290,0.036392,0.021671
"2019-10-06 13:58:46.638 +0000",1570370326.638421,-1.584359,-0.428047,1.553032,-0.909694,0.415095,0.012339,0.000000,0.000000,0.000000,-1,2.283128,-2.313152,-1.397532,-0.092930,-0.035868,0.099111
"2019-10-06 13:58:46.661 +0000",1570370326.660729,-1.629495,-0.392372,1.606888,-0.922413,0.382381,0.054207,0.000000,0.000000,0.000000,-1,1.976907,-3.359536,-1.528215,0.193013,0.064198,-0.143700
"2019-10-06 13:58:46.683 +0000",1570370326.683045,-1.681475,-0.382512,1.646166,-0.922053,0.373252,0.102470,0.000000,0.000000,0.000000,-1,1.394224,-1.973988,0.229488,0.214641,-0.164650,-0.102134
"2019-10-06 13:58:46.705 +0000",1570370326.705345,-1.675516,-0.407279,1.671173,-0.913172,0.396112,0.095978,0.000000,0.000000,0.000000,-1,1.020653,0.350614,1.124213,0.094019,-0.291544,-0.086228
"2019-10-06 13:58:46.728 +0000",1570370326.727652,-1.666196,-0.433556,1.691393,-0.903351,0.420101,0.086442,0.000000,0.000000,0.000000,-1,0.895425,-0.031573,1.239200,0.160355,-0.419445,-0.012406
"2019-10-06 13:58:46.750 +0000",1570370326.749961,-1.637882,-0.475378,1.708575,-0.887120,0.457675,0.059602,0.000000,0.000000,0.000000,-1,0.776797,1.541107,2.029060,0.408253,-0.200229,0.002699
"2019-10-06 13:58:46.772 +0000",1570370326.772270,-1.600315,-0.515248,1.717886,-0.869792,0.492750,0.025682,0.000000,0.000000,0.000000,-1,0.251843,1.261259,1.612017,0.439845,0.373949,0.078795
"2019-10-06 13:58:46.795 +0000",1570370326.794576,-1.597123,-0.555182,1.709593,-0.849510,0.527098,0.022370,0.000000,0.000000,0.000000,-1,-1.060299,0.628641,2.310533,0.404976,0.115084,0.280624
"2019-10-06 13:58:46.817 +0000",1570370326.816902,-1.609377,-0.608156,1.629563,-0.820092,0.571355,0.031656,0.000000,0.000000,0.000000,-1,-3.376762,0.877561,2.038133,0.358682,0.701869,0.315162
"2019-10-06 13:58:46.839 +0000",1570370326.839182,-1.677056,-0.630912,1.551610,-0.802935,0.589882,0.085643,0.000000,0.000000,0.000000,-1,-2.541202,-1.441560,1.237839,0.344104,0.029213,-0.170604
"2019-10-06 13:58:46.862 +0000",1570370326.861501,-1.742659,-0.696848,1.476627,-0.755571,0.641804,0.131148,0.000000,0.000000,0.000000,-1,-1.757684,-0.237382,4.617884,0.107775,-0.048649,-0.195372
"2019-10-06 13:58:46.884 +0000",1570370326.883810,-1.730575,-0.810508,1.437599,-0.680353,0.724637,0.109641,0.000000,0.000000,0.000000,-1,0.147432,2.447988,5.649288,-0.184820,-0.389188,-0.070029
"2019-10-06 13:58:46.906 +0000",1570370326.906111,-1.689172,-0.945041,1.431921,-0.581611,0.810521,0.069172,0.000000,0.000000,0.000000,-1,0.806416,1.569662,6.215610,0.308311,-0.032048,-0.287846
"2019-10-06 13:58:46.928 +0000",1570370326.928437,-1.668353,-1.075250,1.454359,-0.473251,0.879709,0.046316,0.000000,0.000000,0.000000,-1,1.159389,-1.335706,5.288816,0.411956,-0.198008,-0.246297
"2019-10-06 13:58:46.951 +0000",1570370326.950734,-1.702532,-1.179017,1.441459,-0.378525,0.924231,0.050156,0.000000,0.000000,0.000000,-1,-0.278093,-0.260503,4.184500,0.365296,0.836801,-0.106430
"2019-10-06 13:58:46.973 +0000",1570370326.973023,-1.800892,-1.251004,1.352276,-0.306084,0.949301,0.071698,0.000000,0.000000,0.000000,-1,-0.795754,-1.382553,2.928886,-0.729225,0.678034,-0.373975
"2019-10-06 13:58:46.995 +0000",1570370326.995345,-1.880688,-1.287195,1.327013,-0.266486,0.960054,0.085331,0.000000,0.000000,0.000000,-1,0.559617,-2.721005,0.858480,-0.774010,0.393935,-0.298832
"2019-10-06 13:58:47.018 +0000",1570370327.017659,-1.892844,-1.286916,1.361581,-0.265684,0.959976,0.088649,0.000000,0.000000,0.000000,-1,0.118753,-1.486079,-0.724436,-0.238100,0.141632,-0.014064
"2019-10-06 13:58:47.040 +0000",1570370327.039967,-1.897197,-1.249636,1.381752,-0.299002,0.948870,0.101214,0.000000,0.000000,0.000000,-1,-0.433682,-0.811724,-2.196978,0.089087,-0.001635,-0.046756
"2019-10-06 13:58:47.062 +0000",1570370327.062275,-1.911464,-1.196614,1.415268,-0.344506,0.930807,0.122123,0.000000,0.000000,0.000000,-1,-0.140501,-5.059264,-2.180237,0.405144,-0.055425,-0.557365
"2019-10-06 13:58:47.085 +0000",1570370327.084583,-2.045793,-1.177765,1.449974,-0.340591,0.923752,0.175155,0.000000,0.000000,0.000000,-1,0.945822,-6.970607,-0.305716,0.955978,0.569198,-0.368606
"2019-10-06 13:58:47.107 +0000",1570370327.106890,-2.115591,-1.218462,1.522694,-0.295132,0.938570,0.178840,0.000000,0.000000,0.000000,-1,2.168398,-5.455014,1.800198,0.863416,0.102522,0.215478
"2019-10-06 13:58:47.129 +0000",1570370327.129197,-2.250193,-1.288622,1.469830,-0.216617,0.960452,0.174953,0.000000,0.000000,0.000000,-1,0.450963,-2.811906,3.451971,0.217791,0.304593,0.750202
"2019-10-06 13:58:47.152 +0000",1570370327.151506,-2.486402,-1.317300,1.246179,-0.152809,0.968041,0.198859,0.000000,0.000000,0.000000,-1,-1.518003,0.428310,2.071417,-0.066933,0.106131,0.199242
"2019-10-06 13:58:47.174 +0000",1570370327.173815,-2.538125,-1.298893,1.140866,-0.152411,0.963261,0.221130,0.000000,0.000000,0.000000,-1,-0.847806,2.972781,-0.418318,-0.134713,-0.405049,-0.220336
"2019-10-06 13:58:47.196 +0000",1570370327.196103,-2.394781,-1.306274,1.232802,-0.177603,0.965217,0.191866,0.000000,0.000000,0.000000,-1,1.907977,1.858904,-0.234815,0.486029,0.107475,-0.738940
"2019-10-06 13:58:47.218 +0000",1570370327.218431,-2.313667,-1.351558,1.314784,-0.160185,0.976063,0.147109,0.000000,0.000000,0.000000,-1,1.645031,-1.468718,1.055000,0.256773,0.445751,-0.375365
"2019-10-06 13:58:47.241 +0000",1570370327.240737,-2.378377,-1.367253,1.332856,-0.139730,0.979356,0.146071,0.000000,0.000000,0.000000,-1,0.146135,-4.383904,0.018332,0.008931,0.660094,0.215364
"2019-10-06 13:58:47.263 +0000",1570370327.263015,-2.489815,-1.379404,1.296867,-0.115391,0.981740,0.151230,0.000000,0.000000,0.000000,-1,0.318744,-2.342542,1.093202,0.319218,-0.068792,0.459640
"2019-10-06 13:58:47.285 +0000",1570370327.285346,-2.603695,-1.391822,1.192361,-0.091205,0.984027,0.152881,0.000000,0.000000,0.000000,-1,-0.250558,0.414787,0.979164,0.100940,0.244992,0.337750
"2019-10-06 13:58:47.308 +0000",1570370327.307631,-2.682788,-1.395267,1.076284,-0.077339,0.984634,0.156569,0.000000,0.000000,0.000000,-1,-0.174791,2.385958,0.771896,0.033699,0.126282,0.111604
"2019-10-06 13:58:47.330 +0000",1570370327.329940,-2.663937,-1.411926,1.004355,-0.072726,0.987407,0.140496,0.000000,0.000000,0.000000,-1,0.736988,4.853456,0.940187,0.416521,-0.092143,-0.042458
"2019-10-06 13:58:47.352 +0000",1570370327.352248,-2.637076,-1.431289,0.929192,-0.067217,0.990285,0.121730,0.000000,0.000000,0.000000,-1,0.200606,3.690794,0.637661,0.239885,-0.148015,-0.188746
"2019-10-06 13:58:47.375 +0000",1570370327.374567,-2.775494,-1.418110,0.770492,-0.054446,0.988366,0.142015,0.000000,0.000000,0.000000,-1,-1.732713,-0.932674,0.708888,0.101245,0.258002,-0.287614
"2019-10-06 13:58:47.397 +0000",1570370327.396863,-2.963063,-1.373655,0.642885,-0.034783,0.980630,0.192754,0.000000,0.000000,0.000000,-1,-2.038346,-3.420493,0.309056,0.070061,0.363013,-0.518514
"2019-10-06 13:58:47.419 +0000",1570370327.419189,-3.060583,-1.358025,0.611287,-0.017088,0.977449,0.210477,0.000000,0.000000,0.000000,-1,0.082922,-2.132258,-0.174116,-0.063906,0.010801,-0.317670
"2019-10-06 13:58:47.441 +0000",1570370327.441478,-2.951702,-1.374822,0.730601,-0.036754,0.980858,0.191223,0.000000,0.000000,0.000000,-1,1.220480,0.546948,-1.272960,0.016430,-0.094826,-0.200668
"2019-10-06 13:58:47.464 +0000",1570370327.463788,-2.705556,-1.393625,0.944550,-0.074438,0.984346,0.159755,0.000000,0.000000,0.000000,-1,1.299841,2.162676,-1.462184,0.053014,-0.275789,0.006169
"2019-10-06 13:58:47.486 +0000",1570370327.486104,-2.454322,-1.400937,1.143203,-0.107246,0.985609,0.130667,0.000000,0.000000,0.000000,-1,1.031688,2.349605,-0.810193,0.036201,-0.141294,0.065103
"2019-10-06 13:58:47.508 +0000",1570370327.508403,-2.319526,-1.413347,1.251368,-0.114864,0.987630,0.106735,0.000000,0.000000,0.000000,-1,0.846181,0.638307,0.126640,0.044399,-0.086629,0.022248
"2019-10-06 13:58:47.531 +0000",1570370327.530710,-2.272310,-1.428900,1.297926,-0.108027,0.989950,0.091270,0.000000,0.000000,0.000000,-1,0.601867,-0.272482,0.349234,0.017771,0.010478,-0.087440
"2019-10-06 13:58:47.553 +0000",1570370327.553020,-2.275314,-1.438656,1.317942,-0.100388,0.991282,0.085334,0.000000,0.000000,0.000000,-1,0.236649,-1.456658,0.190875,0.009659,0.159414,-0.100928
"2019-10-06 13:58:47.575 +0000",1570370327.575327,-2.315669,-1.442252,1.318082,-0.094243,0.991750,0.086898,0.000000,0.000000,0.000000,-1,0.089243,-1.883919,0.104046,0.108586,0.078624,-0.089507
"2019-10-06 13:58:47.598 +0000",1570370327.597634,-2.324635,-1.447103,1.341879,-0.089951,0.992360,0.084446,0.000000,0.000000,0.000000,-1,0.375339,-1.068635,-0.007274,0.084290,0.040431,-0.120594
"2019-10-06 13:58:47.620 +0000",1570370327.619943,-2.202902,-1.447671,1.472104,-0.099085,0.992430,0.072564,0.000000,0.000000,0.000000,-1,0.649056,0.022259,-0.740076,-0.066534,0.010653,-0.178903
"2019-10-06 13:58:47.642 +0000",1570370327.642251,-2.027065,-1.437194,1.644604,-0.119579,0.991088,0.058691,0.000000,0.000000,0.000000,-1,0.516957,0.304583,-0.884060,0.033046,0.099701,-0.188802
"2019-10-06 13:58:47.665 +0000",1570370327.664568,-1.980009,-1.424772,1.684761,-0.133492,0.989357,0.057895,0.000000,0.000000,0.000000,-1,-0.471679,0.218551,-0.405630,0.082436,0.127113,-0.044025
"2019-10-06 13:58:47.687 +0000",1570370327.686868,-2.143399,-1.406864,1.518745,-0.137168,0.986593,0.088425,0.000000,0.000000,0.000000,-1,-1.845405,0.013651,-0.116594,0.112647,0.137751,0.080856
"2019-10-06 13:58:47.709 +0000",1570370327.709173,-2.344643,-1.372257,1.308073,-0.141069,0.980356,0.137847,0.000000,0.000000,0.000000,-1,-2.491401,0.533389,-0.205841,0.095323,-0.059320,0.005555
"2019-10-06 13:58:47.731 +0000",1570370327.731482,-2.464421,-1.321666,1.165127,-0.154493,0.969127,0.192157,0.000000,0.000000,0.000000,-1,-2.657078,0.989354,-0.615616,0.117903,-0.113903,-0.036716
"2019-10-06 13:58:47.754 +0000",1570370327.753791,-2.499524,-1.267710,1.102416,-0.178738,0.954420,0.239030,0.000000,0.000000,0.000000,-1,-2.094014,1.251357,-1.001027,0.123760,-0.345060,-0.149949
"2019-10-06 13:58:47.776 +0000",1570370327.776079,-2.451407,-1.229572,1.111323,-0.213059,0.942346,0.258051,0.000000,0.000000,0.000000,-1,-0.798596,2.029783,-1.210831,0.207581,-0.685128,-0.280222
"2019-10-06 13:58:47.798 +0000",1570370327.798402,-2.400779,-1.205070,1.138448,-0.241359,0.933864,0.263901,0.000000,0.000000,0.000000,-1,-0.534976,0.253670,-0.861246,0.291286,-0.783199,-0.064011
"2019-10-06 13:58:47.821 +0000",1570370327.820715,-2.425046,-1.183744,1.129686,-0.247910,0.926026,0.284635,0.000000,0.000000,0.000000,-1,-1.009191,-0.993209,-0.361608,0.270966,-0.590882,0.018939
"2019-10-06 13:58:47.843 +0000",1570370327.843023,-2.473376,-1.162043,1.097443,-0.246265,0.917617,0.311982,0.000000,0.000000,0.000000,-1,-1.040445,-0.628045,-0.089463,0.117084,-0.173766,0.047073
"2019-10-06 13:58:47.865 +0000",1570370327.865332,-2.515049,-1.148185,1.058717,-0.240487,0.912021,0.332240,0.000000,0.000000,0.000000,-1,-0.935449,-0.207993,0.364613,0.109460,0.384427,-0.121303
"2019-10-06 13:58:47.888 +0000",1570370327.887607,-2.581549,-1.136076,0.995724,-0.223728,0.906988,0.356818,0.000000,0.000000,0.000000,-1,-1.140773,-0.502799,0.817459,0.097019,0.854487,0.007532
"2019-10-06 13:58:47.910 +0000",1570370327.909915,-2.633305,-1.128260,0.951574,-0.208413,0.903668,0.374095,0.000000,0.000000,0.000000,-1,-0.314015,-0.471496,0.232000,-0.001899,1.237292,0.261281
"2019-10-06 13:58:47.932 +0000",1570370327.932224,-2.631530,-1.140225,0.960421,-0.203784,0.908727,0.364262,0.000000,0.000000,0.000000,-1,1.011690,-0.292811,0.167714,0.082415,0.794840,-0.176900
"2019-10-06 13:58:47.955 +0000",1570370327.954531,-2.620841,-1.173072,0.991632,-0.192705,0.921945,0.335980,0.000000,0.000000,0.000000,-1,1.805392,-1.066024,0.224540,0.014818,1.025443,0.005222
"2019-10-06 13:58:47.977 +0000",1570370327.976840,-2.574844,-1.210632,1.061480,-0.189216,0.935839,0.297326,0.000000,0.000000,0.000000,-1,2.173306,-0.506058,-0.389379,-0.290048,1.653272,0.253730
"2019-10-06 13:58:47.999 +0000",1570370327.999160,-2.469161,-1.242388,1.174250,-0.200905,0.946557,0.252324,0.000000,0.000000,0.000000,-1,2.017828,0.047145,-0.467548,-0.168800,1.322334,-0.025914
"2019-10-06 13:58:48.021 +0000",1570370328.021456,-2.417900,-1.269154,1.242895,-0.196719,0.954850,0.222629,0.000000,0.000000,0.000000,-1,1.264685,-1.038056,0.199249,0.195133,0.742446,-0.009799
"2019-10-06 13:58:48.044 +0000",1570370328.043764,-2.412110,-1.290730,1.281438,-0.184229,0.961037,0.206076,0.000000,0.000000,0.000000,-1,0.955136,-1.463284,0.338110,0.284586,0.441902,-0.016791
"2019-10-06 13:58:48.066 +0000",1570370328.066072,-2.426725,-1.309814,1.293510,-0.169143,0.966137,0.194859,0.000000,0.000000,0.000000,-1,0.597502,-0.930074,0.520546,0.309768,-0.074078,-0.064717
"2019-10-06 13:58:48.088 +0000",1570370328.088381,-2.451013,-1.325517,1.275266,-0.154678,0.970069,0.187190,0.000000,0.000000,0.000000,-1,0.294022,0.131990,0.667296,0.213332,-0.640663,-0.179164
"2019-10-06 13:58:48.111 +0000",1570370328.110687,-2.490876,-1.335564,1.218151,-0.141183,0.972460,0.185441,0.000000,0.000000,0.000000,-1,-0.285627,0.951550,0.802435,0.194314,-0.892031,-0.138231
"2019-10-06 13:58:48.133 +0000",1570370328.132996,-2.569842,-1.331736,1.111477,-0.128128,0.971561,0.199129,0.000000,0.000000,0.000000,-1,-1.050744,1.108618,0.784586,0.178207,-1.083774,-0.084704
"2019-10-06 13:58:48.155 +0000",1570370328.155304,-2.652945,-1.316433,1.010823,-0.118123,0.967824,0.222181,0.000000,0.000000,0.000000,-1,-1.093997,0.246289,0.473404,0.087041,-1.152180,-0.245451
"2019-10-06 13:58:48.178 +0000",1570370328.177612,-2.700289,-1.305779,0.970097,-0.111874,0.965088,0.236832,0.000000,0.000000,0.000000,-1,-0.320002,-0.608874,0.017364,0.054317,-1.153122,-0.307862
"2019-10-06 13:58:48.200 +0000",1570370328.199919,-2.688559,-1.304601,0.998675,-0.115141,0.964779,0.236526,0.000000,0.000000,0.000000,-1,0.264855,-0.661092,-0.507911,0.014571,-1.119747,-0.226943
"2019-10-06 13:58:48.222 +0000",1570370328.222220,-2.637889,-1.303514,1.060930,-0.127479,0.964492,0.231309,0.000000,0.000000,0.000000,-1,0.261676,-0.268333,-0.738418,0.006401,-1.022933,-0.183671
"2019-10-06 13:58:48.245 +0000",1570370328.244535,-2.578544,-1.297380,1.122041,-0.144129,0.962854,0.228339,0.000000,0.000000,0.000000,-1,0.054878,0.164474,-0.769640,0.032007,-0.972955,-0.239203
"2019-10-06 13:58:48.267 +0000",1570370328.266843,-2.531169,-1.286431,1.166595,-0.160814,0.959840,0.229883,0.000000,0.000000,0.000000,-1,-0.193217,0.168308,-0.705272,0.059771,-0.952867,-0.255105
"2019-10-06 13:58:48.289 +0000",1570370328.289150,-2.508344,-1.271682,1.188818,-0.174379,0.955598,0.237540,0.000000,0.000000,0.000000,-1,-0.493748,0.030978,-0.556557,0.130784,-0.909974,-0.178397
"2019-10-06 13:58:48.311 +0000",1570370328.311459,-2.513176,-1.252413,1.183865,-0.184020,0.949743,0.253230,0.000000,0.000000,0.000000,-1,-0.909569,-0.084168,-0.384518,0.237731,-0.862951,-0.112696
"2019-10-06 13:58:48.334 +0000",1570370328.333766,-2.577495,-1.221317,1.137547,-0.183070,0.939551,0.289360,0.000000,0.000000,0.000000,-1,-1.834058,-1.615142,-0.135622,0.233180,-0.711722,0.260140
"2019-10-06 13:58:48.356 +0000",1570370328.356075,-2.634509,-1.199093,1.111277,-0.176382,0.931710,0.317499,0.000000,0.000000,0.000000,-1,-0.435687,-1.071389,-0.282511,0.077414,-0.480828,-0.073236
"2019-10-06 13:58:48.378 +0000",1570370328.378383,-2.588922,-1.199430,1.163570,-0.190503,0.931832,0.308864,0.000000,0.000000,0.000000,-1,0.771755,0.610457,-0.994107,-0.191577,1.041312,0.511662
"2019-10-06 13:58:48.401 +0000",1570370328.400691,-2.516897,-1.204590,1.213193,-0.209421,0.933693,0.290450,0.000000,0.000000,0.000000,-1,0.772578,1.138506,0.042020,-0.248511,5.865578,-0.513549
"2019-10-06 13:58:48.423 +0000",1570370328.422998,-2.501310,-1.215522,1.220236,-0.207812,0.937551,0.278948,0.000000,0.000000,0.000000,-1,0.235161,-0.191225,0.436920,0.031878,2.929453,0.331022
"2019-10-06 13:58:48.445 +0000",1570370328.445290,-2.523622,-1.232127,1.214143,-0.192489,0.943198,0.270788,0.000000,0.000000,0.000000,-1,0.839181,-0.851678,0.407066,0.078048,1.440103,0.227992
"2019-10-06 13:58:48.468 +0000",1570370328.467615,-2.523658,-1.251878,1.224141,-0.181650,0.949575,0.255559,0.000000,0.000000,0.000000,-1,0.827428,-0.289118,0.506273,0.041987,1.627207,0.116130
"2019-10-06 13:58:48.490 +0000",1570370328.489892,-2.509388,-1.278008,1.250940,-0.170555,0.957443,0.232840,0.000000,0.000000,0.000000,-1,1.033795,-0.676847,0.424206,-0.208352,1.356614,0.143640
"2019-10-06 13:58:48.512 +0000",1570370328.512216,-2.504916,-1.297331,1.266329,-0.160563,0.962841,0.217156,0.000000,0.000000,0.000000,-1,0.684015,-0.027721,0.359989,0.102015,-0.152874,-0.032586
"2019-10-06 13:58:48.535 +0000",1570370328.534508,-2.507173,-1.312267,1.252092,-0.151532,0.966767,0.205912,0.000000,0.000000,0.000000,-1,0.289337,0.855167,0.627383,0.097363,-0.366624,-0.094187
"2019-10-06 13:58:48.557 +0000",1570370328.556816,-2.519741,-1.322469,1.208374,-0.143179,0.969325,0.199773,0.000000,0.000000,0.000000,-1,-0.033663,1.540371,0.664581,0.071539,-0.711863,-0.252003
"2019-10-06 13:58:48.579 +0000",1570370328.579123,-2.536413,-1.328413,1.152524,-0.136548,0.970769,0.197390,0.000000,0.000000,0.000000,-1,-0.185469,1.696406,0.630877,0.084393,-0.984578,-0.376559
"2019-10-06 13:58:48.601 +0000",1570370328.601432,-2.570802,-1.328516,1.087367,-0.129627,0.970793,0.201884,0.000000,0.000000,0.000000,-1,-0.518588,0.991166,0.573727,0.123111,-1.150115,-0.382060
"2019-10-06 13:58:48.624 +0000",1570370328.623758,-2.631152,-1.321667,1.014218,-0.120460,0.969127,0.215131,0.000000,0.000000,0.000000,-1,-0.746672,0.087729,0.468760,0.101264,-1.121685,-0.366162
"2019-10-06 13:58:48.646 +0000",1570370328.646049,-2.692623,-1.312048,0.971388,-0.111057,0.966711,0.230512,0.000000,0.000000,0.000000,-1,-0.419696,-1.586821,0.034689,0.046330,-1.137488,-0.300794
"2019-10-06 13:58:48.668 +0000",1570370328.668357,-2.729256,-1.306296,0.992582,-0.104767,0.965223,0.239516,0.000000,0.000000,0.000000,-1,-0.047784,-2.915075,-0.536587,0.013565,-1.204252,0.124300
"2019-10-06 13:58:48.691 +0000",1570370328.690665,-2.722594,-1.302004,1.053164,-0.108045,0.964092,0.242595,0.000000,0.000000,0.000000,-1,0.283124,-1.695639,-0.800340,0.055082,-1.152920,0.012456
"2019-10-06 13:58:48.713 +0000",1570370328.712972,-2.663205,-1.304960,1.129722,-0.120941,0.964873,0.233224,0.000000,0.000000,0.000000,-1,0.565580,-0.130374,-0.699984,0.123383,-1.052580,-0.198266
"2019-10-06 13:58:48.735 +0000",1570370328.735272,-2.595890,-1.307459,1.188646,-0.135103,0.965527,0.222498,0.000000,0.000000,0.000000,-1,0.312469,0.717987,-0.469439,0.099611,-0.943996,-0.222025
"2019-10-06 13:58:48.758 +0000",1570370328.757588,-2.550301,-1.302453,1.217942,-0.147795,0.964212,0.220120,0.000000,0.000000,0.000000,-1,-0.226584,0.722976,-0.392800,0.151259,-0.905831,-0.197568
"2019-10-06 13:58:48.780 +0000",1570370328.779833,-2.562941,-1.283838,1.198388,-0.154791,0.959109,0.236958,0.000000,0.000000,0.000000,-1,-1.558059,-0.240796,-0.073440,0.263678,-0.660556,0.194087
"2019-10-06 13:58:48.802 +0000",1570370328.802202,-2.640592,-1.254587,1.136996,-0.149358,0.950421,0.272749,0.000000,0.000000,0.000000,-1,-2.140173,-0.957849,0.023235,0.141912,-0.544446,0.053133
"2019-10-06 13:58:48.825 +0000",1570370328.824513,-2.638551,-1.224281,1.118745,-0.163729,0.940562,0.297550,0.000000,0.000000,0.000000,-1,-0.726124,2.061242,-0.693940,-0.060163,-0.450389,-0.026233
"2019-10-06 13:58:48.847 +0000",1570370328.846819,-2.501757,-1.227969,1.193968,-0.200704,0.941808,0.269658,0.000000,0.000000,0.000000,-1,1.190664,2.663346,-0.759250,-0.129054,0.966532,1.181895
"2019-10-06 13:58:48.869 +0000",1570370328.869128,-2.515824,-1.246418,1.160890,-0.186680,0.947849,0.258326,0.000000,0.000000,0.000000,-1,-0.108282,-0.125106,1.692685,0.007176,5.915493,-1.076853
"2019-10-06 13:58:48.891 +0000",1570370328.891436,-2.571452,-1.268117,1.145452,-0.160889,0.954541,0.250931,0.000000,0.000000,0.000000,-1,1.028258,-2.409696,0.563470,0.563919,2.370837,0.888871
"2019-10-06 13:58:48.914 +0000",1570370328.913748,-2.622201,-1.286901,1.122288,-0.139027,0.959972,0.243158,0.000000,0.000000,0.000000,-1,0.588980,-0.606699,0.505099,0.155186,1.287587,-0.036050
"2019-10-06 13:58:48.936 +0000",1570370328.936051,-2.594458,-1.312565,1.145308,-0.132855,0.966843,0.218092,0.000000,0.000000,0.000000,-1,1.217301,0.418750,0.306463,-0.258915,1.430816,0.210955
"2019-10-06 13:58:48.958 +0000",1570370328.958342,-2.577185,-1.334090,1.158244,-0.125439,0.972116,0.198132,0.000000,0.000000,0.000000,-1,0.669259,0.079317,0.389877,-0.033313,0.769446,0.018726
"2019-10-06 13:58:48.981 +0000",1570370328.980638,-2.608662,-1.346573,1.131779,-0.112966,0.974967,0.191514,0.000000,0.000000,0.000000,-1,0.194617,-0.383636,0.653056,0.203710,0.135766,-0.213914
"2019-10-06 13:58:49.003 +0000",1570370329.002976,-2.686922,-1.355906,1.053640,-0.093648,0.977000,0.191576,0.000000,0.000000,0.000000,-1,-0.114697,0.238729,0.981104,0.218144,-0.494578,-0.220217
"2019-10-06 13:58:49.025 +0000",1570370329.025284,-2.778073,-1.359012,0.941153,-0.074742,0.977657,0.196468,0.000000,0.000000,0.000000,-1,-0.384869,1.162588,1.013726,0.091877,-1.081326,-0.214519
"2019-10-06 13:58:49.048 +0000",1570370329.047592,-2.844345,-1.353845,0.843756,-0.063045,0.976558,0.205814,0.000000,0.000000,0.000000,-1,-0.624704,1.145077,0.646579,-0.006687,-1.195583,-0.250293
"2019-10-06 13:58:49.070 +0000",1570370329.069868,-2.890264,-1.343039,0.789858,-0.056153,0.974175,0.218700,0.000000,0.000000,0.000000,-1,-0.476955,-0.274935,0.205209,-0.050552,-1.240456,-0.327831
"2019-10-06 13:58:49.092 +0000",1570370329.092176,-2.896771,-1.344734,0.812176,-0.054328,0.974557,0.217458,0.000000,0.000000,0.000000,-1,0.458862,-1.852839,-0.434148,-0.156228,-1.304162,-0.107137
"2019-10-06 13:58:49.114 +0000",1570370329.114486,-2.864019,-1.347427,0.894289,-0.060701,0.975157,0.213038,0.000000,0.000000,0.000000,-1,0.051622,-1.958253,-0.928363,-0.224806,-1.257139,0.347189
"2019-10-06 13:58:49.137 +0000",1570370329.136818,-2.797473,-1.331624,0.979437,-0.079922,0.971534,0.223010,0.000000,0.000000,0.000000,-1,-0.548238,0.195019,-1.051939,-0.143039,-1.135551,0.407986
"2019-10-06 13:58:49.159 +0000",1570370329.159101,-2.702388,-1.317795,1.044693,-0.106437,0.968166,0.226554,0.000000,0.000000,0.000000,-1,-0.029213,1.904931,-0.791495,0.058540,-1.000575,-0.236136
"2019-10-06 13:58:49.181 +0000",1570370329.181410,-2.596195,-1.320066,1.115573,-0.128710,0.968732,0.212116,0.000000,0.000000,0.000000,-1,0.658735,1.342713,-0.557950,0.176882,-0.925015,-0.467639
"2019-10-06 13:58:49.204 +0000",1570370329.203730,-2.519411,-1.323599,1.176956,-0.142606,0.969602,0.198835,0.000000,0.000000,0.000000,-1,0.317412,0.604821,-0.468430,0.228910,-0.882856,-0.482969
"2019-10-06 13:58:49.226 +0000",1570370329.226024,-2.472985,-1.315079,1.208675,-0.156796,0.967482,0.198478,0.000000,0.000000,0.000000,-1,-0.325118,0.728425,-0.564083,0.230557,-0.851836,-0.558036
"2019-10-06 13:58:49.248 +0000",1570370329.248333,-2.442764,-1.295619,1.227863,-0.174802,0.962377,0.208026,0.000000,0.000000,0.000000,-1,-0.608753,0.322515,-0.840963,0.206616,-0.823095,-0.454089
"2019-10-06 13:58:49.271 +0000",1570370329.270641,-2.426917,-1.269365,1.246972,-0.194572,0.954913,0.224241,0.000000,0.000000,0.000000,-1,-0.885821,-0.344966,-1.001390,0.168144,-0.750521,-0.148496
"2019-10-06 13:58:49.293 +0000",1570370329.292948,-2.438516,-1.244262,1.267648,-0.207394,0.947160,0.244695,0.000000,0.000000,0.000000,-1,0.245009,-2.120239,-0.847447,-0.094699,0.673919,1.736643
"2019-10-06 13:58:49.315 +0000",1570370329.315257,-2.479841,-1.258378,1.249676,-0.188873,0.951593,0.242482,0.000000,0.000000,0.000000,-1,-0.034760,-0.768485,1.682303,0.079955,5.256369,-0.931157
"2019-10-06 13:58:49.338 +0000",1570370329.337565,-2.477473,-1.278420,1.258337,-0.177654,0.957562,0.226968,0.000000,0.000000,0.000000,-1,1.434683,0.264388,-0.189528,-0.116749,3.063755,0.581000
"2019-10-06 13:58:49.360 +0000",1570370329.359871,-2.450050,-1.297437,1.272100,-0.172166,0.962869,0.207946,0.000000,0.000000,0.000000,-1,0.509771,0.533896,0.575578,0.185731,1.227591,0.182251
"2019-10-06 13:58:49.382 +0000",1570370329.382180,-2.425768,-1.320704,1.291549,-0.162415,0.968890,0.186747,0.000000,0.000000,0.000000,-1,1.187664,0.422870,0.420546,-0.406112,1.962080,0.364385
"2019-10-06 13:58:49.404 +0000",1570370329.404489,-2.425318,-1.342548,1.301502,-0.148565,0.974064,0.170667,0.000000,0.000000,0.000000,-1,0.583034,-1.053876,0.660415,-0.020746,0.976039,0.122592
"2019-10-06 13:58:49.427 +0000",1570370329.426792,-2.481677,-1.358541,1.270715,-0.129148,0.977558,0.166435,0.000000,0.000000,0.000000,-1,0.237154,-1.029133,0.734479,0.149000,0.470516,-0.063758
"2019-10-06 13:58:49.449 +0000",1570370329.449098,-2.577772,-1.368775,1.190624,-0.107231,0.979663,0.169593,0.000000,0.000000,0.000000,-1,-0.211987,-0.628674,0.954030,0.157295,-0.411716,-0.147239
"2019-10-06 13:58:49.471 +0000",1570370329.471408,-2.701855,-1.371503,1.069118,-0.084279,0.980207,0.179141,0.000000,0.000000,0.000000,-1,-0.487299,0.115581,0.987003,0.042439,-0.803907,-0.159290
"2019-10-06 13:58:49.494 +0000",1570370329.493715,-2.787780,-1.369486,0.967421,-0.069279,0.979805,0.187568,0.000000,0.000000,0.000000,-1,-0.386480,0.825451,0.675572,-0.088283,-1.058724,-0.287757
"2019-10-06 13:58:49.516 +0000",1570370329.516028,-2.830014,-1.364656,0.904372,-0.062748,0.978828,0.194828,0.000000,0.000000,0.000000,-1,-0.436702,0.781168,0.363327,-0.096752,-1.223625,-0.254460
"2019-10-06 13:58:49.538 +0000",1570370329.538337,-2.846342,-1.357328,0.878060,-0.061644,0.977302,0.202684,0.000000,0.000000,0.000000,-1,-0.276862,0.215095,-0.024831,-0.102983,-1.248725,-0.339388
"2019-10-06 13:58:49.561 +0000",1570370329.560644,-2.830265,-1.355595,0.902457,-0.065413,0.976933,0.203278,0.000000,0.000000,0.000000,-1,0.155081,-0.748031,-0.368410,-0.054155,-1.214665,-0.263306
"2019-10-06 13:58:49.583 +0000",1570370329.582952,-2.794466,-1.358504,0.969288,-0.071680,0.977550,0.198134,0.000000,0.000000,0.000000,-1,0.382908,-1.564626,-0.652591,-0.060919,-1.125881,-0.096877
"2019-10-06 13:58:49.605 +0000",1570370329.605229,-2.746332,-1.357437,1.048917,-0.081532,0.977325,0.195418,0.000000,0.000000,0.000000,-1,0.029380,-0.854019,-0.723558,-0.030758,-0.991241,0.616395
"2019-10-06 13:58:49.628 +0000",1570370329.627537,-2.684712,-1.352190,1.093382,-0.095672,0.976201,0.194625,0.000000,0.000000,0.000000,-1,0.081697,1.621458,-0.306358,0.190505,-0.986912,0.027970
"2019-10-06 13:58:49.650 +0000",1570370329.649844,-2.624819,-1.357375,1.117075,-0.104648,0.977312,0.184147,0.000000,0.000000,0.000000,-1,0.303585,1.387808,0.008428,0.220233,-0.894594,-0.406803
"2019-10-06 13:58:49.673 +0000",1570370329.672675,-2.598729,-1.355801,1.122982,-0.110211,0.976977,0.182671,0.000000,0.000000,0.000000,-1,-0.234442,0.689327,-0.164246,0.179516,-0.877765,-0.455315
"2019-10-06 13:58:49.695 +0000",1570370329.694984,-2.583676,-1.344348,1.127251,-0.118864,0.974470,0.190472,0.000000,0.000000,0.000000,-1,-0.476350,0.439878,-0.385433,0.200010,-0.903425,-0.399471
"2019-10-06 13:58:49.717 +0000",1570370329.717288,-2.562665,-1.327579,1.139573,-0.131763,0.970568,0.201584,0.000000,0.000000,0.000000,-1,-0.746924,0.254518,-0.572466,0.183673,-0.879336,-0.251587
"2019-10-06 13:58:49.740 +0000",1570370329.739600,-2.614283,-1.300761,1.131608,-0.134239,0.963762,0.230529,0.000000,0.000000,0.000000,-1,-0.569798,-2.737331,-0.620265,0.035286,-0.467683,0.433366
"2019-10-06 13:58:49.762 +0000",1570370329.761907,-2.526475,-1.293289,1.231205,-0.158090,0.961741,0.223744,0.000000,0.000000,0.000000,-1,0.549057,0.744703,-1.519072,-0.080192,0.394704,-0.328618
"2019-10-06 13:58:49.784 +0000",1570370329.784215,-2.443969,-1.284598,1.274224,-0.181354,0.959324,0.216352,0.000000,0.000000,0.000000,-1,-0.155693,2.423640,0.092072,-0.483792,5.730328,1.379855
"2019-10-06 13:58:49.807 +0000",1570370329.806523,-2.453706,-1.287117,1.254878,-0.177704,0.960032,0.216240,0.000000,0.000000,0.000000,-1,-0.346074,-0.570848,0.356755,0.100525,3.327627,-0.455712
"2019-10-06 13:58:49.829 +0000",1570370329.828832,-2.490007,-1.299963,1.242231,-0.162246,0.963548,0.212723,0.000000,0.000000,0.000000,-1,0.565218,-1.041933,0.592068,0.666365,1.449995,0.249024
"2019-10-06 13:58:49.851 +0000",1570370329.851140,-2.518312,-1.323937,1.218653,-0.142634,0.969685,0.198413,0.000000,0.000000,0.000000,-1,0.923401,0.221384,0.857648,0.098002,2.162075,0.022825
"2019-10-06 13:58:49.873 +0000",1570370329.873447,-2.546653,-1.350133,1.200675,-0.122671,0.975753,0.181270,0.000000,0.000000,0.000000,-1,0.760851,-1.305016,0.933155,-0.250314,1.474183,0.002995
"2019-10-06 13:58:49.896 +0000",1570370329.895755,-2.630393,-1.371519,1.155936,-0.096847,0.980210,0.172654,0.000000,0.000000,0.000000,-1,0.428682,-1.685995,0.746592,-0.215210,0.551544,0.070098
"2019-10-06 13:58:49.918 +0000",1570370329.918060,-2.721368,-1.379368,1.091595,-0.077620,0.981734,0.173708,0.000000,0.000000,0.000000,-1,-0.153232,-0.965741,0.650630,-0.025530,-0.010496,-0.039934
"2019-10-06 13:58:49.940 +0000",1570370329.940363,-2.812166,-1.379532,1.005149,-0.061498,0.981765,0.179878,0.000000,0.000000,0.000000,-1,-0.282775,0.223854,0.673510,-0.000713,-0.544448,-0.169868
"2019-10-06 13:58:49.963 +0000",1570370329.962679,-2.873199,-1.376236,0.929678,-0.051269,0.981133,0.186414,0.000000,0.000000,0.000000,-1,-0.380899,0.610790,0.538536,-0.064179,-0.937294,-0.286221
"2019-10-06 13:58:49.985 +0000",1570370329.984988,-2.926410,-1.366423,0.860031,-0.043336,0.979188,0.198273,0.000000,0.000000,0.000000,-1,-0.687251,0.716110,0.449392,-0.052718,-1.201326,-0.286011
"2019-10-06 13:58:50.007 +0000",1570370330.007300,-2.953710,-1.351419,0.816715,-0.040647,0.976033,0.213792,0.000000,0.000000,0.000000,-1,-0.741286,0.580807,0.140434,-0.043368,-1.216329,-0.329591
"2019-10-06 13:58:50.030 +0000",1570370330.029583,-2.958026,-1.338054,0.816292,-0.042102,0.973038,0.226772,0.000000,0.000000,0.000000,-1,-0.454162,-0.877122,-0.259601,-0.008344,-1.175277,-0.289150
"2019-10-06 13:58:50.052 +0000",1570370330.051911,-2.962976,-1.330971,0.857969,-0.042202,0.971379,0.233754,0.000000,0.000000,0.000000,-1,-0.163286,-2.568635,-0.622826,-0.020695,-1.157903,-0.023427
"2019-10-06 13:58:50.074 +0000",1570370330.074189,-2.958033,-1.319912,0.919394,-0.045315,0.968693,0.244090,0.000000,0.000000,0.000000,-1,-0.528286,-1.875419,-0.735823,-0.012104,-1.132237,0.437367
"2019-10-06 13:58:50.096 +0000",1570370330.096497,-2.917161,-1.311330,0.955094,-0.057099,0.966527,0.250130,0.000000,0.000000,0.000000,-1,-0.017671,1.416982,-0.343045,0.135361,-1.032247,-0.018578
"2019-10-06 13:58:50.119 +0000",1570370330.118804,-2.851742,-1.317666,0.983873,-0.071577,0.968133,0.239989,0.000000,0.000000,0.000000,-1,0.458399,1.571490,-0.204031,0.123228,-0.919610,-0.424117
"2019-10-06 13:58:50.141 +0000",1570370330.141113,-2.801114,-1.320228,1.008003,-0.082802,0.968772,0.233720,0.000000,0.000000,0.000000,-1,-0.051433,1.018756,-0.250206,0.151970,-0.910544,-0.378679
"2019-10-06 13:58:50.163 +0000",1570370330.163430,-2.771148,-1.309933,1.022252,-0.093373,0.966168,0.240419,0.000000,0.000000,0.000000,-1,-0.486112,0.564300,-0.339398,0.157231,-0.952603,-0.426607
"2019-10-06 13:58:50.186 +0000",1570370330.185729,-2.750723,-1.296107,1.038477,-0.103344,0.962509,0.250790,0.000000,0.000000,0.000000,-1,-0.508327,0.018842,-0.466063,0.105831,-0.922486,-0.466199
"2019-10-06 13:58:50.208 +0000",1570370330.208036,-2.750484,-1.272282,1.049633,-0.112115,0.955775,0.271892,0.000000,0.000000,0.000000,-1,-1.391260,-0.983295,-0.574156,0.085931,-0.733820,0.192753
"2019-10-06 13:58:50.230 +0000",1570370330.230327,-2.750304,-1.246371,1.067118,-0.121570,0.947834,0.294671,0.000000,0.000000,0.000000,-1,-0.420593,-0.081953,-0.774025,-0.022549,-0.531193,-0.263315
"2019-10-06 13:58:50.253 +0000",1570370330.252650,-2.651408,-1.248551,1.154826,-0.149097,0.948527,0.279404,0.000000,0.000000,0.000000,-1,0.791174,1.016482,-1.249700,-0.167965,0.448019,0.850494
"2019-10-06 13:58:50.275 +0000",1570370330.274961,-2.646991,-1.253997,1.144965,-0.147876,0.950237,0.274193,0.000000,0.000000,0.000000,-1,0.099425,0.457157,1.157897,0.230594,5.952579,-0.583321
"2019-10-06 13:58:50.297 +0000",1570370330.297268,-2.676165,-1.263998,1.111808,-0.135543,0.953305,0.269883,0.000000,0.000000,0.000000,-1,0.177722,-0.234355,0.788185,0.781707,2.800357,0.426650
"2019-10-06 13:58:50.320 +0000",1570370330.319577,-2.759934,-1.278928,1.043101,-0.107172,0.957708,0.267039,0.000000,0.000000,0.000000,-1,0.596629,-0.997693,1.213202,0.466120,1.704112,-0.288660
"2019-10-06 13:58:50.342 +0000",1570370330.341885,-2.812728,-1.312554,1.009463,-0.082480,0.966840,0.241696,0.000000,0.000000,0.000000,-1,1.308065,-0.659026,0.595193,-0.387018,2.340701,0.468586
"2019-10-06 13:58:50.364 +0000",1570370330.364191,-2.849116,-1.343784,0.990616,-0.064892,0.974343,0.215509,0.000000,0.000000,0.000000,-1,1.235595,-0.923165,0.717858,-0.273029,1.042853,0.137793
"2019-10-06 13:58:50.387 +0000",1570370330.386500,-2.905192,-1.364862,0.952742,-0.047891,0.978870,0.198795,0.000000,0.000000,0.000000,-1,0.536426,-0.869840,0.586829,-0.116965,0.379864,0.003125
"2019-10-06 13:58:50.409 +0000",1570370330.408809,-2.985503,-1.371994,0.880986,-0.030702,0.980304,0.195094,0.000000,0.000000,0.000000,-1,0.046045,-0.031602,0.770222,0.101869,-0.488132,-0.274836
"2019-10-06 13:58:50.431 +0000",1570370330.431115,-3.055700,-1.373558,0.786073,-0.016811,0.980611,0.195240,0.000000,0.000000,0.000000,-1,-0.027868,1.599770,0.826420,0.042568,-0.938726,-0.296665
"2019-10-06 13:58:50.453 +0000",1570370330.453410,-3.099131,-1.367276,0.697677,-0.008580,0.979361,0.201935,0.000000,0.000000,0.000000,-1,-0.577362,1.914168,0.751442,0.046437,-1.142050,-0.234177
"2019-10-06 13:58:50.476 +0000",1570370330.475750,-3.132779,-1.347650,0.628733,-0.001950,0.975206,0.221290,0.000000,0.000000,0.000000,-1,-1.015394,1.156489,0.506150,-0.016253,-1.176271,-0.360801
"2019-10-06 13:58:50.498 +0000",1570370330.498040,3.135215,-1.325302,0.611169,0.001550,0.970017,0.243031,0.000000,0.000000,0.000000,-1,-0.931232,-0.768409,-0.063502,-0.092141,-1.193101,-0.291462
"2019-10-06 13:58:50.520 +0000",1570370330.520349,3.126861,-1.309444,0.663896,0.003806,0.966041,0.258359,0.000000,0.000000,0.000000,-1,-0.735823,-3.629128,-0.879112,-0.189826,-1.291008,0.103152
"2019-10-06 13:58:50.543 +0000",1570370330.542625,-3.137755,-1.293857,0.740088,-0.001049,0.961897,0.273411,0.000000,0.000000,0.000000,-1,-0.369617,-0.831100,-0.749965,-0.087742,-1.380644,0.474254
"2019-10-06 13:58:50.565 +0000",1570370330.564934,-3.057912,-1.301306,0.784820,-0.022253,0.963907,0.265308,0.000000,0.000000,0.000000,-1,0.657367,2.505377,-0.467766,-0.071161,-1.043710,-0.423756
"2019-10-06 13:58:50.587 +0000",1570370330.587242,-2.958635,-1.317518,0.830851,-0.045590,0.968096,0.246397,0.000000,0.000000,0.000000,-1,0.750199,2.193169,-0.412852,0.008481,-0.981234,-0.490904
"2019-10-06 13:58:50.610 +0000",1570370330.609550,-2.877573,-1.326626,0.877104,-0.063088,0.970338,0.233374,0.000000,0.000000,0.000000,-1,0.379627,1.317199,-0.397792,0.113854,-0.923921,-0.388327
"2019-10-06 13:58:50.632 +0000",1570370330.631857,-2.821301,-1.329513,0.915567,-0.075231,0.971032,0.226797,0.000000,0.000000,0.000000,-1,0.183697,0.579264,-0.335500,0.133428,-0.925134,-0.317251
"2019-10-06 13:58:50.654 +0000",1570370330.654165,-2.787391,-1.329233,0.943099,-0.082972,0.970965,0.224371,0.000000,0.000000,0.000000,-1,0.013177,0.237498,-0.260588,0.128611,-0.948108,-0.260076
"2019-10-06 13:58:50.676 +0000",1570370330.676473,-2.763510,-1.323853,0.964864,-0.090233,0.969664,0.227177,0.000000,0.000000,0.000000,-1,-0.232141,0.032747,-0.352770,0.057930,-0.951827,-0.225300
"2019-10-06 13:58:50.699 +0000",1570370330.698782,-2.746205,-1.311778,0.983440,-0.098653,0.966642,0.236370,0.000000,0.000000,0.000000,-1,-0.665058,-0.075778,-0.375562,0.149923,-0.758024,0.149219
"2019-10-06 13:58:50.721 +0000",1570370330.721088,-2.826481,-1.265153,0.944494,-0.093258,0.953654,0.286090,0.000000,0.000000,0.000000,-1,-2.012681,-2.828038,-0.331860,0.044201,-0.122904,1.041119
"2019-10-06 13:58:50.743 +0000",1570370330.743392,-2.747470,-1.269079,0.993237,-0.114109,0.954828,0.274378,0.000000,0.000000,0.000000,-1,1.241144,3.283208,-0.732065,0.060871,-0.485772,-0.881068
"2019-10-06 13:58:50.766 +0000",1570370330.765706,-2.601426,-1.276286,1.059093,-0.149280,0.956944,0.248943,0.000000,0.000000,0.000000,-1,-0.257032,3.450411,0.043628,0.219455,1.268123,-0.128307
"2019-10-06 13:58:50.788 +0000",1570370330.788012,-2.697951,-1.282703,0.974408,-0.121955,0.958787,0.256619,0.000000,0.000000,0.000000,-1,-0.083605,-2.221376,0.462490,-0.211282,4.860304,0.415317
"2019-10-06 13:58:50.810 +0000",1570370330.810322,-2.732405,-1.276864,0.936069,-0.115268,0.957112,0.265800,0.000000,0.000000,0.000000,-1,-0.075918,0.276791,0.389456,0.205250,2.003154,0.010399
"2019-10-06 13:58:50.833 +0000",1570370330.832629,-2.777013,-1.294764,0.900098,-0.097176,0.962144,0.254628,0.000000,0.000000,0.000000,-1,1.007975,-0.650827,0.886927,0.042184,1.980986,-0.178227
"2019-10-06 13:58:50.855 +0000",1570370330.854937,-2.822624,-1.331678,0.878626,-0.074272,0.971547,0.224900,0.000000,0.000000,0.000000,-1,1.381854,-1.354968,0.718422,-0.042122,1.602946,0.233993
"2019-10-06 13:58:50.877 +0000",1570370330.877245,-2.894390,-1.359834,0.845223,-0.051239,0.977830,0.203035,0.000000,0.000000,0.000000,-1,0.959644,-1.970535,0.638108,0.097000,0.962630,0.063582
"2019-10-06 13:58:50.900 +0000",1570370330.899544,-3.002315,-1.376751,0.774252,-0.026770,0.981232,0.190963,0.000000,0.000000,0.000000,-1,0.341305,-1.341356,0.853074,0.205344,0.339584,0.064317
"2019-10-06 13:58:50.922 +0000",1570370330.921860,-3.102343,-1.375262,0.677350,-0.007624,0.980944,0.194141,0.000000,0.000000,0.000000,-1,-0.222198,0.579564,0.763831,0.011637,-0.567614,-0.245517
"2019-10-06 13:58:50.944 +0000",1570370330.944138,-3.139134,-1.372205,0.605471,-0.000485,0.980346,0.197287,0.000000,0.000000,0.000000,-1,-0.212109,1.643013,0.598087,-0.066577,-0.988112,-0.275778
"2019-10-06 13:58:50.966 +0000",1570370330.966467,3.102290,-1.358438,0.540641,0.008282,0.977537,0.210603,0.000000,0.000000,0.000000,-1,-0.833811,0.592122,0.578616,-0.073147,-1.109083,-0.223283
"2019-10-06 13:58:50.989 +0000",1570370330.988761,3.077946,-1.336345,0.503930,0.014776,0.972642,0.231839,0.000000,0.000000,0.000000,-1,-0.978010,0.552811,0.289858,-0.100011,-1.074082,-0.344190
"2019-10-06 13:58:51.011 +0000",1570370331.011063,3.093622,-1.317256,0.506405,0.012028,0.968030,0.250545,0.000000,0.000000,0.000000,-1,-0.794237,0.490879,-0.158589,-0.099629,-1.086896,-0.336146
"2019-10-06 13:58:51.033 +0000",1570370331.033370,3.121784,-1.299683,0.548018,0.005305,0.963473,0.267751,0.000000,0.000000,0.000000,-1,-0.858929,-1.334113,-0.643596,-0.107935,-1.092380,-0.209753
"2019-10-06 13:58:51.056 +0000",1570370331.055679,3.140719,-1.275928,0.621624,0.000254,0.956840,0.290614,0.000000,0.000000,0.000000,-1,-1.213882,-2.670465,-1.027618,-0.089090,-1.158500,-0.063655
"2019-10-06 13:58:51.078 +0000",1570370331.077986,-3.119876,-1.242275,0.693593,-0.007006,0.946521,0.322568,0.000000,0.000000,0.000000,-1,-1.543520,-1.202552,-0.904329,0.052233,-1.251879,0.205676
"2019-10-06 13:58:51.100 +0000",1570370331.100293,-3.061023,-1.221261,0.734457,-0.027562,0.939532,0.341351,0.000000,0.000000,0.000000,-1,-0.459913,1.947254,-0.547257,0.012486,-1.047320,-0.245892
"2019-10-06 13:58:51.123 +0000",1570370331.122602,-2.971608,-1.223553,0.769968,-0.057569,0.940314,0.335402,0.000000,0.000000,0.000000,-1,0.462657,2.619466,-0.506929,0.056623,-0.904914,-0.489821
"2019-10-06 13:58:51.145 +0000",1570370331.144910,-2.879707,-1.235336,0.810629,-0.085232,0.944259,0.317979,0.000000,0.000000,0.000000,-1,0.675775,2.245717,-0.473747,0.134716,-0.887847,-0.469774
"2019-10-06 13:58:51.167 +0000",1570370331.167218,-2.796058,-1.243716,0.851792,-0.108817,0.946984,0.302290,0.000000,0.000000,0.000000,-1,0.422173,1.863068,-0.464256,0.187232,-0.901086,-0.456892
"2019-10-06 13:58:51.190 +0000",1570370331.189514,-2.725599,-1.244544,0.887622,-0.129512,0.947250,0.293162,0.000000,0.000000,0.000000,-1,0.127135,1.492654,-0.467297,0.236476,-0.945556,-0.460460
"2019-10-06 13:58:51.212 +0000",1570370331.211834,-2.671967,-1.239673,0.916705,-0.147127,0.945678,0.289909,0.000000,0.000000,0.000000,-1,-0.126714,0.969623,-0.495017,0.254259,-0.957366,-0.445579
"2019-10-06 13:58:51.234 +0000",1570370331.234142,-2.646027,-1.222241,0.929604,-0.162413,0.939867,0.300453,0.000000,0.000000,0.000000,-1,-1.011656,0.372418,-0.548400,0.182508,-0.800799,-0.101784
"2019-10-06 13:58:51.256 +0000",1570370331.256429,-2.687035,-1.175920,0.899278,-0.168906,0.923044,0.345631,0.000000,0.000000,0.000000,-1,-2.413710,-1.226009,-0.512482,0.082968,-0.570322,0.112652
"2019-10-06 13:58:51.279 +0000",1570370331.278756,-2.733734,-1.111214,0.870475,-0.175941,0.896238,0.407189,0.000000,0.000000,0.000000,-1,-3.198850,-1.131563,-0.816349,-0.296730,0.489092,1.505028
"2019-10-06 13:58:51.301 +0000",1570370331.301066,-2.685369,-1.123341,0.871086,-0.190619,0.901551,0.388420,0.000000,0.000000,0.000000,-1,2.017769,4.324772,0.676964,0.317328,4.415633,-0.770668
"2019-10-06 13:58:51.323 +0000",1570370331.323353,-2.646735,-1.122938,0.854009,-0.205652,0.901377,0.381087,0.000000,0.000000,0.000000,-1,-1.794903,0.369038,-0.063654,-0.325278,3.041739,0.622850
"2019-10-06 13:58:51.346 +0000",1570370331.345651,-2.693798,-1.119783,0.859333,-0.188725,0.900006,0.392902,0.000000,0.000000,0.000000,-1,1.033577,-3.757931,-0.002238,-0.346568,1.056003,-0.269046
"2019-10-06 13:58:51.368 +0000",1570370331.367958,-2.734945,-1.163049,0.886513,-0.156845,0.918016,0.364205,0.000000,0.000000,0.000000,-1,2.377648,-1.863564,0.150236,-0.652099,2.543745,0.631294
"2019-10-06 13:58:51.390 +0000",1570370331.390268,-2.716321,-1.212364,0.953840,-0.144732,0.936448,0.319559,0.000000,0.000000,0.000000,-1,2.414813,-2.363066,-0.187703,-0.514234,2.626540,0.468283
"2019-10-06 13:58:51.413 +0000",1570370331.412587,-2.710780,-1.261490,1.038152,-0.127119,0.952545,0.276584,0.000000,0.000000,0.000000,-1,2.623540,-4.014714,-0.093558,0.119078,2.332276,0.258709
"2019-10-06 13:58:51.435 +0000",1570370331.434882,-2.764090,-1.315454,1.078181,-0.093100,0.967577,0.234792,0.000000,0.000000,0.000000,-1,2.110643,-3.615390,0.794627,0.963934,1.195387,0.183925
"2019-10-06 13:58:51.457 +0000",1570370331.457191,-2.877709,-1.358038,1.000868,-0.055076,0.977452,0.203847,0.000000,0.000000,0.000000,-1,1.428716,-0.440001,1.598551,0.711281,0.183269,-0.363897
"2019-10-06 13:58:51.480 +0000",1570370331.479508,-3.001734,-1.394813,0.851957,-0.024406,0.984555,0.173367,0.000000,0.000000,0.000000,-1,1.195339,1.636179,1.540324,0.200630,-0.724362,-0.095303
"2019-10-06 13:58:51.502 +0000",1570370331.501807,-3.100971,-1.414479,0.694095,-0.006322,0.987807,0.155553,0.000000,0.000000,0.000000,-1,0.410294,2.842054,1.072765,-0.330821,-1.109969,-0.275991
"2019-10-06 13:58:51.524 +0000",1570370331.524114,3.129460,-1.409560,0.590862,0.001948,0.987030,0.160527,0.000000,0.000000,0.000000,-1,-0.628907,1.613000,0.516302,-0.202921,-1.111572,-0.298649
"2019-10-06 13:58:51.546 +0000",1570370331.546422,3.106692,-1.378656,0.560568,0.006663,0.981598,0.190844,0.000000,0.000000,0.000000,-1,-1.936417,-0.572493,0.150574,-0.128703,-1.098495,-0.129397
"2019-10-06 13:58:51.569 +0000",1570370331.568730,3.035898,-1.306480,0.557757,0.027561,0.965271,0.259792,0.000000,0.000000,0.000000,-1,-3.788529,-4.646754,0.357142,0.046871,-1.083008,0.081868
"2019-10-06 13:58:51.591 +0000",1570370331.591038,2.931594,-1.240675,0.564121,0.067574,0.946003,0.317036,0.000000,0.000000,0.000000,-1,-2.031032,-4.034872,0.292917,0.103798,-1.201817,-0.057347
"2019-10-06 13:58:51.613 +0000",1570370331.613347,2.907537,-1.227771,0.562664,0.078005,0.941741,0.327167,0.000000,0.000000,0.000000,-1,0.193957,0.657004,0.064901,-0.020006,-1.207565,-0.291859
"2019-10-06 13:58:51.636 +0000",1570370331.635642,2.948349,-1.248930,0.554547,0.060750,0.948647,0.310449,0.000000,0.000000,0.000000,-1,1.248096,2.691269,-0.157394,-0.088796,-1.066536,-0.438028
"2019-10-06 13:58:51.658 +0000",1570370331.657963,3.010171,-1.280221,0.553583,0.037544,0.958079,0.284033,0.000000,0.000000,0.000000,-1,1.399608,2.814019,-0.242775,-0.084389,-1.007045,-0.373099
"2019-10-06 13:58:51.680 +0000",1570370331.680271,3.085750,-1.308736,0.566002,0.014460,0.965858,0.258667,0.000000,0.000000,0.000000,-1,1.123411,2.880139,-0.271685,-0.060633,-0.987739,-0.330780
"2019-10-06 13:58:51.703 +0000",1570370331.702563,-3.117026,-1.325656,0.586009,-0.005962,0.970103,0.242619,0.000000,0.000000,0.000000,-1,0.492457,2.535635,-0.218035,-0.065343,-0.957744,-0.380818
"2019-10-06 13:58:51.725 +0000",1570370331.724856,-3.066319,-1.325894,0.603360,-0.018234,0.970161,0.241775,0.000000,0.000000,0.000000,-1,-0.209723,0.771493,-0.166701,-0.130189,-0.929008,-0.496811
"2019-10-06 13:58:51.747 +0000",1570370331.747165,-3.049818,-1.319710,0.620221,-0.022770,0.968643,0.247411,0.000000,0.000000,0.000000,-1,-0.221953,-0.124375,-0.246832,0.015522,-0.901138,-0.433446
"2019-10-06 13:58:51.769 +0000",1570370331.769473,-3.021440,-1.315812,0.643154,-0.030233,0.967667,0.250412,0.000000,0.000000,0.000000,-1,-0.127619,0.497964,-0.288291,0.076467,-0.954163,-0.337677
"2019-10-06 13:58:51.792 +0000",1570370331.791780,-2.989302,-1.310308,0.664128,-0.039072,0.966264,0.254572,0.000000,0.000000,0.000000,-1,-0.300624,0.419302,-0.251691,0.090936,-0.968294,-0.268305
"2019-10-06 13:58:51.814 +0000",1570370331.814088,-2.988260,-1.297389,0.670433,-0.041240,0.962856,0.266846,0.000000,0.000000,0.000000,-1,-0.764909,-0.755098,-0.097562,0.139293,-0.965191,-0.182404
"2019-10-06 13:58:51.836 +0000",1570370331.836396,-3.034117,-1.276668,0.658114,-0.031098,0.957055,0.288233,0.000000,0.000000,0.000000,-1,-0.954233,-1.780384,0.095058,0.136292,-0.952691,-0.269648
"2019-10-06 13:58:51.859 +0000",1570370331.858704,-3.089729,-1.258911,0.641033,-0.015907,0.951757,0.306441,0.000000,0.000000,0.000000,-1,-0.706708,-1.704892,0.185053,0.136162,-0.931707,-0.302611
"2019-10-06 13:58:51.881 +0000",1570370331.881012,3.127653,-1.233550,0.623163,0.004612,0.943669,0.330858,0.000000,0.000000,0.000000,-1,-2.045619,-2.996778,0.274101,0.068904,-0.687856,0.460448
"2019-10-06 13:58:51.903 +0000",1570370331.903318,3.024426,-1.098388,0.651809,0.053193,0.890475,0.451912,0.000000,0.000000,0.000000,-1,-8.333460,-6.384733,-0.338638,-0.059586,0.426969,2.435219
"2019-10-06 13:58:51.926 +0000",1570370331.925629,2.964578,-0.987968,0.673430,0.096918,0.834909,0.541787,0.000000,0.000000,0.000000,-1,-3.253424,-1.882180,0.426201,0.496511,1.775564,2.385794
"2019-10-06 13:58:51.948 +0000",1570370331.947930,3.103840,-1.030250,0.664594,0.019423,0.857428,0.514238,0.000000,0.000000,0.000000,-1,4.109771,9.818274,-0.266243,0.718691,1.765695,-0.471315
"2019-10-06 13:58:51.970 +0000",1570370331.970244,-3.026316,-1.051211,0.676326,-0.057111,0.868025,0.493225,0.000000,0.000000,0.000000,-1,-0.951515,2.941694,-0.032454,0.432477,2.331270,-0.869949
"2019-10-06 13:58:51.993 +0000",1570370331.992556,-3.069148,-1.018711,0.667740,-0.037962,0.851433,0.523089,0.000000,0.000000,0.000000,-1,-0.906019,-3.605396,0.229131,-0.400286,2.446999,0.806837
"2019-10-06 13:58:52.015 +0000",1570370332.014860,-3.086706,-1.052394,0.673682,-0.027182,0.868612,0.494747,0.000000,0.000000,0.000000,-1,2.357350,0.286440,-0.225802,-0.507791,1.460825,0.191929
"2019-10-06 13:58:52.037 +0000",1570370332.037166,-3.125041,-1.109872,0.680996,-0.007361,0.895642,0.444715,0.000000,0.000000,0.000000,-1,2.716353,-2.997963,0.082629,0.155265,2.114399,0.772249
"2019-10-06 13:58:52.059 +0000",1570370332.059460,3.108501,-1.179738,0.699378,0.012611,0.924506,0.380958,0.000000,0.000000,0.000000,-1,3.324767,-3.038096,-0.819868,-0.010978,2.630578,0.316201
"2019-10-06 13:58:52.082 +0000",1570370332.081753,3.122424,-1.257442,0.794671,0.005908,0.951305,0.308194,0.000000,0.000000,0.000000,-1,3.431324,-3.400646,-1.697388,0.165860,2.425968,0.015155
"2019-10-06 13:58:52.104 +0000",1570370332.104061,3.101576,-1.326989,0.822109,0.009657,0.970426,0.241205,0.000000,0.000000,0.000000,-1,2.856029,-1.224833,0.508582,0.670671,1.010607,-0.286738
"2019-10-06 13:58:52.126 +0000",1570370332.126369,2.968989,-1.376983,0.701516,0.033079,0.981277,0.189740,0.000000,0.000000,0.000000,-1,2.131619,-0.356684,0.818144,0.145373,0.098023,-0.195126
"2019-10-06 13:58:52.149 +0000",1570370332.148679,2.878767,-1.408043,0.588382,0.042098,0.986785,0.156471,0.000000,0.000000,0.000000,-1,1.083299,2.004765,0.497763,-0.024017,-0.705153,0.003288
"2019-10-06 13:58:52.171 +0000",1570370332.170979,2.870542,-1.405998,0.502059,0.043924,0.986451,0.158064,0.000000,0.000000,0.000000,-1,-0.460173,3.918775,0.637660,-0.134409,-1.091508,-0.175383
"2019-10-06 13:58:52.193 +0000",1570370332.193293,2.927317,-1.380554,0.484503,0.040210,0.981958,0.184772,0.000000,0.000000,0.000000,-1,-1.419687,2.698988,0.242420,-0.129107,-1.105814,-0.256275
"2019-10-06 13:58:52.216 +0000",1570370332.215583,2.977260,-1.341104,0.500203,0.037247,0.973736,0.224611,0.000000,0.000000,0.000000,-1,-1.932856,0.940698,0.195781,-0.006287,-1.080197,-0.378206
"2019-10-06 13:58:52.238 +0000",1570370332.237903,2.977399,-1.284934,0.505340,0.046092,0.959419,0.278193,0.000000,0.000000,0.000000,-1,-2.892738,-1.071227,0.458856,0.035863,-1.088005,-0.266245
"2019-10-06 13:58:52.260 +0000",1570370332.260216,2.925604,-1.213465,0.506320,0.074961,0.936834,0.341648,0.000000,0.000000,0.000000,-1,-3.110245,-2.883870,0.639845,0.018895,-1.046651,-0.382130
"2019-10-06 13:58:52.283 +0000",1570370332.282524,2.855531,-1.156007,0.500597,0.113716,0.915201,0.386621,0.000000,0.000000,0.000000,-1,-1.968294,-2.807926,0.748828,-0.006142,-1.043650,-0.505822
"2019-10-06 13:58:52.305 +0000",1570370332.304832,2.773227,-1.130947,0.477886,0.153328,0.904816,0.397239,0.000000,0.000000,0.000000,-1,-0.247253,-2.832941,0.772117,-0.086006,-1.184464,-0.501136
"2019-10-06 13:58:52.327 +0000",1570370332.327139,2.662795,-1.140955,0.424302,0.191991,0.909032,0.369865,0.000000,0.000000,0.000000,-1,1.359317,-2.603836,0.672769,-0.174626,-1.139959,-0.319862
"2019-10-06 13:58:52.349 +0000",1570370332.349448,2.550677,-1.170127,0.347306,0.217297,0.920800,0.323897,0.000000,0.000000,0.000000,-1,1.988791,-1.368263,0.413963,-0.274823,-1.032159,-0.195159
"2019-10-06 13:58:52.372 +0000",1570370332.371756,2.478700,-1.198203,0.281649,0.224025,0.931386,0.286936,0.000000,0.000000,0.000000,-1,1.270580,0.103518,-0.011269,-0.333492,-0.935476,0.053106
"2019-10-06 13:58:52.394 +0000",1570370332.394041,2.495037,-1.208589,0.270013,0.213468,0.935117,0.282821,0.000000,0.000000,0.000000,-1,0.088474,1.856784,-0.124100,-0.254316,-0.984510,-0.083571
"2019-10-06 13:58:52.416 +0000",1570370332.416374,2.560972,-1.204325,0.278224,0.196556,0.933598,0.299602,0.000000,0.000000,0.000000,-1,-0.336541,2.973017,0.046929,-0.243965,-0.950352,-0.224285
"2019-10-06 13:58:52.439 +0000",1570370332.438646,2.645397,-1.196717,0.293200,0.173969,0.930844,0.321347,0.000000,0.000000,0.000000,-1,-0.461359,3.043664,-0.121225,-0.236240,-0.949674,-0.237210
"2019-10-06 13:58:52.461 +0000",1570370332.460958,2.717256,-1.190785,0.321207,0.152718,0.928661,0.338034,0.000000,0.000000,0.000000,-1,-0.346932,1.303291,-0.374925,-0.198052,-0.957713,-0.256964
"2019-10-06 13:58:52.483 +0000",1570370332.483266,2.745854,-1.192436,0.343229,0.142399,0.929271,0.340848,0.000000,0.000000,0.000000,-1,0.008548,0.040178,-0.347433,-0.054936,-0.908916,-0.286862
"2019-10-06 13:58:52.506 +0000",1570370332.505575,2.765830,-1.189718,0.367051,0.136489,0.928264,0.345972,0.000000,0.000000,0.000000,-1,-0.495660,-0.146860,-0.306291,-0.054610,-0.832500,-0.242975
"2019-10-06 13:58:52.528 +0000",1570370332.527882,2.791128,-1.173638,0.400156,0.132801,0.922164,0.363287,0.000000,0.000000,0.000000,-1,-1.056204,-0.274809,-0.248331,-0.047413,-0.818450,-0.336416
"2019-10-06 13:58:52.550 +0000",1570370332.550190,2.822549,-1.150771,0.436747,0.127905,0.913079,0.387205,0.000000,0.000000,0.000000,-1,-1.240774,0.101125,-0.355952,-0.078039,-0.795464,-0.438307
"2019-10-06 13:58:52.572 +0000",1570370332.572499,2.889136,-1.117906,0.499073,0.109297,0.899186,0.423696,0.000000,0.000000,0.000000,-1,-2.147286,0.687588,-0.976854,-0.165327,-0.593431,-0.238104
"2019-10-06 13:58:52.595 +0000",1570370332.594805,3.003533,-1.039621,0.600519,0.069712,0.862212,0.501727,0.000000,0.000000,0.000000,-1,-5.754917,1.126132,-1.698084,0.054403,-0.099700,0.383527
"2019-10-06 13:58:52.617 +0000",1570370332.617113,3.021891,-0.913467,0.692102,0.072963,0.791627,0.606633,0.000000,0.000000,0.000000,-1,-3.144910,-6.362238,-0.816700,1.601490,3.878158,1.169139
"2019-10-06 13:58:52.639 +0000",1570370332.639421,3.021395,-0.954739,0.617933,0.069286,0.816163,0.573652,0.000000,0.000000,0.000000,-1,2.925378,11.667477,0.890390,1.589909,5.652923,0.942385
"2019-10-06 13:58:52.662 +0000",1570370332.661706,-3.079232,-0.970637,0.646134,-0.035197,0.825245,0.563676,0.000000,0.000000,0.000000,-1,-0.862944,3.102444,-1.101945,-0.318395,1.430767,-0.478273
"2019-10-06 13:58:52.684 +0000",1570370332.684038,-3.044117,-0.981347,0.676380,-0.054101,0.831247,0.553264,0.000000,0.000000,0.000000,-1,1.524377,-0.091203,-0.114308,-1.234168,0.946936,0.453633
"2019-10-06 13:58:52.706 +0000",1570370332.706345,-3.080263,-1.009425,0.660402,-0.032628,0.846526,0.531346,0.000000,0.000000,0.000000,-1,0.978545,-2.431123,0.540145,0.006826,2.250199,0.427989
"2019-10-06 13:58:52.729 +0000",1570370332.728641,3.078683,-1.038824,0.639410,0.031889,0.861808,0.506231,0.000000,0.000000,0.000000,-1,1.719885,-5.360264,0.422561,0.436754,1.781060,0.566981
"2019-10-06 13:58:52.751 +0000",1570370332.750960,2.943545,-1.100539,0.611650,0.089153,0.891452,0.444258,0.000000,0.000000,0.000000,-1,3.430468,-4.230089,0.147786,0.205418,1.747251,0.376970
"2019-10-06 13:58:52.773 +0000",1570370332.773238,2.839167,-1.180360,0.541990,0.113354,0.924743,0.363319,0.000000,0.000000,0.000000,-1,3.832453,-0.231611,0.544174,0.341419,1.573136,-0.100853
"2019-10-06 13:58:52.796 +0000",1570370332.795547,2.745469,-1.248341,0.411716,0.122273,0.948460,0.292357,0.000000,0.000000,0.000000,-1,3.524286,1.736758,0.927264,0.453731,1.082683,-0.544951
"2019-10-06 13:58:52.818 +0000",1570370332.817852,2.594146,-1.310662,0.195521,0.133880,0.966355,0.219621,0.000000,0.000000,0.000000,-1,3.729144,2.989854,1.429812,0.378403,-0.032807,-0.567872
"2019-10-06 13:58:52.840 +0000",1570370332.840161,2.415758,-1.332902,-0.074650,0.156419,0.971836,0.176258,0.000000,0.000000,0.000000,-1,1.550877,4.104382,1.988394,0.183776,-0.870839,-0.056064
"2019-10-06 13:58:52.862 +0000",1570370332.862470,2.383332,-1.283161,-0.149446,0.195079,0.958917,0.205965,0.000000,0.000000,0.000000,-1,-2.410267,-0.400267,2.150738,0.177067,-1.005685,0.054228
"2019-10-06 13:58:52.885 +0000",1570370332.884794,2.404687,-1.202286,-0.099669,0.242072,0.932865,0.266766,0.000000,0.000000,0.000000,-1,-3.419817,-0.909376,1.669773,0.166650,-0.632435,-0.218853
"2019-10-06 13:58:52.907 +0000",1570370332.907085,2.475870,-1.123985,-0.004123,0.266872,0.901829,0.339828,0.000000,0.000000,0.000000,-1,-3.927042,-0.571837,0.574884,-0.222866,-0.747319,0.095063
"2019-10-06 13:58:52.929 +0000",1570370332.929395,2.576358,-1.065106,0.090176,0.259457,0.874840,0.409067,0.000000,0.000000,0.000000,-1,-2.533380,1.840914,-0.425963,-0.558697,-1.217812,0.153082
"2019-10-06 13:58:52.952 +0000",1570370332.951705,2.702317,-1.058429,0.148107,0.208492,0.871587,0.443698,0.000000,0.000000,0.000000,-1,0.109169,4.014007,-1.187205,-0.571148,-1.380955,0.084576
"2019-10-06 13:58:52.974 +0000",1570370332.974010,2.846625,-1.101419,0.198954,0.131497,0.891850,0.432796,0.000000,0.000000,0.000000,-1,2.159435,4.539333,-2.035798,-0.583065,-1.202443,-0.372767
"2019-10-06 13:58:52.996 +0000",1570370332.996318,3.021982,-1.180170,0.295404,0.045435,0.924671,0.378047,0.000000,0.000000,0.000000,-1,3.513503,3.383800,-2.610495,-0.297724,-0.989460,-0.758281
"2019-10-06 13:58:53.019 +0000",1570370333.018626,-3.074695,-1.262296,0.442232,-0.020297,0.952790,0.302951,0.000000,0.000000,0.000000,-1,3.382786,1.396811,-2.033430,-0.081586,-1.005158,-0.667148
"2019-10-06 13:58:53.041 +0000",1570370333.040931,-2.957871,-1.309925,0.559380,-0.047120,0.966166,0.253581,0.000000,0.000000,0.000000,-1,1.602316,-0.304832,-0.652012,0.028657,-1.090891,-0.490993
"2019-10-06 13:58:53.063 +0000",1570370333.063240,-2.918354,-1.320809,0.590344,-0.054770,0.968916,0.241253,0.000000,0.000000,0.000000,-1,0.018679,1.150546,-0.133417,0.128058,-1.057096,-0.271847
"2019-10-06 13:58:53.086 +0000",1570370333.085520,-2.883837,-1.312449,0.581089,-0.065125,0.966814,0.247043,0.000000,0.000000,0.000000,-1,-0.516484,2.206714,0.105087,0.138856,-0.988908,-0.312747
"2019-10-06 13:58:53.108 +0000",1570370333.107826,-2.885627,-1.298908,0.538310,-0.067992,0.963266,0.259801,0.000000,0.000000,0.000000,-1,-0.931971,1.196913,0.509605,0.177779,-0.952218,-0.259633
"2019-10-06 13:58:53.130 +0000",1570370333.130136,-2.993234,-1.273543,0.446386,-0.043294,0.956145,0.289677,0.000000,0.000000,0.000000,-1,-1.443640,-2.122469,1.093373,0.162313,-0.996245,-0.296208
"2019-10-06 13:58:53.152 +0000",1570370333.152444,3.134581,-1.255028,0.362138,0.002177,0.950558,0.310539,0.000000,0.000000,0.000000,-1,-0.398123,-3.823991,0.922844,0.045751,-1.049206,-0.218148
"2019-10-06 13:58:53.175 +0000",1570370333.174756,3.035535,-1.270326,0.331850,0.031331,0.955197,0.294306,0.000000,0.000000,0.000000,-1,1.238659,-2.238708,0.006359,-0.036733,-1.049039,-0.014369
"2019-10-06 13:58:53.197 +0000",1570370333.197059,3.041823,-1.304959,0.344737,0.026168,0.964873,0.261411,0.000000,0.000000,0.000000,-1,1.573715,0.686212,-0.449928,-0.033019,-0.948363,0.007907
"2019-10-06 13:58:53.219 +0000",1570370333.219368,3.111315,-1.338477,0.384444,0.006970,0.973135,0.230130,0.000000,0.000000,0.000000,-1,1.353129,1.609537,-0.561183,-0.009457,-0.912878,-0.118268
"2019-10-06 13:58:53.242 +0000",1570370333.241676,-3.087636,-1.359698,0.437434,-0.011300,0.977801,0.209229,0.000000,0.000000,0.000000,-1,0.640762,1.238066,-0.473834,0.030725,-0.854281,-0.109818
"2019-10-06 13:58:53.264 +0000",1570370333.263984,-3.024577,-1.350324,0.489689,-0.025532,0.975794,0.217195,0.000000,0.000000,0.000000,-1,-1.056550,0.084082,-0.631791,-0.026897,-0.797144,0.113081
"2019-10-06 13:58:53.286 +0000",1570370333.286292,-2.951004,-1.312769,0.553386,-0.048339,0.966895,0.250553,0.000000,0.000000,0.000000,-1,-1.601415,1.504535,-0.988263,0.003539,-0.230399,-0.109989
"2019-10-06 13:58:53.309 +0000",1570370333.308598,-2.953595,-1.257344,0.546852,-0.057627,0.951275,0.302912,0.000000,0.000000,0.000000,-1,-2.844769,-3.728499,0.434657,0.187602,1.183552,0.659353
"2019-10-06 13:58:53.331 +0000",1570370333.330907,-3.120633,-1.238283,0.442439,-0.006841,0.945225,0.326348,0.000000,0.000000,0.000000,-1,0.335320,3.456035,1.151304,0.411123,7.144756,2.542289
"2019-10-06 13:58:53.353 +0000",1570370333.353215,-2.930763,-1.239327,0.512638,-0.068104,0.945565,0.318227,0.000000,0.000000,0.000000,-1,0.285033,3.115707,-1.280878,0.446781,0.721564,-1.729070
"2019-10-06 13:58:53.376 +0000",1570370333.375523,-2.927970,-1.232046,0.540255,-0.070450,0.943171,0.324755,0.000000,0.000000,0.000000,-1,-0.846866,-3.441470,0.320076,0.264252,1.323980,1.198042
"2019-10-06 13:58:53.398 +0000",1570370333.397819,-2.978806,-1.246165,0.514295,-0.051693,0.947768,0.314743,0.000000,0.000000,0.000000,-1,1.410581,1.283423,0.356015,-0.427005,1.576539,0.136261
"2019-10-06 13:58:53.420 +0000",1570370333.420108,-2.997517,-1.285342,0.488909,-0.040431,0.959534,0.278676,0.000000,0.000000,0.000000,-1,1.636160,-1.062288,0.700715,0.349940,0.567413,-0.349141
"2019-10-06 13:58:53.442 +0000",1570370333.442418,-3.058109,-1.313449,0.467371,-0.021223,0.967069,0.253629,0.000000,0.000000,0.000000,-1,1.097183,-1.578390,0.268396,-0.081224,0.483554,0.212969
"2019-10-06 13:58:53.465 +0000",1570370333.464725,-3.077948,-1.344290,0.452287,-0.014283,0.974457,0.224120,0.000000,0.000000,0.000000,-1,1.491347,0.563558,0.289249,0.087907,0.453003,0.360658
"2019-10-06 13:58:53.487 +0000",1570370333.487032,-3.079838,-1.375290,0.421213,-0.011989,0.980949,0.193893,0.000000,0.000000,0.000000,-1,1.245406,1.352575,0.442169,0.090511,0.207329,0.053925
"2019-10-06 13:58:53.509 +0000",1570370333.509340,-3.100920,-1.396682,0.380972,-0.007044,0.984880,0.173093,0.000000,0.000000,0.000000,-1,0.719967,0.460007,0.317130,0.025263,-0.204271,-0.124524
"2019-10-06 13:58:53.532 +0000",1570370333.531649,-3.124272,-1.403999,0.359767,-0.002875,0.986121,0.166000,0.000000,0.000000,0.000000,-1,0.079896,-0.387585,0.065106,-0.036309,-0.510093,-0.097824
"2019-10-06 13:58:53.554 +0000",1570370333.553950,-3.106913,-1.394245,0.392159,-0.006090,0.984455,0.175530,0.000000,0.000000,0.000000,-1,-0.726589,-0.754135,-0.474102,-0.189375,-0.784275,0.089408
"2019-10-06 13:58:53.576 +0000",1570370333.576264,-3.062690,-1.365514,0.452312,-0.016067,0.979003,0.203209,0.000000,0.000000,0.000000,-1,-1.531855,-0.543002,-0.503613,-0.156433,-0.854736,0.368110
"2019-10-06 13:58:53.599 +0000",1570370333.598572,-3.076781,-1.332844,0.447577,-0.015266,0.971823,0.235219,0.000000,0.000000,0.000000,-1,-1.257958,-0.442966,0.205206,-0.082497,-0.666509,0.291255
"2019-10-06 13:58:53.621 +0000",1570370333.620870,-3.079976,-1.313406,0.447158,-0.015675,0.967058,0.254074,0.000000,0.000000,0.000000,-1,-0.688975,0.234228,-0.336475,-0.022670,-0.417573,-0.060532
"2019-10-06 13:58:53.643 +0000",1570370333.643189,-3.004375,-1.298615,0.511886,-0.036773,0.963187,0.266306,0.000000,0.000000,0.000000,-1,-0.632782,0.637324,-1.081872,-0.245042,-0.437247,-0.304392
"2019-10-06 13:58:53.665 +0000",1570370333.665476,-2.916342,-1.264504,0.597715,-0.067346,0.953458,0.293908,0.000000,0.000000,0.000000,-1,-1.835168,-0.151843,-1.433898,-0.187491,-0.013929,0.166175
"2019-10-06 13:58:53.688 +0000",1570370333.687773,-2.912887,-1.225901,0.626508,-0.076653,0.941111,0.329295,0.000000,0.000000,0.000000,-1,-0.873326,-1.565393,-0.274198,0.191475,0.300543,-0.018046
"2019-10-06 13:58:53.710 +0000",1570370333.710081,-2.924252,-1.232850,0.645448,-0.071493,0.943437,0.323751,0.000000,0.000000,0.000000,-1,0.743140,-0.887700,-0.482970,0.113806,0.327162,-0.122930
"2019-10-06 13:58:53.732 +0000",1570370333.732390,-2.837464,-1.237226,0.738846,-0.098049,0.944879,0.312393,0.000000,0.000000,0.000000,-1,0.320258,0.256620,-1.639568,-0.085026,0.340216,-0.195312
"2019-10-06 13:58:53.755 +0000",1570370333.754697,-2.745088,-1.221564,0.838271,-0.132148,0.939636,0.315630,0.000000,0.000000,0.000000,-1,-0.445079,-0.440926,-1.567955,0.039069,0.229142,-0.185854
"2019-10-06 13:58:53.777 +0000",1570370333.777006,-2.719932,-1.195086,0.893185,-0.150177,0.930247,0.334794,0.000000,0.000000,0.000000,-1,-0.778795,-1.605366,-1.078913,0.156448,0.137517,-0.009476
"2019-10-06 13:58:53.799 +0000",1570370333.799314,-2.717891,-1.181312,0.944342,-0.156114,0.925105,0.346135,0.000000,0.000000,0.000000,-1,0.199267,-2.066272,-1.081846,0.059983,0.102086,0.358913
"2019-10-06 13:58:53.822 +0000",1570370333.821621,-2.683474,-1.181461,1.016329,-0.167871,0.925162,0.340434,0.000000,0.000000,0.000000,-1,0.628949,-1.144643,-1.066272,0.100610,-0.033316,0.130940
"2019-10-06 13:58:53.844 +0000",1570370333.843944,-2.655365,-1.183404,1.078051,-0.176532,0.925897,0.333992,0.000000,0.000000,0.000000,-1,0.445410,-1.517640,-0.795083,0.160877,-0.208124,-0.060112
"2019-10-06 13:58:53.866 +0000",1570370333.866237,-2.659696,-1.179797,1.119538,-0.176630,0.924529,0.337710,0.000000,0.000000,0.000000,-1,0.019071,-2.127450,-0.658355,0.102717,-0.346358,-0.015933
"2019-10-06 13:58:53.889 +0000",1570370333.888528,-2.680117,-1.167506,1.150196,-0.174745,0.919775,0.351395,0.000000,0.000000,0.000000,-1,-0.356463,-2.125609,-0.777624,0.064775,-0.528707,0.146224
"2019-10-06 13:58:53.911 +0000",1570370333.910825,-2.685751,-1.153719,1.184375,-0.178328,0.914277,0.363727,0.000000,0.000000,0.000000,-1,-0.125124,-1.225110,-0.796683,-0.055864,-0.623841,0.347897
"2019-10-06 13:58:53.933 +0000",1570370333.933161,-2.671598,-1.148630,1.209557,-0.185563,0.912203,0.365310,0.000000,0.000000,0.000000,-1,-0.114855,-0.124693,-0.308990,-0.168655,-0.499407,0.279572
"2019-10-06 13:58:53.955 +0000",1570370333.955469,-2.710642,-1.132816,1.184655,-0.177166,0.905610,0.385334,0.000000,0.000000,0.000000,-1,-1.352451,-1.368947,0.316833,-0.307194,0.155791,0.261501
"2019-10-06 13:58:53.978 +0000",1570370333.977778,-2.817698,-1.093401,1.135625,-0.146231,0.888195,0.435576,0.000000,0.000000,0.000000,-1,-2.271720,-3.531533,0.106136,-0.344812,0.461094,0.476792
"2019-10-06 13:58:54.000 +0000",1570370334.000054,-2.870218,-1.055970,1.109592,-0.131986,0.870378,0.474364,0.000000,0.000000,0.000000,-1,-1.399889,0.336325,0.393476,0.101133,1.134657,-0.001753
"2019-10-06 13:58:54.022 +0000",1570370334.022364,-2.889257,-1.035063,1.071951,-0.127448,0.859894,0.494307,0.000000,0.000000,0.000000,-1,-0.693757,-0.364129,0.187864,0.674628,0.783065,-0.815229
"2019-10-06 13:58:54.045 +0000",1570370334.044670,-2.870273,-1.048023,1.112008,-0.133810,0.866438,0.481020,0.000000,0.000000,0.000000,-1,1.383678,0.040369,-1.052896,0.630621,-0.788542,-0.809664
"2019-10-06 13:58:54.067 +0000",1570370334.066979,-2.811612,-1.073555,1.153216,-0.154561,0.878902,0.451268,0.000000,0.000000,0.000000,-1,1.420207,1.343482,-0.003785,0.906468,-0.753352,-0.450704
"2019-10-06 13:58:54.089 +0000",1570370334.089287,-2.756018,-1.117676,1.152774,-0.164642,0.899086,0.405633,0.000000,0.000000,0.000000,-1,1.933392,3.136085,0.964271,0.255402,0.612938,-0.885933
"2019-10-06 13:58:54.112 +0000",1570370334.111595,-2.715920,-1.159644,1.130813,-0.165035,0.916661,0.364000,0.000000,0.000000,0.000000,-1,1.314431,2.052221,1.007122,-0.016071,1.081218,-0.752657
"2019-10-06 13:58:54.134 +0000",1570370334.133895,-2.684158,-1.189771,1.143375,-0.164236,0.928284,0.333639,0.000000,0.000000,0.000000,-1,1.400728,0.572039,-0.036643,-0.215295,0.663269,-0.649389
"2019-10-06 13:58:54.156 +0000",1570370334.156211,-2.597479,-1.216463,1.225145,-0.179610,0.937878,0.296858,0.000000,0.000000,0.000000,-1,1.868340,0.100001,-0.636396,-0.175233,0.195743,-0.576537
"2019-10-06 13:58:54.179 +0000",1570370334.178518,-2.550693,-1.249028,1.304400,-0.176182,0.948678,0.262622,0.000000,0.000000,0.000000,-1,1.704328,-1.909818,0.084761,0.170689,-0.111581,-0.347446
"2019-10-06 13:58:54.201 +0000",1570370334.200827,-2.560183,-1.276341,1.345143,-0.159389,0.956960,0.242533,0.000000,0.000000,0.000000,-1,1.184094,-2.186340,0.209807,0.208446,0.010905,-0.181040
"2019-10-06 13:58:54.223 +0000",1570370334.223133,-2.561171,-1.301841,1.390571,-0.145717,0.964049,0.222208,0.000000,0.000000,0.000000,-1,1.311939,-1.801591,0.120849,0.197200,0.093690,-0.047464
"2019-10-06 13:58:54.245 +0000",1570370334.245442,-2.522778,-1.324904,1.458129,-0.141202,0.969920,0.198284,0.000000,0.000000,0.000000,-1,1.272578,-0.734975,-0.175201,0.145047,-0.056941,0.025380
"2019-10-06 13:58:54.268 +0000",1570370334.267750,-2.451510,-1.342129,1.530462,-0.144304,0.973969,0.174813,0.000000,0.000000,0.000000,-1,0.893798,0.406927,-0.051521,0.184145,-0.192857,0.085318
"2019-10-06 13:58:54.290 +0000",1570370334.290026,-2.404130,-1.353415,1.564760,-0.145021,0.976466,0.159636,0.000000,0.000000,0.000000,-1,0.501979,0.675510,0.097273,0.064073,-0.246607,0.018174
"2019-10-06 13:58:54.312 +0000",1570370334.312334,-2.354504,-1.362657,1.599969,-0.146363,0.978417,0.145869,0.000000,0.000000,0.000000,-1,0.591851,0.713241,-0.017153,-0.140060,-0.123635,-0.113124
"2019-10-06 13:58:54.335 +0000",1570370334.334642,-2.269184,-1.371492,1.669346,-0.151634,0.980205,0.127302,0.000000,0.000000,0.000000,-1,0.805810,0.785358,-0.160363,-0.137474,-0.093745,-0.167143
"2019-10-06 13:58:54.357 +0000",1570370334.356944,-2.161619,-1.380492,1.761999,-0.157092,0.981947,0.105369,0.000000,0.000000,0.000000,-1,0.939930,0.732462,-0.174723,-0.122067,-0.057264,-0.278984
"2019-10-06 13:58:54.379 +0000",1570370334.379260,-2.038739,-1.389733,1.876018,-0.160717,0.983653,0.081223,0.000000,0.000000,0.000000,-1,1.090553,0.272842,-0.072576,-0.040776,0.007497,-0.307419
"2019-10-06 13:58:54.402 +0000",1570370334.401567,-1.902097,-1.400529,2.016324,-0.160231,0.985540,0.055116,0.000000,0.000000,0.000000,-1,1.212504,-0.192768,0.074272,0.066664,0.043940,0.083480
"2019-10-06 13:58:54.424 +0000",1570370334.423880,-1.761560,-1.409219,2.162153,-0.157956,0.986975,0.030503,0.000000,0.000000,0.000000,-1,1.100997,-0.109095,0.092090,0.071973,0.029886,0.201766
"2019-10-06 13:58:54.446 +0000",1570370334.446174,-1.631847,-1.413612,2.296542,-0.156246,0.987672,0.009551,0.000000,0.000000,0.000000,-1,0.856272,-0.180623,0.072771,0.085934,0.025908,0.189729
"2019-10-06 13:58:54.468 +0000",1570370334.468491,-1.543767,-1.416406,2.385989,-0.153722,0.988105,-0.004156,0.000000,0.000000,0.000000,-1,0.510584,0.204506,0.133713,-0.010982,0.003228,0.012625
"2019-10-06 13:58:54.491 +0000",1570370334.490798,-1.470374,-1.418566,2.452598,-0.150879,0.988435,-0.015203,0.000000,0.000000,0.000000,-1,0.432847,0.277035,0.129314,-0.088714,-0.065111,-0.094157
"2019-10-06 13:58:54.513 +0000",1570370334.513108,-1.398296,-1.419747,2.523036,-0.148243,0.988614,-0.025829,0.000000,0.000000,0.000000,-1,0.504110,0.040807,0.111593,-0.085583,-0.047070,-0.124913
"2019-10-06 13:58:54.535 +0000",1570370334.535403,-1.321124,-1.419511,2.603390,-0.146036,0.988578,-0.037238,0.000000,0.000000,0.000000,-1,0.527766,-0.191698,0.107465,0.101404,0.083855,-0.006082
"2019-10-06 13:58:54.558 +0000",1570370334.557693,-1.258566,-1.419436,2.671453,-0.143492,0.988567,-0.046318,0.000000,0.000000,0.000000,-1,0.393651,-0.201496,0.133546,0.181807,0.141392,0.126136
"2019-10-06 13:58:54.580 +0000",1570370334.580005,-1.204490,-1.419398,2.724701,-0.140815,0.988561,-0.054019,0.000000,0.000000,0.000000,-1,0.292279,0.270753,0.110702,0.187034,0.102717,0.165744
"2019-10-06 13:58:54.602 +0000",1570370334.602309,-1.170510,-1.420436,2.748269,-0.137953,0.988717,-0.058372,0.000000,0.000000,0.000000,-1,0.020240,0.562141,0.099316,0.056349,0.101691,0.145118
"2019-10-06 13:58:54.625 +0000",1570370334.624616,-1.193393,-1.423063,2.712950,-0.136837,0.989107,-0.054243,0.000000,0.000000,0.000000,-1,-0.415856,0.481256,-0.092437,-0.261554,0.232099,0.093733
"2019-10-06 13:58:54.647 +0000",1570370334.646934,-1.287737,-1.419388,2.610898,-0.144828,0.988560,-0.042126,0.000000,0.000000,0.000000,-1,-0.657577,0.168100,-0.564888,-0.650628,0.426373,0.013180
"2019-10-06 13:58:54.669 +0000",1570370334.669223,-1.409792,-1.405499,2.491525,-0.162417,0.986370,-0.026378,0.000000,0.000000,0.000000,-1,-0.728163,-0.438287,-0.854784,-0.696180,0.227009,-0.189107
"2019-10-06 13:58:54.692 +0000",1570370334.691535,-1.573462,-1.389673,2.345224,-0.180134,0.983642,0.000480,0.000000,0.000000,0.000000,-1,-1.302596,-0.954677,-0.703644,0.302022,0.466675,-0.121864
"2019-10-06 13:58:54.714 +0000",1570370334.713842,-1.787686,-1.381048,2.144012,-0.184193,0.982052,0.040588,0.000000,0.000000,0.000000,-1,-1.900972,-0.597361,0.146420,0.795353,0.199970,-0.060302
"2019-10-06 13:58:54.736 +0000",1570370334.736133,-2.047620,-1.371678,1.886815,-0.175741,0.980241,0.090784,0.000000,0.000000,0.000000,-1,-2.429125,-0.156357,0.361855,0.684652,0.192244,-0.118357
"2019-10-06 13:58:54.758 +0000",1570370334.758457,-2.295378,-1.345934,1.634905,-0.166956,0.974825,0.147791,0.000000,0.000000,0.000000,-1,-2.584363,0.050395,0.400892,0.299692,0.402006,-0.212473
"2019-10-06 13:58:54.781 +0000",1570370334.780766,-2.425901,-1.314466,1.479471,-0.166352,0.967327,0.191325,0.000000,0.000000,0.000000,-1,-1.839597,1.509658,0.078122,0.084260,0.260868,-0.503535
"2019-10-06 13:58:54.803 +0000",1570370334.803073,-2.457075,-1.287058,1.405206,-0.177010,0.960016,0.216881,0.000000,0.000000,0.000000,-1,-1.476788,1.818709,-0.207309,-0.049751,0.113776,-0.597985
"2019-10-06 13:58:54.825 +0000",1570370334.825381,-2.484595,-1.250839,1.339773,-0.192094,0.949249,0.249051,0.000000,0.000000,0.000000,-1,-2.027295,1.328147,-0.395474,-0.066039,0.102982,-0.280744
"2019-10-06 13:58:54.848 +0000",1570370334.847658,-2.521130,-1.206606,1.276147,-0.207094,0.934413,0.289801,0.000000,0.000000,0.000000,-1,-2.173033,0.954140,-0.389735,0.009722,0.011876,-0.209083
"2019-10-06 13:58:54.870 +0000",1570370334.869974,-2.555743,-1.166182,1.222045,-0.217660,0.919254,0.328018,0.000000,0.000000,0.000000,-1,-1.862727,0.535517,-0.201046,0.120080,-0.078312,-0.285293
"2019-10-06 13:58:54.892 +0000",1570370334.892276,-2.589189,-1.134069,1.176443,-0.221950,0.906141,0.360065,0.000000,0.000000,0.000000,-1,-1.569869,0.329672,-0.020455,0.191219,-0.085798,-0.374622
"2019-10-06 13:58:54.915 +0000",1570370334.914583,-2.618259,-1.104626,1.133547,-0.224631,0.893296,0.389310,0.000000,0.000000,0.000000,-1,-1.612247,0.402442,0.033465,0.158255,-0.108857,-0.471311
"2019-10-06 13:58:54.937 +0000",1570370334.936892,-2.649442,-1.073300,1.097021,-0.225500,0.878780,0.420589,0.000000,0.000000,0.000000,-1,-1.590404,-0.183418,-0.048163,0.130331,-0.037136,-0.567318
"2019-10-06 13:58:54.959 +0000",1570370334.959199,-2.686596,-1.041058,1.066784,-0.222062,0.862939,0.453899,0.000000,0.000000,0.000000,-1,-1.620828,-0.691458,-0.041185,0.139558,0.037726,-0.548870
"2019-10-06 13:58:54.982 +0000",1570370334.981505,-2.740713,-1.009860,1.029069,-0.207594,0.846757,0.489803,0.000000,0.000000,0.000000,-1,-1.589489,-1.141449,0.337466,0.188169,-0.052736,-0.531795
"2019-10-06 13:58:55.004 +0000",1570370335.003815,-2.802454,-0.982776,0.994264,-0.184540,0.832040,0.523119,0.000000,0.000000,0.000000,-1,-1.336551,-1.563429,0.300382,0.153900,-0.017130,-0.408419
"2019-10-06 13:58:55.026 +0000",1570370335.026118,-2.850825,-0.961633,0.976604,-0.164038,0.820127,0.548164,0.000000,0.000000,0.000000,-1,-0.788235,-1.456043,0.015580,0.184881,-0.009840,-0.257560
"2019-10-06 13:58:55.048 +0000",1570370335.048430,-2.871148,-0.953129,0.980707,-0.154721,0.815232,0.558085,0.000000,0.000000,0.000000,-1,-0.129229,-0.680779,-0.306116,0.124402,-0.045456,-0.013560
"2019-10-06 13:58:55.071 +0000",1570370335.070740,-2.863049,-0.953431,0.994354,-0.159169,0.815406,0.556577,0.000000,0.000000,0.000000,-1,0.248708,0.025390,-0.332071,0.022603,-0.108589,-0.070386
"2019-10-06 13:58:55.093 +0000",1570370335.093031,-2.856276,-0.961319,1.010872,-0.161120,0.819947,0.549297,0.000000,0.000000,0.000000,-1,0.547118,-0.517977,-0.271296,-0.063368,-0.145326,-0.081813
"2019-10-06 13:58:55.115 +0000",1570370335.115325,-2.867047,-0.972527,1.024481,-0.152692,0.826312,0.542120,0.000000,0.000000,0.000000,-1,0.567076,-1.296257,-0.167617,-0.164355,-0.110614,-0.109732
"2019-10-06 13:58:55.138 +0000",1570370335.137632,-2.896152,-0.980844,1.035423,-0.135177,0.830967,0.539648,0.000000,0.000000,0.000000,-1,0.329504,-1.894299,-0.189701,-0.207352,-0.000752,-0.017096
"2019-10-06 13:58:55.160 +0000",1570370335.159956,-2.928620,-0.983075,1.047862,-0.117196,0.832206,0.541939,0.000000,0.000000,0.000000,-1,0.090671,-1.873982,-0.317760,-0.160697,0.100381,0.070899
"2019-10-06 13:58:55.182 +0000",1570370335.182248,-2.954830,-0.981393,1.059381,-0.103212,0.831273,0.546199,0.000000,0.000000,0.000000,-1,-0.111930,-1.395275,-0.250144,0.006914,0.218318,0.118520
"2019-10-06 13:58:55.205 +0000",1570370335.204556,-2.972880,-0.971740,1.066763,-0.094680,0.825868,0.555858,0.000000,0.000000,0.000000,-1,-0.567213,-0.920894,-0.319058,0.117446,0.313277,0.267079
"2019-10-06 13:58:55.227 +0000",1570370335.226865,-2.978577,-0.956318,1.083144,-0.093568,0.817074,0.568889,0.000000,0.000000,0.000000,-1,-0.539513,-0.876484,-0.608486,0.038530,0.134189,0.145451
"2019-10-06 13:58:55.249 +0000",1570370335.249172,-2.987087,-0.948168,1.102032,-0.089746,0.812348,0.576226,0.000000,0.000000,0.000000,-1,-0.098919,-1.205464,-0.475121,0.016275,-0.110246,0.003288
"2019-10-06 13:58:55.271 +0000",1570370335.271480,-3.006345,-0.949567,1.117090,-0.078479,0.813164,0.576720,0.000000,0.000000,0.000000,-1,0.208800,-1.439758,-0.336449,0.032596,-0.128074,-0.071578
"2019-10-06 13:58:55.294 +0000",1570370335.293789,-3.027123,-0.955008,1.126640,-0.065974,0.816318,0.573822,0.000000,0.000000,0.000000,-1,0.247643,-1.294759,-0.063560,0.305109,0.023190,-0.139389
"2019-10-06 13:58:55.316 +0000",1570370335.316090,-3.072614,-0.954494,1.116296,-0.039839,0.816022,0.576647,0.000000,0.000000,0.000000,-1,-0.270236,-1.746037,0.360767,0.385451,0.692142,0.061079
"2019-10-06 13:58:55.338 +0000",1570370335.338404,-3.084540,-0.946380,1.114353,-0.033336,0.811305,0.583672,0.000000,0.000000,0.000000,-1,-0.215721,0.584207,-0.197048,0.125866,1.000265,0.174293
"2019-10-06 13:58:55.361 +0000",1570370335.360681,-3.045938,-0.955708,1.132706,-0.055112,0.816723,0.574393,0.000000,0.000000,0.000000,-1,0.886925,1.078989,-0.569408,0.263821,-0.071316,-0.414175
"2019-10-06 13:58:55.383 +0000",1570370335.383007,-3.002990,-0.983188,1.158978,-0.076591,0.832269,0.549056,0.000000,0.000000,0.000000,-1,1.436866,0.815419,-0.393157,0.286858,-0.225198,-0.467192
"2019-10-06 13:58:55.405 +0000",1570370335.405297,-2.978511,-1.018259,1.169170,-0.085214,0.851196,0.517885,0.000000,0.000000,0.000000,-1,1.692751,0.696194,0.241927,0.152109,-0.207732,-0.607423
"2019-10-06 13:58:55.428 +0000",1570370335.427605,-2.970686,-1.057525,1.157697,-0.083512,0.871143,0.483876,0.000000,0.000000,0.000000,-1,1.640743,0.863963,0.687010,-0.078765,0.311657,-0.683201
"2019-10-06 13:58:55.450 +0000",1570370335.449914,-2.971772,-1.093745,1.137497,-0.077601,0.888353,0.452557,0.000000,0.000000,0.000000,-1,1.453324,0.605224,0.602389,-0.193929,0.414290,-0.743893
"2019-10-06 13:58:55.472 +0000",1570370335.472222,-2.967730,-1.127626,1.134865,-0.074178,0.903397,0.422341,0.000000,0.000000,0.000000,-1,1.566573,0.080759,0.162980,-0.219034,0.139129,-0.568444
"2019-10-06 13:58:55.495 +0000",1570370335.494529,-2.964432,-1.164410,1.154022,-0.069664,0.918555,0.389105,0.000000,0.000000,0.000000,-1,1.707264,-1.037620,-0.214081,-0.160682,-0.073463,-0.437583
"2019-10-06 13:58:55.517 +0000",1570370335.516838,-2.948717,-1.200086,1.196749,-0.069442,0.932070,0.355560,0.000000,0.000000,0.000000,-1,1.684833,-0.974751,-0.496252,-0.097916,-0.042132,-0.478577
"2019-10-06 13:58:55.539 +0000",1570370335.539135,-2.914950,-1.231833,1.249564,-0.074717,0.943100,0.324006,0.000000,0.000000,0.000000,-1,1.501873,-0.550535,-0.524906,0.027903,-0.014435,-0.381486
"2019-10-06 13:58:55.561 +0000",1570370335.561453,-2.860907,-1.261970,1.317022,-0.084196,0.952691,0.292046,0.000000,0.000000,0.000000,-1,1.516747,-0.449889,-0.585339,0.282942,-0.009957,-0.210412
"2019-10-06 13:58:55.584 +0000",1570370335.583762,-2.818876,-1.286278,1.379150,-0.089021,0.959797,0.266205,0.000000,0.000000,0.000000,-1,1.158417,-0.996714,-0.392076,0.303147,0.029613,-0.130142
"2019-10-06 13:58:55.606 +0000",1570370335.606040,-2.792326,-1.305758,1.426078,-0.089640,0.965083,0.246131,0.000000,0.000000,0.000000,-1,0.890033,-0.519835,-0.153278,0.271952,0.033819,0.076684
"2019-10-06 13:58:55.628 +0000",1570370335.628347,-2.753920,-1.319721,1.456945,-0.093921,0.968646,0.230009,0.000000,0.000000,0.000000,-1,0.635339,0.872819,-0.095039,0.139728,0.053220,0.090486
"2019-10-06 13:58:55.651 +0000",1570370335.650655,-2.703894,-1.330085,1.482926,-0.101045,0.971169,0.215920,0.000000,0.000000,0.000000,-1,0.497635,1.078324,-0.062186,-0.041228,-0.008827,-0.135262
"2019-10-06 13:58:55.673 +0000",1570370335.672963,-2.657920,-1.339118,1.511085,-0.106777,0.973282,0.203273,0.000000,0.000000,0.000000,-1,0.519731,0.701694,-0.117139,-0.164860,-0.043900,-0.210109
"2019-10-06 13:58:55.695 +0000",1570370335.695271,-2.600169,-1.348797,1.556161,-0.113471,0.975459,0.188689,0.000000,0.000000,0.000000,-1,0.653293,0.585678,-0.213683,-0.211053,-0.015468,-0.194182
"2019-10-06 13:58:55.718 +0000",1570370335.717578,-2.527679,-1.359576,1.621387,-0.120775,0.977776,0.171370,0.000000,0.000000,0.000000,-1,0.803331,0.292697,-0.282969,-0.069624,-0.068688,-0.102202
"2019-10-06 13:58:55.740 +0000",1570370335.739886,-2.442796,-1.370518,1.698961,-0.127979,0.980011,0.152314,0.000000,0.000000,0.000000,-1,0.811233,0.513111,-0.227857,0.038212,-0.081986,-0.048050
"2019-10-06 13:58:55.762 +0000",1570370335.762193,-2.352996,-1.382630,1.778309,-0.132693,0.982349,0.131846,0.000000,0.000000,0.000000,-1,0.882062,0.441163,-0.072120,0.102801,-0.025424,-0.095042
"2019-10-06 13:58:55.785 +0000",1570370335.784501,-2.281484,-1.396028,1.842306,-0.131786,0.984767,0.113431,0.000000,0.000000,0.000000,-1,0.736283,0.439571,0.168497,0.113979,-0.082408,-0.056638
"2019-10-06 13:58:55.807 +0000",1570370335.806811,-2.209711,-1.410348,1.900976,-0.128247,0.987156,0.095270,0.000000,0.000000,0.000000,-1,0.766904,0.705615,0.250505,0.071073,-0.043278,-0.150506
"2019-10-06 13:58:55.829 +0000",1570370335.829106,-2.118888,-1.425507,1.976719,-0.123572,0.989464,0.075438,0.000000,0.000000,0.000000,-1,0.820958,0.698372,0.280365,0.041739,-0.005379,-0.166045
"2019-10-06 13:58:55.851 +0000",1570370335.851424,-2.013506,-1.439215,2.068415,-0.118554,0.991356,0.056206,0.000000,0.000000,0.000000,-1,0.768171,0.630636,0.266058,-0.050712,-0.001106,-0.140007
"2019-10-06 13:58:55.874 +0000",1570370335.873700,-1.896694,-1.450776,2.174507,-0.113430,0.992806,0.038333,0.000000,0.000000,0.000000,-1,0.740364,0.438645,0.246661,-0.183659,-0.001092,-0.040408
"2019-10-06 13:58:55.896 +0000",1570370335.896009,-1.764578,-1.459904,2.299093,-0.108594,0.993858,0.021311,0.000000,0.000000,0.000000,-1,0.718844,0.376982,0.208742,-0.260715,0.042336,-0.022089
"2019-10-06 13:58:55.918 +0000",1570370335.918320,-1.603283,-1.464468,2.451806,-0.106072,0.994352,0.003447,0.000000,0.000000,0.000000,-1,0.797288,0.441622,0.055616,-0.229011,0.074037,-0.083556
"2019-10-06 13:58:55.941 +0000",1570370335.940627,-1.427000,-1.463040,2.620508,-0.106437,0.994200,-0.015412,0.000000,0.000000,0.000000,-1,0.794353,0.323199,-0.028931,-0.040261,0.165346,0.072266
"2019-10-06 13:58:55.963 +0000",1570370335.962935,-1.273036,-1.459191,2.769114,-0.106473,0.993779,-0.032675,0.000000,0.000000,0.000000,-1,0.707948,0.290108,0.012263,-0.036044,0.241253,0.200720
"2019-10-06 13:58:55.985 +0000",1570370335.985243,-1.165966,-1.454975,2.868891,-0.106222,0.993300,-0.045516,0.000000,0.000000,0.000000,-1,0.405564,0.375953,-0.023363,-0.086787,0.273896,0.240523
"2019-10-06 13:58:56.008 +0000",1570370336.007538,-1.141727,-1.453136,2.891029,-0.106748,0.993086,-0.048837,0.000000,0.000000,0.000000,-1,0.002416,-0.132418,-0.061202,-0.392565,0.414018,0.063821
"2019-10-06 13:58:56.030 +0000",1570370336.029859,-1.172685,-1.448016,2.865430,-0.112894,0.992472,-0.047480,0.000000,0.000000,0.000000,-1,-0.047983,-0.254318,-0.403771,-0.471991,0.336370,-0.003317
"2019-10-06 13:58:56.052 +0000",1570370336.052149,-1.276518,-1.437983,2.772594,-0.126730,0.991193,-0.038409,0.000000,0.000000,0.000000,-1,-0.593979,-0.783466,-0.709443,-0.087519,0.308138,0.045260
"2019-10-06 13:58:56.074 +0000",1570370336.074474,-1.482700,-1.427427,2.585277,-0.142325,0.989740,-0.012571,0.000000,0.000000,0.000000,-1,-1.326168,-0.867042,-0.609771,0.177328,0.305655,0.155363
"2019-10-06 13:58:56.097 +0000",1570370336.096783,-1.755130,-1.414047,2.314812,-0.153464,0.987740,0.028613,0.000000,0.000000,0.000000,-1,-2.128877,0.150555,-0.455396,0.159552,0.170997,-0.052600
"2019-10-06 13:58:56.119 +0000",1570370336.119061,-2.029876,-1.388389,2.036306,-0.162616,0.983410,0.080382,0.000000,0.000000,0.000000,-1,-2.470225,-0.329196,-0.415308,0.222354,0.005070,-0.470976
"2019-10-06 13:58:56.141 +0000",1570370336.141368,-2.273620,-1.347378,1.805807,-0.169058,0.975146,0.143213,0.000000,0.000000,0.000000,-1,-2.923275,-0.963954,-0.365208,0.285452,-0.016879,-0.463114
"2019-10-06 13:58:56.164 +0000",1570370336.163676,-2.462610,-1.292882,1.621881,-0.172293,0.961630,0.213503,0.000000,0.000000,0.000000,-1,-3.224130,-0.043157,-0.166340,0.373480,0.249048,-0.229265
"2019-10-06 13:58:56.186 +0000",1570370336.185984,-2.558014,-1.238112,1.505685,-0.179951,0.945169,0.272531,0.000000,0.000000,0.000000,-1,-2.656586,1.127980,-0.221152,0.299137,0.275122,-0.301813
"2019-10-06 13:58:56.208 +0000",1570370336.208291,-2.582133,-1.189348,1.437291,-0.197572,0.928127,0.315510,0.000000,0.000000,0.000000,-1,-2.333805,2.083719,-0.280360,0.241761,0.300160,-0.316624
"2019-10-06 13:58:56.231 +0000",1570370336.230614,-2.582627,-1.143333,1.384816,-0.219847,0.910020,0.351469,0.000000,0.000000,0.000000,-1,-2.273731,1.961911,-0.292899,0.138915,0.235686,-0.289442
"2019-10-06 13:58:56.253 +0000",1570370336.252908,-2.592449,-1.091932,1.334627,-0.240503,0.887519,0.393025,0.000000,0.000000,0.000000,-1,-2.489453,1.323849,-0.487054,-0.068014,0.208612,-0.446370
"2019-10-06 13:58:56.275 +0000",1570370336.275198,-2.616668,-1.042736,1.304708,-0.252508,0.863786,0.436020,0.000000,0.000000,0.000000,-1,-2.099961,-0.760282,-0.593682,-0.072657,0.082991,-0.628571
"2019-10-06 13:58:56.298 +0000",1570370336.297524,-2.670951,-0.995283,1.278950,-0.246802,0.838913,0.485092,0.000000,0.000000,0.000000,-1,-2.191490,-1.558138,-0.450179,-0.035440,-0.002319,-0.498748
"2019-10-06 13:58:56.320 +0000",1570370336.319833,-2.720403,-0.948429,1.259950,-0.238341,0.812501,0.532011,0.000000,0.000000,0.000000,-1,-2.019642,-1.491677,-0.460619,-0.073411,0.110152,-0.519285
"2019-10-06 13:58:56.342 +0000",1570370336.342137,-2.764859,-0.907632,1.246364,-0.226475,0.788048,0.572441,0.000000,0.000000,0.000000,-1,-1.683010,-1.527972,-0.339821,-0.002773,0.083976,-0.518211
"2019-10-06 13:58:56.364 +0000",1570370336.364419,-2.805403,-0.875923,1.238883,-0.211226,0.768135,0.604444,0.000000,0.000000,0.000000,-1,-1.227299,-1.500371,-0.250551,0.131987,0.006584,-0.467069
"2019-10-06 13:58:56.387 +0000",1570370336.386723,-2.838166,-0.856219,1.232656,-0.195798,0.755370,0.625363,0.000000,0.000000,0.000000,-1,-0.664172,-1.148649,-0.020210,0.328412,-0.154189,-0.438046
"2019-10-06 13:58:56.409 +0000",1570370336.409034,-2.863947,-0.851704,1.229820,-0.180545,0.752404,0.633476,0.000000,0.000000,0.000000,-1,0.062198,-0.990886,-0.021300,0.349811,-0.227013,-0.424888
"2019-10-06 13:58:56.431 +0000",1570370336.431340,-2.874137,-0.860059,1.239754,-0.172413,0.757881,0.629198,0.000000,0.000000,0.000000,-1,0.634601,-0.671800,-0.279438,0.341389,-0.277885,-0.383806
"2019-10-06 13:58:56.454 +0000",1570370336.453649,-2.869743,-0.876622,1.256558,-0.171782,0.768582,0.616257,0.000000,0.000000,0.000000,-1,0.955102,-0.173166,-0.205573,0.264189,-0.413449,-0.332138
"2019-10-06 13:58:56.476 +0000",1570370336.475957,-2.860161,-0.900639,1.266237,-0.172501,0.783724,0.596674,0.000000,0.000000,0.000000,-1,1.201531,0.201168,0.180740,0.146470,-0.326907,-0.227945
"2019-10-06 13:58:56.498 +0000",1570370336.498268,-2.853001,-0.929671,1.267043,-0.170220,0.801423,0.573364,0.000000,0.000000,0.000000,-1,1.225149,0.315264,0.416681,-0.006538,-0.156877,-0.075851
"2019-10-06 13:58:56.521 +0000",1570370336.520574,-2.853660,-0.954135,1.261009,-0.164225,0.815814,0.554507,0.000000,0.000000,0.000000,-1,0.824940,0.040879,0.444996,-0.144384,0.127851,0.096509
"2019-10-06 13:58:56.543 +0000",1570370336.542882,-2.863541,-0.966079,1.257032,-0.156051,0.822663,0.546693,0.000000,0.000000,0.000000,-1,0.335205,-0.547430,0.103898,-0.290650,0.534515,0.289717
"2019-10-06 13:58:56.565 +0000",1570370336.565178,-2.889305,-0.969010,1.265062,-0.141314,0.824326,0.548195,0.000000,0.000000,0.000000,-1,0.042886,-1.966202,-0.286809,-0.280408,0.544159,0.415733
"2019-10-06 13:58:56.587 +0000",1570370336.587498,-2.921267,-0.960584,1.285038,-0.125237,0.819526,0.559189,0.000000,0.000000,0.000000,-1,-0.338027,-2.029820,-0.791308,-0.232765,0.411034,0.550659
"2019-10-06 13:58:56.610 +0000",1570370336.609774,-2.912101,-0.953018,1.322768,-0.131764,0.815167,0.564039,0.000000,0.000000,0.000000,-1,0.054568,-0.327009,-1.081654,-0.167080,-0.073041,0.131517
"2019-10-06 13:58:56.632 +0000",1570370336.632083,-2.888112,-0.950806,1.359090,-0.145707,0.813884,0.562461,0.000000,0.000000,0.000000,-1,0.061815,-0.467458,-0.818650,-0.153838,-0.226588,-0.000861
"2019-10-06 13:58:56.654 +0000",1570370336.654411,-2.887693,-0.947282,1.380127,-0.146662,0.811831,0.565172,0.000000,0.000000,0.000000,-1,0.183769,-0.468410,-0.441465,-0.136235,0.157560,0.110197
"2019-10-06 13:58:56.677 +0000",1570370336.676698,-2.851178,-0.957446,1.386140,-0.164826,0.817724,0.551507,0.000000,0.000000,0.000000,-1,0.295009,1.918507,0.290403,0.455872,0.737864,-0.440911
"2019-10-06 13:58:56.699 +0000",1570370336.699006,-2.870874,-0.957199,1.353006,-0.153986,0.817582,0.554841,0.000000,0.000000,0.000000,-1,-0.374344,-1.099316,0.952398,0.670176,0.352767,-0.133912
"2019-10-06 13:58:56.721 +0000",1570370336.721301,-2.913683,-0.970410,1.341345,-0.127648,0.825117,0.550352,0.000000,0.000000,0.000000,-1,1.134117,-0.849526,0.168046,0.448388,0.077699,-0.025343
"2019-10-06 13:58:56.744 +0000",1570370336.743611,-2.895970,-1.004488,1.350341,-0.130460,0.843888,0.520417,0.000000,0.000000,0.000000,-1,1.636997,1.070795,0.125164,0.092222,-0.079132,-0.634797
"2019-10-06 13:58:56.766 +0000",1570370336.765931,-2.847187,-1.040792,1.363709,-0.146692,0.862805,0.483786,0.000000,0.000000,0.000000,-1,1.645429,1.928519,0.203151,0.029368,0.020923,-0.827826
"2019-10-06 13:58:56.788 +0000",1570370336.788206,-2.803588,-1.077896,1.362599,-0.156910,0.880964,0.446409,0.000000,0.000000,0.000000,-1,1.469440,1.888662,0.731900,0.087681,0.056292,-0.904127
"2019-10-06 13:58:56.811 +0000",1570370336.810546,-2.792559,-1.108424,1.339508,-0.152552,0.894997,0.419176,0.000000,0.000000,0.000000,-1,0.887904,1.150027,0.973910,0.090647,0.102547,-0.713045
"2019-10-06 13:58:56.833 +0000",1570370336.832855,-2.801709,-1.130734,1.308827,-0.142017,0.904725,0.401626,0.000000,0.000000,0.000000,-1,0.890462,0.494870,0.788684,-0.155270,0.158324,-0.376724
"2019-10-06 13:58:56.855 +0000",1570370336.855132,-2.813919,-1.162900,1.315846,-0.127668,0.917957,0.375573,0.000000,0.000000,0.000000,-1,1.528423,-1.456201,0.070636,-0.204638,0.223888,-0.390832
"2019-10-06 13:58:56.877 +0000",1570370336.877440,-2.809203,-1.190860,1.351211,-0.121013,0.928688,0.350562,0.000000,0.000000,0.000000,-1,1.314354,-0.927225,-0.221957,-0.009740,0.110405,-0.248878
"2019-10-06 13:58:56.900 +0000",1570370336.899742,-2.787226,-1.215261,1.387042,-0.120787,0.937460,0.326464,0.000000,0.000000,0.000000,-1,1.139669,-0.446974,-0.076189,0.251082,-0.054587,-0.267779
"2019-10-06 13:58:56.922 +0000",1570370336.922050,-2.781545,-1.236628,1.407244,-0.115555,0.944683,0.306954,0.000000,0.000000,0.000000,-1,0.978274,-0.670392,0.063425,0.226959,-0.027432,-0.237526
"2019-10-06 13:58:56.944 +0000",1570370336.944364,-2.767754,-1.257667,1.436429,-0.112492,0.951374,0.286761,0.000000,0.000000,0.000000,-1,1.026741,-0.424928,-0.088838,0.121999,-0.002705,-0.062549
"2019-10-06 13:58:56.967 +0000",1570370336.966671,-2.726573,-1.275687,1.473782,-0.117271,0.956770,0.266154,0.000000,0.000000,0.000000,-1,0.862829,0.631407,-0.166515,-0.007012,-0.050505,-0.072673
"2019-10-06 13:58:56.989 +0000",1570370336.988980,-2.665548,-1.290093,1.516946,-0.126955,0.960861,0.246230,0.000000,0.000000,0.000000,-1,0.831425,0.904268,-0.223534,-0.056563,-0.062606,-0.268706
"2019-10-06 13:58:57.011 +0000",1570370337.011286,-2.603859,-1.304182,1.564305,-0.134945,0.964669,0.226284,0.000000,0.000000,0.000000,-1,0.801223,0.574695,-0.192089,-0.060520,-0.004601,-0.215450
"2019-10-06 13:58:57.034 +0000",1570370337.033595,-2.545535,-1.318132,1.618195,-0.140337,0.968250,0.206876,0.000000,0.000000,0.000000,-1,0.910166,0.095116,-0.156772,-0.056394,0.014538,-0.159879
"2019-10-06 13:58:57.056 +0000",1570370337.055903,-2.488554,-1.333896,1.678908,-0.142599,0.972070,0.186401,0.000000,0.000000,0.000000,-1,0.964263,-0.048544,-0.093446,-0.028391,0.015891,0.041046
"2019-10-06 13:58:57.078 +0000",1570370337.078186,-2.419561,-1.348688,1.741252,-0.145589,0.975435,0.165317,0.000000,0.000000,0.000000,-1,0.893353,0.615836,-0.060917,-0.043299,-0.085466,-0.070041
"2019-10-06 13:58:57.100 +0000",1570370337.100490,-2.342423,-1.363563,1.805023,-0.147480,0.978604,0.143473,0.000000,0.000000,0.000000,-1,0.917673,0.564675,0.067323,0.008823,-0.117688,-0.172418
"2019-10-06 13:58:57.123 +0000",1570370337.122797,-2.266931,-1.380301,1.875140,-0.145290,0.981910,0.121419,0.000000,0.000000,0.000000,-1,0.980646,0.202283,0.190900,0.108044,-0.022453,-0.125783
"2019-10-06 13:58:57.145 +0000",1570370337.145105,-2.190598,-1.397658,1.947776,-0.140230,0.985049,0.100070,0.000000,0.000000,0.000000,-1,0.895776,0.234613,0.289820,0.116411,0.019712,-0.002551
"2019-10-06 13:58:57.167 +0000",1570370337.167411,-2.119420,-1.413167,2.014632,-0.133940,0.987602,0.081866,0.000000,0.000000,0.000000,-1,0.730260,0.254268,0.300739,-0.005129,-0.005821,-0.008273
"2019-10-06 13:58:57.190 +0000",1570370337.189721,-2.039787,-1.425443,2.086628,-0.129203,0.989455,0.065467,0.000000,0.000000,0.000000,-1,0.691123,0.442105,0.207255,-0.157052,0.028459,-0.099341
"2019-10-06 13:58:57.212 +0000",1570370337.212029,-1.937429,-1.435026,2.181084,-0.126358,0.990797,0.048521,0.000000,0.000000,0.000000,-1,0.728314,0.333521,0.117676,-0.178803,0.008226,-0.087492
"2019-10-06 13:58:57.234 +0000",1570370337.234323,-1.822105,-1.441678,2.291342,-0.124715,0.991676,0.032019,0.000000,0.000000,0.000000,-1,0.697973,0.249688,0.073747,-0.159770,0.009392,-0.095328
"2019-10-06 13:58:57.257 +0000",1570370337.256644,-1.696101,-1.445893,2.413160,-0.123603,0.992210,0.015570,0.000000,0.000000,0.000000,-1,0.717870,0.194212,0.040754,-0.086679,0.040322,-0.112676
"2019-10-06 13:58:57.279 +0000",1570370337.278952,-1.572837,-1.447172,2.534978,-0.123310,0.992368,0.000252,0.000000,0.000000,0.000000,-1,0.661186,0.069798,0.003377,0.030033,0.146517,0.040062
"2019-10-06 13:58:57.301 +0000",1570370337.301260,-1.459532,-1.446187,2.643612,-0.123518,0.992246,-0.013800,0.000000,0.000000,0.000000,-1,0.538450,0.384640,-0.003192,0.068907,0.156100,0.132331
"2019-10-06 13:58:57.324 +0000",1570370337.323537,-1.393121,-1.444448,2.699306,-0.124029,0.992029,-0.022272,0.000000,0.000000,0.000000,-1,0.169544,0.492547,-0.052689,-0.028941,0.209769,0.106775
"2019-10-06 13:58:57.346 +0000",1570370337.345845,-1.388281,-1.441288,2.698056,-0.127002,0.991625,-0.023441,0.000000,0.000000,0.000000,-1,-0.033351,0.174392,-0.231070,-0.453336,0.371549,-0.070615
"2019-10-06 13:58:57.368 +0000",1570370337.368152,-1.416169,-1.431372,2.670653,-0.137314,0.990296,-0.021403,0.000000,0.000000,0.000000,-1,-0.145330,-0.211956,-0.557672,-0.401138,0.140823,-0.115300
"2019-10-06 13:58:57.390 +0000",1570370337.390461,-1.515711,-1.418686,2.586364,-0.151294,0.988454,-0.008343,0.000000,0.000000,0.000000,-1,-0.740888,-0.999941,-0.670025,-0.102734,0.313106,-0.022785
"2019-10-06 13:58:57.413 +0000",1570370337.412770,-1.691352,-1.404088,2.424501,-0.164733,0.986136,0.019956,0.000000,0.000000,0.000000,-1,-1.453380,-0.277443,-0.489421,0.438826,0.301477,0.097384
"2019-10-06 13:58:57.435 +0000",1570370337.435078,-1.913494,-1.386898,2.193158,-0.172231,0.983138,0.061448,0.000000,0.000000,0.000000,-1,-2.194439,0.413347,-0.234116,0.440175,0.169236,-0.111191
"2019-10-06 13:58:57.457 +0000",1570370337.457362,-2.144327,-1.359437,1.953204,-0.176221,0.977747,0.113832,0.000000,0.000000,0.000000,-1,-2.509245,0.032146,-0.161397,0.342709,0.039114,-0.353502
"2019-10-06 13:58:57.480 +0000",1570370337.479693,-2.341359,-1.319625,1.759812,-0.178331,0.968622,0.173117,0.000000,0.000000,0.000000,-1,-2.819454,-0.591634,-0.151031,0.242907,0.056326,-0.387000
"2019-10-06 13:58:57.502 +0000",1570370337.501998,-2.495378,-1.268289,1.604220,-0.179395,0.954592,0.237846,0.000000,0.000000,0.000000,-1,-3.007855,0.287000,-0.052224,0.239454,0.343900,-0.114097
"2019-10-06 13:58:57.524 +0000",1570370337.524289,-2.563253,-1.217958,1.507720,-0.188896,0.938396,0.289364,0.000000,0.000000,0.000000,-1,-2.360554,1.371622,-0.220364,0.102959,0.335240,-0.308422
"2019-10-06 13:58:57.547 +0000",1570370337.546586,-2.576390,-1.175823,1.451524,-0.206085,0.923007,0.324942,0.000000,0.000000,0.000000,-1,-1.987962,1.885699,-0.294238,0.082107,0.243558,-0.400122
"2019-10-06 13:58:57.569 +0000",1570370337.568894,-2.575416,-1.134403,1.413070,-0.226726,0.906282,0.356719,0.000000,0.000000,0.000000,-1,-1.935192,1.326488,-0.486497,0.012981,0.168120,-0.475829
"2019-10-06 13:58:57.591 +0000",1570370337.591201,-2.591167,-1.088985,1.378099,-0.242373,0.886157,0.394944,0.000000,0.000000,0.000000,-1,-2.170613,0.285540,-0.522017,0.036731,0.137311,-0.420426
"2019-10-06 13:58:57.614 +0000",1570370337.613511,-2.624765,-1.044638,1.351744,-0.248157,0.864743,0.436622,0.000000,0.000000,0.000000,-1,-1.830107,-0.935708,-0.482498,0.058551,0.058872,-0.555396
"2019-10-06 13:58:57.636 +0000",1570370337.635817,-2.672994,-1.006144,1.336032,-0.241680,0.844775,0.477437,0.000000,0.000000,0.000000,-1,-1.695249,-1.752523,-0.495038,0.039364,0.012265,-0.438573
"2019-10-06 13:58:57.658 +0000",1570370337.658126,-2.720734,-0.966214,1.320422,-0.232224,0.822739,0.518818,0.000000,0.000000,0.000000,-1,-1.794788,-1.379304,-0.359453,0.056275,-0.019273,-0.492328
"2019-10-06 13:58:57.680 +0000",1570370337.680414,-2.762075,-0.929558,1.304172,-0.221612,0.801356,0.555623,0.000000,0.000000,0.000000,-1,-1.598302,-1.249374,-0.183125,0.073541,-0.021219,-0.555242
"2019-10-06 13:58:57.703 +0000",1570370337.702742,-2.800687,-0.899021,1.286870,-0.208086,0.782718,0.586560,0.000000,0.000000,0.000000,-1,-1.361591,-1.046645,0.060055,0.131456,-0.038196,-0.515195
"2019-10-06 13:58:57.725 +0000",1570370337.725050,-2.838634,-0.876482,1.271430,-0.190899,0.768492,0.610718,0.000000,0.000000,0.000000,-1,-0.907481,-1.287372,0.109527,0.160137,0.004213,-0.462159
"2019-10-06 13:58:57.747 +0000",1570370337.747340,-2.874574,-0.866230,1.262354,-0.170901,0.761893,0.624750,0.000000,0.000000,0.000000,-1,-0.243994,-1.283462,0.093649,0.223040,-0.080176,-0.458734
"2019-10-06 13:58:57.770 +0000",1570370337.769637,-2.900733,-0.870249,1.264839,-0.153770,0.764489,0.626028,0.000000,0.000000,0.000000,-1,0.402565,-1.185488,-0.090544,0.241783,-0.122949,-0.395971
"2019-10-06 13:58:57.792 +0000",1570370337.791944,-2.912664,-0.883263,1.274600,-0.144020,0.772814,0.618075,0.000000,0.000000,0.000000,-1,0.736383,-0.624605,-0.145001,0.193596,-0.178057,-0.244128
"2019-10-06 13:58:57.814 +0000",1570370337.814252,-2.909149,-0.901355,1.284116,-0.142947,0.784168,0.603859,0.000000,0.000000,0.000000,-1,0.915504,0.102971,-0.021126,0.115313,-0.212559,-0.100136
"2019-10-06 13:58:57.837 +0000",1570370337.836560,-2.897035,-0.924010,1.291394,-0.145912,0.798025,0.584694,0.000000,0.000000,0.000000,-1,1.107880,0.328461,0.053869,0.008629,-0.166692,0.027321
"2019-10-06 13:58:57.859 +0000",1570370337.858867,-2.886044,-0.946784,1.299291,-0.147696,0.811541,0.565321,0.000000,0.000000,0.000000,-1,0.900817,0.135274,0.062939,-0.240503,0.108137,0.172732
"2019-10-06 13:58:57.881 +0000",1570370337.881175,-2.886600,-0.957521,1.302101,-0.145176,0.817767,0.556939,0.000000,0.000000,0.000000,-1,0.234114,-0.357361,-0.012369,-0.269940,0.325986,0.109977
"2019-10-06 13:58:57.903 +0000",1570370337.903482,-2.903430,-0.954500,1.310895,-0.136364,0.816025,0.561701,0.000000,0.000000,0.000000,-1,-0.222208,-1.530032,-0.366874,-0.173771,0.362641,0.146520
"2019-10-06 13:58:57.926 +0000",1570370337.925783,-2.932618,-0.944877,1.327150,-0.121537,0.810425,0.573098,0.000000,0.000000,0.000000,-1,-0.346447,-1.916116,-0.624013,-0.121536,0.277909,0.291771
"2019-10-06 13:58:57.948 +0000",1570370337.948100,-2.934980,-0.936872,1.355134,-0.121510,0.805709,0.579714,0.000000,0.000000,0.000000,-1,-0.096761,-0.553816,-0.835726,-0.016597,0.093873,0.161757
"2019-10-06 13:58:57.970 +0000",1570370337.970390,-2.912957,-0.934296,1.383902,-0.134717,0.804181,0.578916,0.000000,0.000000,0.000000,-1,0.072363,-0.025364,-0.669150,0.001538,-0.109448,-0.076704
"2019-10-06 13:58:57.993 +0000",1570370337.992686,-2.914705,-0.929928,1.395787,-0.134493,0.801577,0.582568,0.000000,0.000000,0.000000,-1,-0.172020,-0.690388,-0.196908,0.036166,-0.097933,0.176953
"2019-10-06 13:58:58.015 +0000",1570370338.014992,-2.911032,-0.939752,1.396609,-0.134826,0.807412,0.574376,0.000000,0.000000,0.000000,-1,0.662633,0.556936,0.334494,0.236968,0.692847,-0.247319
"2019-10-06 13:58:58.037 +0000",1570370338.037301,-2.924219,-0.951277,1.380244,-0.125225,0.814158,0.566980,0.000000,0.000000,0.000000,-1,0.278640,-0.509232,0.474051,0.355312,0.738668,-0.167733
"2019-10-06 13:58:58.060 +0000",1570370338.059608,-2.935924,-0.962696,1.385527,-0.116674,0.820735,0.559269,0.000000,0.000000,0.000000,-1,0.791150,-0.537698,-0.263599,0.113439,0.248830,-0.121586
"2019-10-06 13:58:58.082 +0000",1570370338.081917,-2.909479,-0.988263,1.413896,-0.126552,0.835072,0.535388,0.000000,0.000000,0.000000,-1,1.484637,0.582382,-0.492820,0.078822,-0.203419,-0.537906
"2019-10-06 13:58:58.104 +0000",1570370338.104224,-2.860582,-1.019574,1.443221,-0.145244,0.851885,0.503186,0.000000,0.000000,0.000000,-1,1.483989,1.219721,-0.143683,0.200786,-0.329195,-0.583432
"2019-10-06 13:58:58.127 +0000",1570370338.126513,-2.833643,-1.050594,1.446015,-0.150660,0.867719,0.473673,0.000000,0.000000,0.000000,-1,1.336565,1.061547,0.642921,0.240763,-0.103910,-0.492212
"2019-10-06 13:58:58.149 +0000",1570370338.148819,-2.830109,-1.085206,1.422740,-0.143039,0.884399,0.444272,0.000000,0.000000,0.000000,-1,1.250400,1.077815,1.042194,0.179004,0.188309,-0.583005
"2019-10-06 13:58:58.171 +0000",1570370338.171148,-2.834373,-1.112423,1.394924,-0.133813,0.896774,0.421771,0.000000,0.000000,0.000000,-1,0.865310,0.727321,0.792070,0.042962,0.185075,-0.432681
"2019-10-06 13:58:58.193 +0000",1570370338.193422,-2.843333,-1.137624,1.385061,-0.123347,0.907639,0.401220,0.000000,0.000000,0.000000,-1,1.138675,-0.452741,0.354827,-0.080190,0.170059,-0.508657
"2019-10-06 13:58:58.216 +0000",1570370338.215734,-2.846092,-1.164709,1.402178,-0.115036,0.918674,0.377896,0.000000,0.000000,0.000000,-1,1.298246,-0.903510,-0.118712,-0.136199,0.128476,-0.522229
"2019-10-06 13:58:58.238 +0000",1570370338.238042,-2.830378,-1.189724,1.432401,-0.113887,0.928266,0.354050,0.000000,0.000000,0.000000,-1,1.135459,-0.280031,-0.155329,0.005213,0.024233,-0.355225
"2019-10-06 13:58:58.260 +0000",1570370338.260350,-2.808058,-1.210116,1.459046,-0.115538,0.935657,0.333462,0.000000,0.000000,0.000000,-1,0.932634,-0.186326,-0.078094,0.130293,0.012143,-0.350491
"2019-10-06 13:58:58.283 +0000",1570370338.282691,-2.803827,-1.228983,1.480065,-0.111077,0.942148,0.316256,0.000000,0.000000,0.000000,-1,0.927309,-0.932840,-0.028051,0.150079,0.060812,-0.258075
"2019-10-06 13:58:58.305 +0000",1570370338.304966,-2.794272,-1.247050,1.507567,-0.108282,0.948050,0.299125,0.000000,0.000000,0.000000,-1,0.831862,-0.426495,-0.141753,0.155324,0.070382,-0.002463
"2019-10-06 13:58:58.327 +0000",1570370338.327271,-2.758989,-1.259276,1.533242,-0.114430,0.951869,0.284344,0.000000,0.000000,0.000000,-1,0.548198,0.937758,-0.108085,0.103856,-0.011210,-0.092434
"2019-10-06 13:58:58.350 +0000",1570370338.349581,-2.718025,-1.268976,1.553188,-0.122178,0.954797,0.270990,0.000000,0.000000,0.000000,-1,0.510511,0.834422,-0.104703,0.001878,-0.065194,-0.274835
"2019-10-06 13:58:58.372 +0000",1570370338.371890,-2.674307,-1.279561,1.584227,-0.129345,0.957890,0.256353,0.000000,0.000000,0.000000,-1,0.676785,0.557363,-0.193972,-0.090748,-0.035328,-0.212454
"2019-10-06 13:58:58.394 +0000",1570370338.394198,-2.623362,-1.291941,1.626383,-0.136346,0.961371,0.239114,0.000000,0.000000,0.000000,-1,0.749464,0.452829,-0.194253,-0.124243,-0.029334,-0.139779
"2019-10-06 13:58:58.416 +0000",1570370338.416499,-2.566428,-1.304887,1.673427,-0.142949,0.964854,0.220506,0.000000,0.000000,0.000000,-1,0.866193,0.559904,-0.193913,-0.175898,0.012319,-0.247041
"2019-10-06 13:58:58.439 +0000",1570370338.438809,-2.495561,-1.319874,1.736297,-0.149481,0.968684,0.198261,0.000000,0.000000,0.000000,-1,0.985220,0.397550,-0.199864,-0.120005,0.007543,-0.286914
"2019-10-06 13:58:58.461 +0000",1570370338.461091,-2.423021,-1.335057,1.804732,-0.153756,0.972342,0.175813,0.000000,0.000000,0.000000,-1,0.991729,0.170347,-0.103563,0.081155,-0.045172,-0.137101
"2019-10-06 13:58:58.483 +0000",1570370338.483398,-2.358504,-1.351127,1.869678,-0.153727,0.975969,0.154439,0.000000,0.000000,0.000000,-1,0.966025,0.030793,0.076302,0.187312,-0.051226,-0.086720
"2019-10-06 13:58:58.506 +0000",1570370338.505708,-2.300842,-1.367896,1.925343,-0.150155,0.979486,0.134389,0.000000,0.000000,0.000000,-1,0.842698,0.262668,0.246626,0.190804,-0.026117,-0.064595
"2019-10-06 13:58:58.528 +0000",1570370338.528016,-2.241632,-1.383764,1.976184,-0.145650,0.982560,0.115590,0.000000,0.000000,0.000000,-1,0.782675,0.486562,0.254538,0.094259,0.009322,-0.064916
"2019-10-06 13:58:58.550 +0000",1570370338.550323,-2.171546,-1.398407,2.032523,-0.141503,0.985178,0.096963,0.000000,0.000000,0.000000,-1,0.726456,0.742459,0.267129,0.026925,-0.010858,-0.049585
"2019-10-06 13:58:58.573 +0000",1570370338.572631,-2.102724,-1.411512,2.084948,-0.136696,0.987341,0.080447,0.000000,0.000000,0.000000,-1,0.581076,0.747433,0.296796,-0.116371,-0.013296,-0.077319
"2019-10-06 13:58:58.595 +0000",1570370338.594937,-2.039114,-1.422178,2.134074,-0.132128,0.988977,0.066837,0.000000,0.000000,0.000000,-1,0.527974,0.615472,0.216069,-0.313902,0.096122,-0.144031
"2019-10-06 13:58:58.617 +0000",1570370338.617245,-1.953600,-1.429665,2.209994,-0.130482,0.990057,0.052541,0.000000,0.000000,0.000000,-1,0.613601,0.377368,0.029657,-0.289394,0.086877,-0.085057
"2019-10-06 13:58:58.640 +0000",1570370338.639527,-1.841458,-1.432200,2.315218,-0.133123,0.990411,0.036938,0.000000,0.000000,0.000000,-1,0.688074,0.371736,-0.162545,-0.099405,0.074866,-0.047680
"2019-10-06 13:58:58.662 +0000",1570370338.661827,-1.729402,-1.430928,2.420148,-0.137663,0.990234,0.022019,0.000000,0.000000,0.000000,-1,0.522348,0.348165,-0.195901,0.053206,0.107590,0.097335
"2019-10-06 13:58:58.684 +0000",1570370338.684140,-1.668216,-1.427805,2.472548,-0.141829,0.989794,0.013861,0.000000,0.000000,0.000000,-1,0.203944,0.462550,-0.166039,0.072310,0.184858,0.068445
"2019-10-06 13:58:58.706 +0000",1570370338.706449,-1.650432,-1.423635,2.480221,-0.146166,0.989191,0.011665,0.000000,0.000000,0.000000,-1,-0.087514,0.452311,-0.222695,-0.077497,0.393530,0.025033
"2019-10-06 13:58:58.729 +0000",1570370338.728757,-1.665580,-1.415265,2.454083,-0.154209,0.987929,0.014660,0.000000,0.000000,0.000000,-1,-0.259097,0.483262,-0.471151,-0.253749,0.416169,0.013126
"2019-10-06 13:58:58.751 +0000",1570370338.751065,-1.711629,-1.401002,2.400907,-0.167307,0.985619,0.023719,0.000000,0.000000,0.000000,-1,-0.640038,0.042164,-0.611302,-0.132284,0.340537,0.002953
"2019-10-06 13:58:58.773 +0000",1570370338.773351,-1.834095,-1.383472,2.284979,-0.179812,0.982506,0.048470,0.000000,0.000000,0.000000,-1,-1.321318,-0.436505,-0.572609,-0.008756,0.322746,0.031639
"2019-10-06 13:58:58.796 +0000",1570370338.795664,-1.984995,-1.361257,2.129678,-0.190420,0.978127,0.083715,0.000000,0.000000,0.000000,-1,-1.772859,0.350074,-0.391223,0.125830,0.184837,-0.133977
"2019-10-06 13:58:58.818 +0000",1570370338.817988,-2.154718,-1.335290,1.949350,-0.194673,0.972396,0.128638,0.000000,0.000000,0.000000,-1,-2.334636,0.131131,-0.004952,0.476213,-0.045410,-0.354056
"2019-10-06 13:58:58.840 +0000",1570370338.840266,-2.359173,-1.299689,1.747464,-0.188797,0.963475,0.189925,0.000000,0.000000,0.000000,-1,-2.967610,-0.660396,0.243709,0.449692,-0.060414,-0.308883
"2019-10-06 13:58:58.863 +0000",1570370338.862572,-2.516093,-1.253611,1.591919,-0.182615,0.950117,0.252843,0.000000,0.000000,0.000000,-1,-2.746633,-0.147460,0.209477,0.360227,0.038408,-0.399877
"2019-10-06 13:58:58.885 +0000",1570370338.884882,-2.610789,-1.209498,1.491403,-0.178946,0.935439,0.304850,0.000000,0.000000,0.000000,-1,-2.330211,0.191998,0.147096,0.270453,0.178728,-0.422495
"2019-10-06 13:58:58.907 +0000",1570370338.907189,-2.658884,-1.165315,1.421648,-0.183101,0.918913,0.349391,0.000000,0.000000,0.000000,-1,-2.327620,1.058774,0.021552,0.127544,0.351855,-0.332820
"2019-10-06 13:58:58.929 +0000",1570370338.929497,-2.676401,-1.118430,1.366802,-0.196078,0.899415,0.390647,0.000000,0.000000,0.000000,-1,-2.315117,1.572613,-0.074804,0.148013,0.315047,-0.448142
"2019-10-06 13:58:58.952 +0000",1570370338.951805,-2.681855,-1.071085,1.328743,-0.212615,0.877721,0.429419,0.000000,0.000000,0.000000,-1,-2.186250,0.970011,-0.362167,0.040832,0.216304,-0.515021
"2019-10-06 13:58:58.974 +0000",1570370338.974114,-2.689175,-1.026035,1.302671,-0.226533,0.855251,0.466078,0.000000,0.000000,0.000000,-1,-1.961935,0.438822,-0.325101,0.070985,0.039494,-0.613463
"2019-10-06 13:58:58.996 +0000",1570370338.996409,-2.714286,-0.988164,1.282938,-0.228025,0.835017,0.500750,0.000000,0.000000,0.000000,-1,-1.582943,-0.914329,-0.361308,-0.038760,0.065831,-0.712832
"2019-10-06 13:58:59.019 +0000",1570370339.018730,-2.750882,-0.951775,1.271927,-0.220981,0.814447,0.536511,0.000000,0.000000,0.000000,-1,-1.689908,-1.165490,-0.403784,0.012485,0.083426,-0.473858
"2019-10-06 13:58:59.041 +0000",1570370339.041038,-2.775580,-0.913350,1.261240,-0.218709,0.791555,0.570619,0.000000,0.000000,0.000000,-1,-1.692994,-0.519437,-0.346252,0.017171,0.065592,-0.491396
"2019-10-06 13:58:59.063 +0000",1570370339.063316,-2.793734,-0.882013,1.251933,-0.216666,0.772020,0.597530,0.000000,0.000000,0.000000,-1,-1.129358,-0.599925,-0.226205,0.008796,0.065184,-0.565608
"2019-10-06 13:58:59.086 +0000",1570370339.085618,-2.819876,-0.867498,1.252866,-0.204495,0.762713,0.613555,0.000000,0.000000,0.000000,-1,-0.308463,-1.480463,-0.250291,0.057538,0.061734,-0.490676
"2019-10-06 13:58:59.108 +0000",1570370339.107932,-2.848476,-0.868573,1.258341,-0.186629,0.763408,0.618367,0.000000,0.000000,0.000000,-1,0.316002,-1.343970,-0.014291,0.254302,-0.045314,-0.341389
"2019-10-06 13:58:59.130 +0000",1570370339.130239,-2.871462,-0.881876,1.254330,-0.169643,0.771933,0.612651,0.000000,0.000000,0.000000,-1,0.620686,-0.520370,0.432567,0.518565,-0.246298,-0.176814
"2019-10-06 13:58:59.153 +0000",1570370339.152533,-2.872366,-0.896904,1.240256,-0.165984,0.781399,0.601553,0.000000,0.000000,0.000000,-1,0.501909,1.031352,0.573809,0.394240,-0.215587,-0.166326
"2019-10-06 13:58:59.175 +0000",1570370339.174855,-2.851141,-0.913238,1.223645,-0.175034,0.791487,0.585587,0.000000,0.000000,0.000000,-1,0.642135,1.665471,0.710903,0.270158,-0.073988,-0.266083
"2019-10-06 13:58:59.197 +0000",1570370339.197163,-2.832886,-0.934089,1.202137,-0.180640,0.804058,0.566445,0.000000,0.000000,0.000000,-1,0.758156,1.524733,0.887118,0.178748,0.087421,-0.277916
"2019-10-06 13:58:59.219 +0000",1570370339.219471,-2.819312,-0.955541,1.180175,-0.182807,0.816626,0.547452,0.000000,0.000000,0.000000,-1,0.692332,1.312689,0.776083,0.164115,0.102487,-0.229261
"2019-10-06 13:58:59.242 +0000",1570370339.241779,-2.805720,-0.973010,1.164604,-0.185500,0.826584,0.531366,0.000000,0.000000,0.000000,-1,0.567109,1.155520,0.546684,0.186568,0.038254,-0.214898
"2019-10-06 13:58:59.264 +0000",1570370339.264056,-2.785128,-0.986979,1.160352,-0.192353,0.834365,0.516562,0.000000,0.000000,0.000000,-1,0.559100,1.018643,0.143479,-0.005599,0.086625,-0.024893
"2019-10-06 13:58:59.286 +0000",1570370339.286365,-2.755011,-0.999905,1.174213,-0.203737,0.841420,0.500504,0.000000,0.000000,0.000000,-1,0.725567,0.734431,-0.204999,-0.191481,0.231929,0.251602
"2019-10-06 13:58:59.309 +0000",1570370339.308684,-2.715866,-1.010056,1.195640,-0.219630,0.846862,0.484343,0.000000,0.000000,0.000000,-1,0.485679,1.117598,-0.344963,-0.307042,0.318452,0.450777
"2019-10-06 13:58:59.331 +0000",1570370339.330980,-2.680607,-1.011853,1.212071,-0.235890,0.847816,0.474936,0.000000,0.000000,0.000000,-1,0.128219,0.711787,-0.269562,-0.326656,0.258080,0.324716
"2019-10-06 13:58:59.353 +0000",1570370339.353288,-2.658673,-1.013501,1.221306,-0.245600,0.848689,0.468410,0.000000,0.000000,0.000000,-1,0.258107,0.707578,-0.099515,-0.073034,0.143133,-0.089794
"2019-10-06 13:58:59.376 +0000",1570370339.375590,-2.635955,-1.025217,1.227654,-0.251344,0.854827,0.453980,0.000000,0.000000,0.000000,-1,0.718908,0.738897,0.314745,0.143922,0.278474,-0.346115
