timestamp,timeIntervalSince1970,attitude.roll,attitude.pitch,attitude.yaw,gravity.x,gravity.y,gravity.z,magneticField.x,magneticField.y,magneticField.z,magneticField.accuracy,rotationRate.x,rotationRate.y,rotationRate.z,userAcceleration.x,userAcceleration.y,userAcceleration.z
"2019-03-26 11:14:19.176 +0000",1553598859.176486,0.153502,0.597667,-0.048156,0.126395,-0.562715,-0.816931,0.000000,0.000000,0.000000,-1,0.201948,1.144451,-0.480989,0.062051,-0.035688,-0.149882
"2019-03-26 11:14:19.199 +0000",1553598859.198795,0.156959,0.602699,-0.058994,0.128774,-0.566868,-0.813681,0.000000,0.000000,0.000000,-1,0.302923,-0.733125,-0.270349,0.139109,0.026722,0.090812
"2019-03-26 11:14:19.221 +0000",1553598859.221102,0.128524,0.608064,-0.065268,0.105197,-0.571280,-0.813986,0.000000,0.000000,0.000000,-1,0.218575,-1.678826,-0.186317,0.294889,-0.023584,0.150091
"2019-03-26 11:14:19.243 +0000",1553598859.243380,0.099757,0.606898,-0.075649,0.081807,-0.570322,-0.817337,0.000000,0.000000,0.000000,-1,-0.185417,-1.440549,-0.557046,0.367839,0.092539,0.133255
"2019-03-26 11:14:19.266 +0000",1553598859.265680,0.079571,0.597368,-0.096996,0.065721,-0.562468,-0.824203,0.000000,0.000000,0.000000,-1,-0.424080,-1.523294,-0.933538,0.228209,0.070525,0.167541
"2019-03-26 11:14:19.288 +0000",1553598859.287995,0.057931,0.584144,-0.121303,0.048298,-0.551486,-0.832785,0.000000,0.000000,0.000000,-1,-0.575799,-1.551579,-0.914744,0.139416,0.025332,0.164526
"2019-03-26 11:14:19.310 +0000",1553598859.310303,0.033032,0.572312,-0.139569,0.027764,-0.541577,-0.840192,0.000000,0.000000,0.000000,-1,-0.406205,-1.568516,-0.541119,0.196846,0.027661,0.078413
"2019-03-26 11:14:19.333 +0000",1553598859.332581,0.015790,0.566342,-0.148384,0.013324,-0.536549,-0.843764,0.000000,0.000000,0.000000,-1,-0.202387,-0.483598,-0.265337,0.219952,0.113499,-0.000566
"2019-03-26 11:14:19.355 +0000",1553598859.354887,0.021048,0.565193,-0.154783,0.017774,-0.535579,-0.844298,0.000000,0.000000,0.000000,-1,0.086720,0.241192,-0.238153,0.136065,0.088588,-0.148912
"2019-03-26 11:14:19.377 +0000",1553598859.377196,0.027033,0.572264,-0.160554,0.022723,-0.541536,-0.840370,0.000000,0.000000,0.000000,-1,0.464351,0.017677,-0.182663,0.031613,0.123552,-0.113228
"2019-03-26 11:14:19.399 +0000",1553598859.399476,0.029378,0.587496,-0.163553,0.024448,-0.554279,-0.831972,0.000000,0.000000,0.000000,-1,0.767256,0.103206,-0.048074,0.096859,0.109637,-0.085768
"2019-03-26 11:14:19.422 +0000",1553598859.421797,0.028943,0.604886,-0.164065,0.023805,-0.568668,-0.822222,0.000000,0.000000,0.000000,-1,0.737357,-0.196575,0.052577,0.092300,0.155048,0.115756
"2019-03-26 11:14:19.444 +0000",1553598859.444088,0.019162,0.618148,-0.165040,0.015615,-0.579527,-0.814803,0.000000,0.000000,0.000000,-1,0.462974,-0.608182,-0.107638,0.135950,0.176329,0.087020
"2019-03-26 11:14:19.466 +0000",1553598859.466381,0.007405,0.619979,-0.167813,0.006027,-0.581018,-0.813869,0.000000,0.000000,0.000000,-1,-0.171197,-0.486244,0.001416,0.194580,0.146432,0.084498
"2019-03-26 11:14:19.489 +0000",1553598859.488678,0.001428,0.609513,-0.159738,0.001171,-0.572469,-0.819926,0.000000,0.000000,0.000000,-1,-0.596667,0.172196,0.445705,0.169087,0.125661,0.256037
"2019-03-26 11:14:19.511 +0000",1553598859.510983,-0.002786,0.596112,-0.144379,-0.002306,-0.561429,-0.827522,0.000000,0.000000,0.000000,-1,-0.542150,0.192437,0.584489,0.242677,0.214658,0.312186
"2019-03-26 11:14:19.533 +0000",1553598859.533291,-0.002543,0.587925,-0.130077,-0.002116,-0.554636,-0.832091,0.000000,0.000000,0.000000,-1,-0.270121,0.429663,0.504346,0.296900,0.223230,0.245604
"2019-03-26 11:14:19.556 +0000",1553598859.555568,-0.003063,0.586404,-0.121564,-0.002551,-0.553369,-0.832932,0.000000,0.000000,0.000000,-1,0.108145,-0.101735,0.151949,0.170185,0.135111,0.122834
"2019-03-26 11:14:19.578 +0000",1553598859.577875,-0.024030,0.591501,-0.123410,-0.019945,-0.557608,-0.829865,0.000000,0.000000,0.000000,-1,0.183621,-1.545910,-0.167664,0.090304,0.455313,0.138016
"2019-03-26 11:14:19.600 +0000",1553598859.600183,-0.047032,0.587864,-0.130255,-0.039122,-0.554585,-0.831207,0.000000,0.000000,0.000000,-1,-0.394063,-0.675230,-0.174400,0.052092,0.373066,0.202392
"2019-03-26 11:14:19.622 +0000",1553598859.622491,-0.035305,0.569974,-0.124716,-0.029717,-0.539610,-0.841391,0.000000,0.000000,0.000000,-1,-1.020851,1.383918,0.496794,0.272179,0.164015,0.156332
"2019-03-26 11:14:19.645 +0000",1553598859.644783,-0.008870,0.540510,-0.100995,-0.007606,-0.514573,-0.857413,0.000000,0.000000,0.000000,-1,-1.404219,1.644734,1.181574,0.169135,0.039430,0.185797
"2019-03-26 11:14:19.667 +0000",1553598859.667076,-0.001450,0.511684,-0.070007,-0.001264,-0.489647,-0.871920,0.000000,0.000000,0.000000,-1,-1.214421,0.892860,1.096530,0.254407,0.031074,0.335940
"2019-03-26 11:14:19.689 +0000",1553598859.689384,0.020873,0.484002,-0.048097,0.018474,-0.465325,-0.884947,0.000000,0.000000,0.000000,-1,-1.255427,1.854609,0.722016,0.284443,0.006188,0.088118
"2019-03-26 11:14:19.712 +0000",1553598859.711662,0.063724,0.459821,-0.035473,0.057066,-0.443788,-0.894313,0.000000,0.000000,0.000000,-1,-0.989736,2.286049,0.285351,-0.072127,0.073152,-0.037541
"2019-03-26 11:14:19.734 +0000",1553598859.733969,0.115332,0.437466,-0.037824,0.104240,-0.423645,-0.899810,0.000000,0.000000,0.000000,-1,-1.100972,2.146359,-0.516087,0.089318,0.025010,-0.121125
"2019-03-26 11:14:19.756 +0000",1553598859.756277,0.178039,0.400760,-0.049157,0.163067,-0.390118,-0.906210,0.000000,0.000000,0.000000,-1,-1.810548,3.159413,-0.592372,-0.005734,0.170102,-0.069010
"2019-03-26 11:14:19.779 +0000",1553598859.778584,0.256407,0.365829,-0.047875,0.236825,-0.357723,-0.903298,0.000000,0.000000,0.000000,-1,-1.090010,3.343378,-0.176870,-0.066232,0.068554,-0.132819
"2019-03-26 11:14:19.801 +0000",1553598859.800877,0.299056,0.360660,-0.040836,0.275664,-0.352892,-0.894135,0.000000,0.000000,0.000000,-1,0.035419,1.093124,0.577987,0.315157,-0.030333,-0.166977
"2019-03-26 11:14:19.823 +0000",1553598859.823170,0.295549,0.372209,-0.015542,0.271321,-0.363674,-0.891138,0.000000,0.000000,0.000000,-1,0.227625,0.109912,1.430364,0.286632,0.037380,-0.105170
"2019-03-26 11:14:19.845 +0000",1553598859.845478,0.287653,0.389626,0.022445,0.262439,-0.379843,-0.887043,0.000000,0.000000,0.000000,-1,0.293971,0.323638,1.976815,0.367047,0.045187,-0.082180
"2019-03-26 11:14:19.868 +0000",1553598859.867787,0.254407,0.406144,0.078692,0.231199,-0.395070,-0.889082,0.000000,0.000000,0.000000,-1,-0.074641,-0.961080,2.541342,0.388781,0.048024,-0.156145
"2019-03-26 11:14:19.890 +0000",1553598859.890066,0.218976,0.415767,0.130697,0.198723,-0.403892,-0.892962,0.000000,0.000000,0.000000,-1,0.047704,-0.314895,1.982377,0.420463,0.021659,0.072954
"2019-03-26 11:14:19.912 +0000",1553598859.912371,0.198311,0.429830,0.179168,0.179092,-0.416716,-0.891220,0.000000,0.000000,0.000000,-1,0.233378,0.121593,2.224209,0.402496,0.026946,0.149597
"2019-03-26 11:14:19.935 +0000",1553598859.934671,0.181375,0.436991,0.240126,0.163432,-0.423215,-0.891167,0.000000,0.000000,0.000000,-1,-0.512749,0.586131,2.505090,0.342199,-0.063433,-0.090766
"2019-03-26 11:14:19.957 +0000",1553598859.956957,0.163186,0.432556,0.299555,0.147500,-0.419193,-0.895835,0.000000,0.000000,0.000000,-1,-0.524200,0.445868,2.181309,0.352256,-0.017315,0.057777
"2019-03-26 11:14:19.979 +0000",1553598859.979267,0.173032,0.435239,0.337656,0.156118,-0.421627,-0.893229,0.000000,0.000000,0.000000,-1,0.124339,1.464214,1.096998,0.308237,-0.153614,-0.001974
"2019-03-26 11:14:20.002 +0000",1553598860.001555,0.204123,0.448640,0.346476,0.182648,-0.433740,-0.882332,0.000000,0.000000,0.000000,-1,0.726693,1.617287,0.213873,-0.064041,-0.034628,-0.368187
"2019-03-26 11:14:20.024 +0000",1553598860.023881,0.235089,0.460695,0.350387,0.208645,-0.444571,-0.871105,0.000000,0.000000,0.000000,-1,0.175964,1.291207,0.251267,-0.091138,-0.074884,-0.171803
"2019-03-26 11:14:20.046 +0000",1553598860.046159,0.274824,0.445419,0.351296,0.244899,-0.430836,-0.868565,0.000000,0.000000,0.000000,-1,-1.121846,2.194735,-0.408594,0.155018,-0.145046,-0.066936
"2019-03-26 11:14:20.068 +0000",1553598860.068467,0.341398,0.417047,0.341328,0.306109,-0.405063,-0.861523,0.000000,0.000000,0.000000,-1,-0.785792,3.174611,-0.908402,0.040052,0.132678,0.275112
"2019-03-26 11:14:20.091 +0000",1553598860.090768,0.411730,0.418582,0.325660,0.365645,-0.406465,-0.837311,0.000000,0.000000,0.000000,-1,0.883536,2.439882,-0.220108,0.232347,-0.077437,0.024933
"2019-03-26 11:14:20.113 +0000",1553598860.113083,0.456148,0.442842,0.325603,0.398002,-0.428509,-0.811156,0.000000,0.000000,0.000000,-1,0.813208,1.805300,0.789092,0.426094,-0.117542,-0.101396
"2019-03-26 11:14:20.135 +0000",1553598860.135361,0.484549,0.457289,0.348684,0.417948,-0.441517,-0.793966,0.000000,0.000000,0.000000,-1,-0.322292,1.773703,1.332243,0.385808,0.002659,0.041784
"2019-03-26 11:14:20.158 +0000",1553598860.157667,0.525838,0.461822,0.389490,0.449356,-0.445580,-0.774298,0.000000,0.000000,0.000000,-1,-0.501951,3.216537,1.634456,0.291122,0.113457,0.321829
"2019-03-26 11:14:20.180 +0000",1553598860.179975,0.591063,0.485271,0.422699,0.492909,-0.466448,-0.734484,0.000000,0.000000,0.000000,-1,0.626341,3.762221,1.698325,0.304134,0.209444,0.468859
"2019-03-26 11:14:20.202 +0000",1553598860.202252,0.664836,0.536899,0.442509,0.530128,-0.511474,-0.676284,0.000000,0.000000,0.000000,-1,1.859257,3.299887,2.550485,0.107537,0.186370,0.064010
"2019-03-26 11:14:20.225 +0000",1553598860.224562,0.677248,0.578494,0.470354,0.524686,-0.546763,-0.652498,0.000000,0.000000,0.000000,-1,-0.354970,-0.064611,1.194958,0.064486,0.153087,0.090944
"2019-03-26 11:14:20.247 +0000",1553598860.246869,0.681930,0.563835,0.505084,0.532730,-0.534432,-0.656187,0.000000,0.000000,0.000000,-1,-1.379590,1.688274,0.329189,0.078720,-0.022133,-0.127337
"2019-03-26 11:14:20.269 +0000",1553598860.269177,0.714966,0.545355,0.518345,0.560494,-0.518721,-0.645581,0.000000,0.000000,0.000000,-1,-0.840539,1.913257,-0.402015,0.121834,0.043059,0.473370
"2019-03-26 11:14:20.291 +0000",1553598860.291455,0.755794,0.520452,0.522065,0.595054,-0.497273,-0.631372,0.000000,0.000000,0.000000,-1,-0.958347,1.926866,-0.687511,0.091744,0.190586,0.133706
"2019-03-26 11:14:20.314 +0000",1553598860.313775,0.803205,0.498423,0.527087,0.632039,-0.478041,-0.609921,0.000000,0.000000,0.000000,-1,-0.703682,2.320358,-0.437825,-0.001317,0.200957,0.261593
"2019-03-26 11:14:20.336 +0000",1553598860.336070,0.852549,0.491192,0.524106,0.663939,-0.471677,-0.580264,0.000000,0.000000,0.000000,-1,0.316310,1.937427,-0.322340,0.174425,0.052976,0.160571
"2019-03-26 11:14:20.358 +0000",1553598860.358377,0.906459,0.495724,0.497111,0.692551,-0.475668,-0.542322,0.000000,0.000000,0.000000,-1,1.219277,1.793862,-0.645700,0.236862,0.007117,0.015863
"2019-03-26 11:14:20.381 +0000",1553598860.380655,0.959681,0.502573,0.462775,0.717735,-0.481682,-0.502831,0.000000,0.000000,0.000000,-1,1.212744,1.571057,-0.364604,0.093071,-0.159141,-0.219688
"2019-03-26 11:14:20.403 +0000",1553598860.402977,1.000971,0.520926,0.444589,0.730312,-0.497683,-0.467927,0.000000,0.000000,0.000000,-1,0.994844,1.466682,0.663397,0.184712,-0.113278,0.092592
"2019-03-26 11:14:20.425 +0000",1553598860.425271,1.042270,0.543696,0.426155,0.739029,-0.517303,-0.431548,0.000000,0.000000,0.000000,-1,1.297849,1.355692,0.240247,0.288925,-0.006592,0.097640
"2019-03-26 11:14:20.448 +0000",1553598860.447549,1.081929,0.569846,0.396196,0.743359,-0.539502,-0.395417,0.000000,0.000000,0.000000,-1,1.739218,0.936432,0.886758,0.348652,-0.204745,-0.006774
"2019-03-26 11:14:20.470 +0000",1553598860.470334,1.120012,0.615462,0.366744,0.734942,-0.577336,-0.355729,0.000000,0.000000,0.000000,-1,1.866356,0.856962,1.317986,-0.179034,0.027821,0.198808
"2019-03-26 11:14:20.493 +0000",1553598860.492641,1.144637,0.644543,0.343754,0.727879,-0.600833,-0.330443,0.000000,0.000000,0.000000,-1,0.903246,0.491775,0.511982,0.121960,0.016681,0.170012
"2019-03-26 11:14:20.515 +0000",1553598860.514949,1.158322,0.652034,0.341294,0.728189,-0.606804,-0.318638,0.000000,0.000000,0.000000,-1,-0.197482,0.638203,0.324130,-0.116723,0.152306,0.150913
"2019-03-26 11:14:20.537 +0000",1553598860.537240,1.155406,0.664930,0.375897,0.720036,-0.617004,-0.317575,0.000000,0.000000,0.000000,-1,-1.259749,0.957376,1.541533,0.088970,-0.065247,0.180658
"2019-03-26 11:14:20.560 +0000",1553598860.559534,1.139301,0.692266,0.440583,0.699243,-0.638283,-0.321954,0.000000,0.000000,0.000000,-1,-1.623275,1.007765,2.205860,0.210822,0.211556,0.166436
"2019-03-26 11:14:20.582 +0000",1553598860.581842,1.111210,0.727443,0.506045,0.669379,-0.664962,-0.331298,0.000000,0.000000,0.000000,-1,-1.054086,0.576232,2.208694,0.314920,0.136901,0.169753
"2019-03-26 11:14:20.604 +0000",1553598860.604150,1.084356,0.745662,0.565426,0.649423,-0.678458,-0.343431,0.000000,0.000000,0.000000,-1,-1.745120,0.794953,1.583705,0.008185,0.116690,0.178560
"2019-03-26 11:14:20.626 +0000",1553598860.626428,1.067151,0.757231,0.645746,0.636501,-0.686912,-0.350741,0.000000,0.000000,0.000000,-1,-2.108521,1.809319,1.809007,0.397923,0.165611,0.407732
"2019-03-26 11:14:20.649 +0000",1553598860.648734,1.054834,0.774543,0.727191,0.621695,-0.699389,-0.352633,0.000000,0.000000,0.000000,-1,-1.761778,1.990695,1.911751,0.470300,0.234515,0.398196
"2019-03-26 11:14:20.671 +0000",1553598860.671042,1.051605,0.790274,0.788958,0.610924,-0.710546,-0.349136,0.000000,0.000000,0.000000,-1,-1.143806,1.776691,1.536791,0.221687,0.021719,0.030182
"2019-03-26 11:14:20.693 +0000",1553598860.693344,1.046375,0.813094,0.860165,0.594896,-0.726417,-0.344116,0.000000,0.000000,0.000000,-1,-1.853135,2.167842,2.241364,-0.138903,-0.013725,0.023987
"2019-03-26 11:14:20.716 +0000",1553598860.715625,1.014847,0.834872,0.974908,0.570179,-0.741211,-0.354264,0.000000,0.000000,0.000000,-1,-2.592915,2.491036,2.872095,0.194851,-0.016907,0.053178
"2019-03-26 11:14:20.738 +0000",1553598860.737937,0.994099,0.860112,1.083256,0.546847,-0.757916,-0.355701,0.000000,0.000000,0.000000,-1,-1.822484,2.813785,2.266657,0.263487,0.146435,0.232349
"2019-03-26 11:14:20.760 +0000",1553598860.760241,0.996868,0.879834,1.176265,0.535171,-0.770633,-0.346001,0.000000,0.000000,0.000000,-1,-1.749479,3.920394,2.758044,-0.166000,-0.065075,-0.017738
"2019-03-26 11:14:20.783 +0000",1553598860.782519,0.942496,0.906380,1.321260,0.498846,-0.787277,-0.362419,0.000000,0.000000,0.000000,-1,-3.339911,2.123729,2.764636,0.026636,0.019089,0.103615
"2019-03-26 11:14:20.805 +0000",1553598860.804831,0.883380,0.885728,1.470651,0.489026,-0.774376,-0.401491,0.000000,0.000000,0.000000,-1,-4.026870,2.642795,1.550207,-0.164502,-0.238380,-0.483091
"2019-03-26 11:14:20.827 +0000",1553598860.827142,0.836259,0.862111,1.603998,0.483012,-0.759218,-0.436219,0.000000,0.000000,0.000000,-1,-3.223501,2.252755,1.759943,-0.416224,-0.018095,0.192353
"2019-03-26 11:14:20.849 +0000",1553598860.849432,0.815791,0.838993,1.696484,0.486637,-0.743971,-0.457921,0.000000,0.000000,0.000000,-1,-2.479616,2.151254,0.560319,-0.142185,-0.288790,-0.156551
"2019-03-26 11:14:20.872 +0000",1553598860.871723,0.831269,0.795814,1.746463,0.516932,-0.714434,-0.471557,0.000000,0.000000,0.000000,-1,-2.346812,2.407034,-0.751905,-0.244868,-0.193449,-0.067689
"2019-03-26 11:14:20.894 +0000",1553598860.894032,0.864712,0.764658,1.774265,0.549086,-0.692290,-0.468229,0.000000,0.000000,0.000000,-1,-1.065507,2.264284,-0.268759,-0.057783,-0.014558,0.158613
"2019-03-26 11:14:20.916 +0000",1553598860.916319,0.904611,0.738511,1.797666,0.581361,-0.673188,-0.456987,0.000000,0.000000,0.000000,-1,-2.762660,2.069348,-0.549359,0.193892,-0.082397,0.348345
"2019-03-26 11:14:20.939 +0000",1553598860.938648,0.890708,0.672182,1.886764,0.608380,-0.622694,-0.492062,0.000000,0.000000,0.000000,-1,-3.954684,2.032778,-0.332450,-0.164441,-0.144762,0.358563
"2019-03-26 11:14:20.961 +0000",1553598860.960924,0.882470,0.630450,1.933615,0.623843,-0.589509,-0.513127,0.000000,0.000000,0.000000,-1,-1.807572,0.361490,-0.439509,-0.314502,-0.119415,0.541981
"2019-03-26 11:14:20.983 +0000",1553598860.983236,0.881264,0.622222,1.950974,0.626945,-0.582842,-0.516948,0.000000,0.000000,0.000000,-1,0.146651,0.531797,0.443082,-0.307182,-0.477278,-0.333913
"2019-03-26 11:14:21.006 +0000",1553598861.005535,0.939810,0.689713,1.907652,0.622887,-0.636316,-0.455098,0.000000,0.000000,0.000000,-1,5.041069,2.200586,1.998409,-0.052880,-0.383444,-0.192882
"2019-03-26 11:14:21.028 +0000",1553598861.027816,1.075674,0.794836,1.793046,0.616291,-0.713749,-0.332788,0.000000,0.000000,0.000000,-1,5.323574,2.594403,1.692342,0.051800,-0.433819,-0.212225
"2019-03-26 11:14:21.050 +0000",1553598861.050125,1.174211,0.840481,1.726416,0.615328,-0.744964,-0.257683,0.000000,0.000000,0.000000,-1,0.711158,2.135124,0.493600,-0.281938,-0.211167,-0.139564
"2019-03-26 11:14:21.072 +0000",1553598861.072433,1.186423,0.839996,1.754813,0.618763,-0.744640,-0.250285,0.000000,0.000000,0.000000,-1,-0.610517,1.315011,0.423400,-0.088414,-0.255802,0.158229
"2019-03-26 11:14:21.095 +0000",1553598861.094741,1.207550,0.858116,1.756870,0.611198,-0.756612,-0.232325,0.000000,0.000000,0.000000,-1,0.280435,0.880500,0.894082,-0.200828,-0.316554,0.439814
"2019-03-26 11:14:21.117 +0000",1553598861.117017,1.205351,0.868383,1.787713,0.603399,-0.763285,-0.230880,0.000000,0.000000,0.000000,-1,-1.140615,1.012829,0.594569,-0.187200,-0.166494,0.007736
"2019-03-26 11:14:21.139 +0000",1553598861.139338,1.200668,0.861134,1.824713,0.607453,-0.758582,-0.235698,0.000000,0.000000,0.000000,-1,-1.022438,1.066120,-0.271751,-0.008317,0.330298,0.172603
"2019-03-26 11:14:21.162 +0000",1553598861.161635,1.199027,0.839529,1.849762,0.622192,-0.744329,-0.242593,0.000000,0.000000,0.000000,-1,-1.057358,0.527922,-0.747078,0.051697,0.259679,0.095895
"2019-03-26 11:14:21.184 +0000",1553598861.183942,1.190775,0.815699,1.866896,0.636463,-0.728205,-0.254228,0.000000,0.000000,0.000000,-1,-0.733076,0.024689,-0.808221,-0.237034,0.087290,-0.057113
"2019-03-26 11:14:21.206 +0000",1553598861.206225,1.187800,0.795508,1.879071,0.649212,-0.714219,-0.261561,0.000000,0.000000,0.000000,-1,-0.769948,0.566362,-0.696282,-0.304028,-0.165328,-0.155324
"2019-03-26 11:14:21.229 +0000",1553598861.228514,1.194249,0.773452,1.892617,0.665375,-0.698609,-0.263099,0.000000,0.000000,0.000000,-1,-0.697269,0.656067,-0.729301,-0.009827,-0.292007,-0.027611
"2019-03-26 11:14:21.251 +0000",1553598861.250835,1.200813,0.758703,1.905749,0.676621,-0.687981,-0.262423,0.000000,0.000000,0.000000,-1,-0.657888,0.780676,-0.321012,-0.258866,-0.344337,0.129397
"2019-03-26 11:14:21.273 +0000",1553598861.273144,1.202141,0.750539,1.923942,0.682186,-0.682033,-0.263540,0.000000,0.000000,0.000000,-1,-0.712972,0.488127,0.062408,-0.133358,-0.149373,0.040044
"2019-03-26 11:14:21.295 +0000",1553598861.295420,1.194123,0.746497,1.952566,0.682609,-0.679071,-0.270013,0.000000,0.000000,0.000000,-1,-1.067105,0.553976,-0.048737,-0.273445,-0.105994,0.130289
"2019-03-26 11:14:21.318 +0000",1553598861.317729,1.189428,0.727601,1.970592,0.693121,-0.665080,-0.277942,0.000000,0.000000,0.000000,-1,-0.671569,0.205484,-0.503233,-0.106222,-0.158528,0.156619
"2019-03-26 11:14:21.340 +0000",1553598861.340035,1.185247,0.724509,1.980321,0.693855,-0.662768,-0.281609,0.000000,0.000000,0.000000,-1,-0.244845,0.061980,0.196648,-0.124641,-0.195188,0.173379
"2019-03-26 11:14:21.362 +0000",1553598861.362313,1.182011,0.725966,1.988879,0.692046,-0.663858,-0.283487,0.000000,0.000000,0.000000,-1,-0.282926,0.131611,0.074440,-0.155425,-0.358511,-0.039587
"2019-03-26 11:14:21.385 +0000",1553598861.384623,1.178116,0.723957,1.997706,0.692167,-0.662354,-0.286690,0.000000,0.000000,0.000000,-1,-0.212659,0.082489,0.088552,-0.138258,-0.210189,0.001762
"2019-03-26 11:14:21.407 +0000",1553598861.406931,1.179016,0.729207,1.995445,0.689202,-0.666279,-0.284735,0.000000,0.000000,0.000000,-1,0.230486,-0.111221,0.209554,-0.168694,0.020023,0.081106
"2019-03-26 11:14:21.429 +0000",1553598861.429207,1.180180,0.729480,1.999817,0.689364,-0.666482,-0.283864,0.000000,0.000000,0.000000,-1,-0.362829,0.312690,-0.171588,-0.087954,-0.018378,0.056553
"2019-03-26 11:14:21.452 +0000",1553598861.451535,1.182463,0.717689,2.007614,0.697236,-0.657645,-0.285245,0.000000,0.000000,0.000000,-1,-0.406488,0.367035,-0.428881,-0.141770,-0.022836,0.185697
"2019-03-26 11:14:21.474 +0000",1553598861.473824,1.190757,0.703594,2.010907,0.708116,-0.646962,-0.282863,0.000000,0.000000,0.000000,-1,-0.351033,0.484138,-0.691651,-0.235781,-0.112010,0.148799
"2019-03-26 11:14:21.496 +0000",1553598861.496131,1.200973,0.677475,2.013687,0.726480,-0.626828,-0.281627,0.000000,0.000000,0.000000,-1,-0.630662,0.537051,-1.293903,-0.224725,-0.203830,0.119121
"2019-03-26 11:14:21.518 +0000",1553598861.518438,1.201379,0.649513,2.026738,0.742653,-0.604799,-0.287550,0.000000,0.000000,0.000000,-1,-1.070379,0.277917,-0.497845,-0.280846,0.148179,0.102873
"2019-03-26 11:14:21.541 +0000",1553598861.540717,1.182251,0.642203,2.079083,0.741089,-0.598961,-0.303369,0.000000,0.000000,0.000000,-1,-2.378680,0.606691,0.365814,-0.375015,0.220940,-0.015097
"2019-03-26 11:14:21.563 +0000",1553598861.563026,1.170645,0.598117,2.115326,0.761114,-0.563087,-0.321929,0.000000,0.000000,0.000000,-1,-1.355126,0.228861,-2.338494,-0.091970,0.378975,-0.091660
"2019-03-26 11:14:21.585 +0000",1553598861.585333,1.181927,0.548715,2.101735,0.789494,-0.521592,-0.323483,0.000000,0.000000,0.000000,-1,0.174854,0.499578,-1.847747,0.013072,-0.676681,0.359951
"2019-03-26 11:14:21.608 +0000",1553598861.607640,1.201824,0.531748,2.094262,0.803914,-0.507041,-0.310858,0.000000,0.000000,0.000000,-1,-0.667541,1.400590,-0.023827,0.067821,-0.644952,0.214041
"2019-03-26 11:14:21.630 +0000",1553598861.629931,1.198880,0.551241,2.110574,0.793635,-0.523745,-0.309573,0.000000,0.000000,0.000000,-1,-0.487848,-0.151832,1.239255,-0.200754,-0.549696,-0.095091
"2019-03-26 11:14:21.652 +0000",1553598861.652235,1.191764,0.569061,2.135721,0.782616,-0.538841,-0.311709,0.000000,0.000000,0.000000,-1,-0.585295,0.747200,0.876438,-0.142022,-0.942223,-0.434431
"2019-03-26 11:14:21.675 +0000",1553598861.674534,1.206979,0.576058,2.147325,0.783725,-0.544722,-0.298417,0.000000,0.000000,0.000000,-1,-0.018131,0.943179,0.277001,0.322522,-0.309556,0.000291
"2019-03-26 11:14:21.697 +0000",1553598861.696810,1.222011,0.581378,2.142867,0.785387,-0.549176,-0.285608,0.000000,0.000000,0.000000,-1,0.317254,0.348803,0.185658,0.185804,-0.305835,0.069788
"2019-03-26 11:14:21.719 +0000",1553598861.719119,1.231181,0.590978,2.139890,0.782966,-0.557173,-0.276625,0.000000,0.000000,0.000000,-1,0.195318,0.440662,0.413050,-0.249641,-0.274247,-0.173479
"2019-03-26 11:14:21.741 +0000",1553598861.741426,1.249093,0.602633,2.139932,0.781581,-0.566813,-0.260486,0.000000,0.000000,0.000000,-1,0.159858,1.080780,0.530166,-0.242168,-0.000020,-0.024471
"2019-03-26 11:14:21.764 +0000",1553598861.763736,1.277273,0.612615,2.136592,0.783156,-0.575009,-0.236712,0.000000,0.000000,0.000000,-1,0.236252,1.040170,0.199335,-0.139341,0.001065,-0.012403
"2019-03-26 11:14:21.786 +0000",1553598861.786012,1.289295,0.608688,2.136676,0.788108,-0.571792,-0.227906,0.000000,0.000000,0.000000,-1,-0.254413,0.272722,-0.339901,-0.229529,-0.115312,0.059067
"2019-03-26 11:14:21.808 +0000",1553598861.808319,1.278705,0.601034,2.145540,0.789818,-0.565496,-0.237492,0.000000,0.000000,0.000000,-1,-0.414324,-0.390586,-0.069846,-0.353035,-0.351542,0.026341
"2019-03-26 11:14:21.831 +0000",1553598861.830627,1.269434,0.600404,2.153130,0.787923,-0.564976,-0.244909,0.000000,0.000000,0.000000,-1,-0.170219,-0.238551,0.091420,-0.097569,-0.340008,-0.111277
"2019-03-26 11:14:21.853 +0000",1553598861.852935,1.264201,0.604641,2.152199,0.784340,-0.568467,-0.248305,0.000000,0.000000,0.000000,-1,0.205061,-0.142284,0.131664,0.241569,-0.243224,0.006758
"2019-03-26 11:14:21.875 +0000",1553598861.875217,1.286777,0.594632,2.153257,0.795168,-0.560204,-0.232119,0.000000,0.000000,0.000000,-1,-0.550008,1.653616,-0.774069,-0.307192,-0.187599,0.038942
"2019-03-26 11:14:21.898 +0000",1553598861.897521,1.305503,0.563877,2.178622,0.815621,-0.534467,-0.221602,0.000000,0.000000,0.000000,-1,-1.637229,0.922054,-1.193546,-0.556817,0.058728,0.308928
"2019-03-26 11:14:21.920 +0000",1553598861.919829,1.294198,0.535848,2.211873,0.827154,-0.510571,-0.234808,0.000000,0.000000,0.000000,-1,-1.269693,0.052982,-0.428945,-0.573888,-0.014637,0.240560
"2019-03-26 11:14:21.942 +0000",1553598861.942137,1.291620,0.543844,2.223092,0.822595,-0.517429,-0.235807,0.000000,0.000000,0.000000,-1,0.210865,0.680821,0.801695,-0.612069,0.146534,-0.003710
"2019-03-26 11:14:21.964 +0000",1553598861.964438,1.338043,0.560636,2.216055,0.824080,-0.531725,-0.195348,0.000000,0.000000,0.000000,-1,0.454156,2.047919,0.558923,0.199647,0.012590,-0.318080
"2019-03-26 11:14:21.987 +0000",1553598861.986722,1.393593,0.576438,2.191821,0.825280,-0.545041,-0.147793,0.000000,0.000000,0.000000,-1,1.581436,2.087295,1.075122,-0.454522,0.591047,0.035640
"2019-03-26 11:14:22.009 +0000",1553598862.009030,1.426515,0.658168,2.182508,0.782894,-0.611668,-0.113748,0.000000,0.000000,0.000000,-1,0.181038,-0.179978,4.707103,-0.505520,0.271138,-0.115058
"2019-03-26 11:14:22.031 +0000",1553598862.031321,1.425798,0.776747,2.191453,0.705714,-0.700963,-0.103050,0.000000,0.000000,0.000000,-1,0.759446,-0.153854,5.355921,1.222692,-0.646831,0.052696
"2019-03-26 11:14:22.054 +0000",1553598862.053622,1.423342,0.891373,2.176549,0.621526,-0.777935,-0.092317,0.000000,0.000000,0.000000,-1,1.524590,-0.876316,4.860243,-0.034154,-0.066013,-0.162612
"2019-03-26 11:14:22.076 +0000",1553598862.075924,1.423436,0.995235,2.128445,0.538407,-0.838887,-0.079919,0.000000,0.000000,0.000000,-1,1.909292,-2.199179,4.065799,-0.181962,0.174351,-0.197654
"2019-03-26 11:14:22.098 +0000",1553598862.098236,1.419063,1.076746,2.087317,0.468748,-0.880419,-0.071675,0.000000,0.000000,0.000000,-1,1.196474,-1.544480,3.254571,-0.185804,0.363177,-0.273021
"2019-03-26 11:14:22.121 +0000",1553598862.120510,1.402917,1.148991,2.081645,0.403652,-0.912351,-0.068409,0.000000,0.000000,0.000000,-1,0.274951,-0.596636,3.198622,-0.284435,0.577513,0.283695
"2019-03-26 11:14:22.143 +0000",1553598862.142816,1.356323,1.220376,2.127019,0.335427,-0.939229,-0.073064,0.000000,0.000000,0.000000,-1,-0.298762,-0.076125,3.301683,-0.031914,0.463276,0.335088
"2019-03-26 11:14:22.165 +0000",1553598862.165122,1.280502,1.283335,2.200639,0.271656,-0.958967,-0.081153,0.000000,0.000000,0.000000,-1,-0.278770,-0.344106,2.712332,0.145550,0.266706,0.235755
"2019-03-26 11:14:22.187 +0000",1553598862.187431,1.200071,1.333612,2.274667,0.219005,-0.972003,-0.085127,0.000000,0.000000,0.000000,-1,0.178590,-0.191882,2.262101,-0.033778,0.213275,-0.073244
"2019-03-26 11:14:22.210 +0000",1553598862.209711,1.179476,1.371573,2.298941,0.182947,-0.980221,-0.075484,0.000000,0.000000,0.000000,-1,0.496718,-0.000252,0.882295,-0.136149,0.120830,0.194701
"2019-03-26 11:14:22.232 +0000",1553598862.232018,1.199181,1.377918,2.258856,0.178601,-0.981457,-0.069605,0.000000,0.000000,0.000000,-1,0.349180,-1.310193,-0.011735,-0.410855,-1.568424,0.193400
"2019-03-26 11:14:22.254 +0000",1553598862.254333,1.171678,1.379634,2.266681,0.175067,-0.981784,-0.073835,0.000000,0.000000,0.000000,-1,-0.280543,-0.515146,0.152133,-0.466830,0.345081,-0.265261
"2019-03-26 11:14:22.277 +0000",1553598862.276634,1.110935,1.376286,2.326523,0.173206,-0.981142,-0.085785,0.000000,0.000000,0.000000,-1,-0.580489,0.061147,0.016632,-0.126652,0.117953,-0.039596
"2019-03-26 11:14:22.299 +0000",1553598862.298910,1.074189,1.372380,2.365003,0.173306,-0.980380,-0.093916,0.000000,0.000000,0.000000,-1,-0.221823,0.019428,0.004750,-0.120145,0.147143,0.030805
"2019-03-26 11:14:22.321 +0000",1553598862.321219,1.074412,1.371352,2.362562,0.174214,-0.980177,-0.094357,0.000000,0.000000,0.000000,-1,0.090008,-0.184988,-0.083861,-0.150395,0.011061,0.032803
"2019-03-26 11:14:22.344 +0000",1553598862.343527,1.086955,1.371798,2.341590,0.174996,-0.980265,-0.091961,0.000000,0.000000,0.000000,-1,0.196562,-0.472675,-0.051489,-0.152748,-0.031911,0.130047
"2019-03-26 11:14:22.366 +0000",1553598862.365814,1.093066,1.371492,2.327063,0.175821,-0.980205,-0.091028,0.000000,0.000000,0.000000,-1,0.022244,-0.182585,-0.091355,-0.185739,0.014964,0.112329
"2019-03-26 11:14:22.388 +0000",1553598862.388112,1.088374,1.367809,2.337277,0.178589,-0.979469,-0.093526,0.000000,0.000000,0.000000,-1,-0.237040,0.427412,-0.104324,-0.245453,-0.009988,0.034276
"2019-03-26 11:14:22.410 +0000",1553598862.410419,1.076911,1.364055,2.357815,0.180741,-0.978705,-0.097309,0.000000,0.000000,0.000000,-1,-0.225518,0.264133,-0.019753,-0.255341,-0.025262,0.014225
"2019-03-26 11:14:22.433 +0000",1553598862.432729,1.058608,1.362707,2.375541,0.180080,-0.978427,-0.101247,0.000000,0.000000,0.000000,-1,-0.141540,-0.199359,0.042702,-0.226757,-0.030392,-0.021281
"2019-03-26 11:14:22.455 +0000",1553598862.455005,1.045924,1.362611,2.384100,0.178863,-0.978408,-0.103570,0.000000,0.000000,0.000000,-1,-0.022442,-0.128067,0.014829,-0.203292,-0.044343,0.003640
"2019-03-26 11:14:22.477 +0000",1553598862.477323,1.050854,1.362707,2.379512,0.179289,-0.978427,-0.102640,0.000000,0.000000,0.000000,-1,0.059047,0.077229,-0.030378,-0.212797,-0.005993,0.087305
"2019-03-26 11:14:22.500 +0000",1553598862.499622,1.054361,1.362685,2.377557,0.179667,-0.978423,-0.102022,0.000000,0.000000,0.000000,-1,-0.027399,0.042869,0.000904,-0.217692,-0.014863,0.059419
"2019-03-26 11:14:22.522 +0000",1553598862.521930,1.049053,1.361808,2.382710,0.179867,-0.978241,-0.103402,0.000000,0.000000,0.000000,-1,-0.051405,-0.061801,-0.024229,-0.220608,-0.032837,0.024224
"2019-03-26 11:14:22.544 +0000",1553598862.544208,1.051307,1.361533,2.376528,0.180333,-0.978184,-0.103130,0.000000,0.000000,0.000000,-1,0.096431,-0.225411,-0.040081,-0.200932,-0.017406,0.002467
"2019-03-26 11:14:22.567 +0000",1553598862.566509,1.058031,1.362590,2.364491,0.180122,-0.978403,-0.101408,0.000000,0.000000,0.000000,-1,0.108016,-0.166116,0.022666,-0.206596,0.005487,-0.005144
"2019-03-26 11:14:22.589 +0000",1553598862.588816,0.957472,1.400513,2.463396,0.138575,-0.985537,-0.097540,0.000000,0.000000,0.000000,-1,0.038516,0.055960,0.138752,-0.186229,-0.021910,0.033652
"2019-03-26 11:14:22.611 +0000",1553598862.611129,0.882911,1.433502,2.536401,0.105739,-0.990590,-0.086895,0.000000,0.000000,0.000000,-1,0.003439,-0.138135,0.157977,-0.160320,-0.062099,0.068279
"2019-03-26 11:14:22.633 +0000",1553598862.633408,0.775914,1.455323,2.637519,0.080694,-0.993340,-0.082239,0.000000,0.000000,0.000000,-1,-0.033978,-0.291545,0.220219,-0.118078,-0.011314,-0.041769
"2019-03-26 11:14:22.656 +0000",1553598862.655715,0.736556,1.455357,2.670418,0.077373,-0.993344,-0.085326,0.000000,0.000000,0.000000,-1,-0.171406,-0.255390,0.041202,-0.109890,-0.002536,-0.046815
"2019-03-26 11:14:22.678 +0000",1553598862.678024,0.617513,1.459073,2.789651,0.064554,-0.993765,-0.090901,0.000000,0.000000,0.000000,-1,-0.030424,0.149631,0.088629,-0.085962,0.022284,0.020726
"2019-03-26 11:14:22.700 +0000",1553598862.700316,0.601922,1.463663,2.802918,0.060546,-0.994267,-0.088136,0.000000,0.000000,0.000000,-1,0.203214,-0.363037,0.201626,-0.109450,0.015431,0.177537
"2019-03-26 11:14:22.723 +0000",1553598862.722609,0.558784,1.469000,2.827874,0.053875,-0.994823,-0.086164,0.000000,0.000000,0.000000,-1,0.038600,-1.026009,0.240935,-0.058224,0.009121,-0.005266
"2019-03-26 11:14:22.745 +0000",1553598862.744917,0.470808,1.468545,2.893509,0.046301,-0.994777,-0.090967,0.000000,0.000000,0.000000,-1,-0.246057,-0.917870,0.242334,-0.060598,-0.023732,-0.151708
"2019-03-26 11:14:22.767 +0000",1553598862.767225,0.410378,1.466154,2.939548,0.041671,-0.994530,-0.095779,0.000000,0.000000,0.000000,-1,-0.105971,-0.507585,0.075001,-0.025985,-0.029304,-0.045350
"2019-03-26 11:14:22.790 +0000",1553598862.789532,0.413247,1.466858,2.927638,0.041665,-0.994603,-0.095017,0.000000,0.000000,0.000000,-1,0.110436,-0.396185,-0.089647,0.022864,0.028646,0.074052
"2019-03-26 11:14:22.812 +0000",1553598862.811809,0.427599,1.467908,2.900366,0.042591,-0.994712,-0.093459,0.000000,0.000000,0.000000,-1,0.047550,-0.711087,-0.078195,0.037579,0.017478,0.035109
"2019-03-26 11:14:22.834 +0000",1553598862.834118,0.405049,1.466089,2.902152,0.041186,-0.994523,-0.096059,0.000000,0.000000,0.000000,-1,-0.150539,-1.043005,0.001580,0.061674,-0.015517,0.007359
"2019-03-26 11:14:22.856 +0000",1553598862.856422,0.370927,1.462123,2.912566,0.039314,-0.994101,-0.101084,0.000000,0.000000,0.000000,-1,-0.187113,-1.019849,-0.050744,0.075493,-0.043878,-0.002386
"2019-03-26 11:14:22.879 +0000",1553598862.878702,0.359869,1.458699,2.903576,0.039393,-0.993724,-0.104697,0.000000,0.000000,0.000000,-1,-0.080622,-0.829376,-0.114416,0.023367,-0.021596,0.012138
"2019-03-26 11:14:22.901 +0000",1553598862.901022,0.364210,1.457637,2.881460,0.040223,-0.993604,-0.105512,0.000000,0.000000,0.000000,-1,0.036019,-0.818274,-0.119427,-0.015214,0.026228,0.092694
"2019-03-26 11:14:22.923 +0000",1553598862.923299,0.363052,1.457987,2.860608,0.039977,-0.993644,-0.105232,0.000000,0.000000,0.000000,-1,0.037278,-1.092417,-0.072333,-0.044966,0.029120,0.071831
"2019-03-26 11:14:22.946 +0000",1553598862.945627,0.342744,1.457280,2.853510,0.038068,-0.993564,-0.106684,0.000000,0.000000,0.000000,-1,-0.051771,-1.271931,-0.039765,-0.068066,0.005039,0.013987
"2019-03-26 11:14:22.968 +0000",1553598862.967905,0.318032,1.454560,2.850138,0.036265,-0.993252,-0.110159,0.000000,0.000000,0.000000,-1,-0.143411,-1.219176,-0.066324,-0.072779,-0.019687,0.031088
"2019-03-26 11:14:22.990 +0000",1553598862.990212,0.285462,1.450337,2.858460,0.033840,-0.992754,-0.115305,0.000000,0.000000,0.000000,-1,-0.248127,-0.967817,0.050492,-0.083751,-0.038405,0.058726
"2019-03-26 11:14:23.013 +0000",1553598863.012522,0.229705,1.444473,2.894060,0.028686,-0.992032,-0.122678,0.000000,0.000000,0.000000,-1,-0.272974,-0.987270,0.112681,-0.055709,-0.000583,0.055952
"2019-03-26 11:14:23.035 +0000",1553598863.034828,0.199870,1.441107,2.894665,0.025677,-0.991602,-0.126751,0.000000,0.000000,0.000000,-1,-0.104875,-1.492407,-0.106060,0.010380,-0.024374,0.070248
"2019-03-26 11:14:23.057 +0000",1553598863.057107,0.186717,1.438457,2.870194,0.024495,-0.991256,-0.129660,0.000000,0.000000,0.000000,-1,-0.071549,-1.765823,-0.192938,0.064998,0.079864,0.011679
"2019-03-26 11:14:23.079 +0000",1553598863.079426,0.187561,1.435119,2.828979,0.025221,-0.990810,-0.132890,0.000000,0.000000,0.000000,-1,-0.177536,-1.765227,-0.345575,0.103731,-0.044118,0.099214
"2019-03-26 11:14:23.102 +0000",1553598863.101721,0.216808,1.428256,2.760521,0.030559,-0.989858,-0.138733,0.000000,0.000000,0.000000,-1,-0.141776,-1.662529,-0.513944,0.032445,-0.081828,0.041015
"2019-03-26 11:14:23.124 +0000",1553598863.124030,0.250430,1.430156,2.696688,0.034739,-0.990126,-0.135805,0.000000,0.000000,0.000000,-1,0.347666,-1.088020,-0.242194,-0.042460,-0.124086,0.065156
"2019-03-26 11:14:23.146 +0000",1553598863.146312,0.259035,1.438806,2.668428,0.033711,-0.991302,-0.127217,0.000000,0.000000,0.000000,-1,0.456922,-0.798996,0.048055,-0.058384,0.054977,0.082371
"2019-03-26 11:14:23.169 +0000",1553598863.168614,0.244730,1.446992,2.662338,0.029921,-0.992346,-0.119809,0.000000,0.000000,0.000000,-1,0.284942,-1.074571,0.061592,-0.074476,0.086584,0.119809
"2019-03-26 11:14:23.191 +0000",1553598863.190912,0.189065,1.451112,2.688771,0.022440,-0.992846,-0.117271,0.000000,0.000000,0.000000,-1,0.058451,-1.417141,0.253098,-0.109735,0.142733,0.050666
"2019-03-26 11:14:23.213 +0000",1553598863.213198,0.108588,1.451477,2.736336,0.012901,-0.992890,-0.118335,0.000000,0.000000,0.000000,-1,-0.015632,-1.515823,0.222497,-0.090873,-0.021743,0.035068
"2019-03-26 11:14:23.236 +0000",1553598863.235505,0.039298,1.455670,2.775167,0.004513,-0.993380,-0.114783,0.000000,0.000000,0.000000,-1,0.285551,-1.246334,0.211550,0.046985,-0.078595,0.054755
"2019-03-26 11:14:23.258 +0000",1553598863.257817,-0.012749,1.465052,2.803167,-0.001346,-0.994414,-0.105539,0.000000,0.000000,0.000000,-1,0.455910,-1.028886,0.117891,0.086093,0.025847,0.040155
"2019-03-26 11:14:23.280 +0000",1553598863.280123,-0.053694,1.475835,2.821659,-0.005089,-0.995495,-0.094682,0.000000,0.000000,0.000000,-1,0.503292,-1.021758,0.047137,0.096779,0.060085,0.042055
"2019-03-26 11:14:23.302 +0000",1553598863.302418,-0.104152,1.485566,2.849067,-0.008850,-0.996370,-0.084666,0.000000,0.000000,0.000000,-1,0.376883,-1.026464,0.116595,0.082199,0.025606,0.072703
"2019-03-26 11:14:23.325 +0000",1553598863.324708,-0.191110,1.491368,2.913762,-0.015072,-0.996847,-0.077901,0.000000,0.000000,0.000000,-1,0.254549,-0.995221,0.256445,0.067394,0.014029,0.073309
"2019-03-26 11:14:23.347 +0000",1553598863.347018,-0.318621,1.496576,3.020128,-0.023229,-0.997247,-0.070420,0.000000,0.000000,0.000000,-1,0.373995,-0.934664,0.315505,0.053533,-0.046607,0.063431
"2019-03-26 11:14:23.369 +0000",1553598863.369317,-0.496941,1.502872,-3.103950,-0.032357,-0.997694,-0.059662,0.000000,0.000000,0.000000,-1,0.492212,-0.849496,0.376826,0.031625,0.004316,-0.003646
"2019-03-26 11:14:23.392 +0000",1553598863.391603,-0.672778,1.506399,-2.947284,-0.040102,-0.997927,-0.050330,0.000000,0.000000,0.000000,-1,0.243127,-0.959700,0.217668,0.078524,0.038973,-0.002725
"2019-03-26 11:14:23.414 +0000",1553598863.413909,-0.748837,1.504702,-2.891383,-0.044964,-0.997817,-0.048378,0.000000,0.000000,0.000000,-1,0.025177,-0.643558,0.239578,0.127209,0.080245,0.025887
"2019-03-26 11:14:23.436 +0000",1553598863.436218,-0.843916,1.499350,-2.796201,-0.053343,-0.997449,-0.047439,0.000000,0.000000,0.000000,-1,0.074247,0.265059,0.431260,0.171584,-0.002551,0.084259
"2019-03-26 11:14:23.459 +0000",1553598863.458526,-0.992191,1.517731,-2.643172,-0.044407,-0.998592,-0.029005,0.000000,0.000000,0.000000,-1,0.315778,0.076492,0.305177,0.229419,0.008236,0.108916
"2019-03-26 11:14:23.481 +0000",1553598863.480804,-1.236114,1.515682,-2.405738,-0.052030,-0.998482,-0.018094,0.000000,0.000000,0.000000,-1,0.479484,-0.571890,0.263862,0.321622,0.071098,0.048978
"2019-03-26 11:14:23.503 +0000",1553598863.503111,-1.343999,1.518962,-2.308278,-0.050484,-0.998657,-0.011650,0.000000,0.000000,0.000000,-1,0.145369,-0.297049,-0.202683,0.300652,0.098343,0.048118
"2019-03-26 11:14:23.525 +0000",1553598863.525423,-1.391972,1.523655,-2.267547,-0.046372,-0.998889,-0.008382,0.000000,0.000000,0.000000,-1,0.151778,-0.421081,-0.148236,0.043823,0.030475,0.175511
"2019-03-26 11:14:23.548 +0000",1553598863.547727,-1.506896,1.524194,-2.162397,-0.046491,-0.998914,-0.002975,0.000000,0.000000,0.000000,-1,0.245669,-0.385606,0.108281,-0.013751,-0.021075,0.075988
"2019-03-26 11:14:23.570 +0000",1553598863.570004,-1.593782,1.519248,-2.081757,-0.051512,-0.998672,0.001184,0.000000,0.000000,0.000000,-1,0.085866,-0.269401,0.273414,-0.071245,-0.124284,0.072989
"2019-03-26 11:14:23.592 +0000",1553598863.592319,-1.490665,1.512699,-2.190527,-0.057878,-0.998313,-0.004648,0.000000,0.000000,0.000000,-1,-0.530039,-0.198378,0.256392,-0.115218,-0.286019,0.044687
"2019-03-26 11:14:23.615 +0000",1553598863.614620,-1.144410,1.502883,-2.538561,-0.061785,-0.997695,-0.028066,0.000000,0.000000,0.000000,-1,-1.369348,0.076499,0.172957,-0.153394,-0.371949,-0.022791
"2019-03-26 11:14:23.637 +0000",1553598863.636897,-0.809257,1.475704,-2.877697,-0.068721,-0.995482,-0.065518,0.000000,0.000000,0.000000,-1,-1.846692,-0.427207,0.395559,-0.126271,-0.278505,-0.071308
"2019-03-26 11:14:23.659 +0000",1553598863.659206,-0.545628,1.429990,3.130462,-0.072831,-0.990103,-0.119964,0.000000,0.000000,0.000000,-1,-2.755123,-0.208993,-0.018626,-0.020492,-0.204279,-0.037323
"2019-03-26 11:14:23.682 +0000",1553598863.681513,-0.359483,1.379153,2.933228,-0.067006,-0.981693,-0.178297,0.000000,0.000000,0.000000,-1,-2.540338,-0.460560,-0.519961,0.007329,0.006229,0.183821
"2019-03-26 11:14:23.704 +0000",1553598863.703821,-0.348654,1.325173,2.921431,-0.083072,-0.969986,-0.228531,0.000000,0.000000,0.000000,-1,-2.159690,0.163019,2.594627,0.018497,-0.202835,-0.100983
"2019-03-26 11:14:23.726 +0000",1553598863.726098,-0.382263,1.279919,2.958494,-0.106980,-0.957993,-0.266093,0.000000,0.000000,0.000000,-1,-1.486403,0.253140,-0.262850,0.418656,0.091782,0.092860
"2019-03-26 11:14:23.748 +0000",1553598863.748393,-0.247186,1.271789,2.819188,-0.072075,-0.955629,-0.285619,0.000000,0.000000,0.000000,-1,-0.649102,-0.289015,-1.857977,-0.604637,0.394197,0.254552
"2019-03-26 11:14:23.771 +0000",1553598863.770715,-0.151468,1.257361,2.722342,-0.046524,-0.951280,-0.304798,0.000000,0.000000,0.000000,-1,-1.127216,0.390254,-0.792384,-0.591050,0.160081,0.024967
"2019-03-26 11:14:23.793 +0000",1553598863.793022,-0.100900,1.230779,2.663748,-0.033593,-0.942749,-0.331807,0.000000,0.000000,0.000000,-1,-1.271636,-0.774169,-0.638207,-0.322272,-0.269547,0.242482
"2019-03-26 11:14:23.815 +0000",1553598863.815292,-0.097838,1.207407,2.626698,-0.034720,-0.934697,-0.353745,0.000000,0.000000,0.000000,-1,-0.966481,-1.647783,-0.405783,-0.153909,-0.079737,0.232376
"2019-03-26 11:14:23.838 +0000",1553598863.837607,-0.099889,1.195952,2.586226,-0.036511,-0.930565,-0.364302,0.000000,0.000000,0.000000,-1,-0.295855,-1.819993,-0.794738,-0.093493,-0.116570,0.282454
"2019-03-26 11:14:23.860 +0000",1553598863.859917,-0.076295,1.201313,2.523924,-0.027526,-0.932514,-0.360083,0.000000,0.000000,0.000000,-1,0.344155,-1.284633,-1.120516,-0.136720,-0.079754,0.223639
"2019-03-26 11:14:23.882 +0000",1553598863.882224,-0.032858,1.210830,2.457066,-0.011572,-0.935909,-0.352052,0.000000,0.000000,0.000000,-1,0.263285,-0.646003,-1.065433,-0.288416,-0.055897,0.053377
"2019-03-26 11:14:23.905 +0000",1553598863.904501,0.025666,1.206066,2.389532,0.009154,-0.934220,-0.356580,0.000000,0.000000,0.000000,-1,-0.365786,0.171832,-1.053113,-0.311827,-0.142104,-0.079318
"2019-03-26 11:14:23.927 +0000",1553598863.926806,0.077945,1.206527,2.346748,0.027741,-0.934384,-0.355185,0.000000,0.000000,0.000000,-1,0.197593,0.686027,-0.480585,-0.404038,-0.191196,-0.183404
"2019-03-26 11:14:23.949 +0000",1553598863.949118,0.115670,1.208732,2.320560,0.040880,-0.935168,-0.351838,0.000000,0.000000,0.000000,-1,0.062402,0.445279,-0.371819,-0.570268,-0.084867,-0.179091
"2019-03-26 11:14:23.971 +0000",1553598863.971409,0.127753,1.201159,2.306856,0.046029,-0.932458,-0.358334,0.000000,0.000000,0.000000,-1,-0.517053,-0.320805,-0.230048,-0.346947,0.165445,0.161953
"2019-03-26 11:14:23.994 +0000",1553598863.993732,0.127879,1.183606,2.292954,0.048154,-0.925974,-0.374505,0.000000,0.000000,0.000000,-1,-0.849108,-0.634061,-0.399845,-0.246671,0.155100,0.277276
"2019-03-26 11:14:24.016 +0000",1553598864.016010,0.124722,1.162226,2.278003,0.049423,-0.917690,-0.394212,0.000000,0.000000,0.000000,-1,-0.915401,-0.890848,-0.310756,-0.109192,0.198131,0.340577
"2019-03-26 11:14:24.038 +0000",1553598864.038300,0.109259,1.144486,2.273162,0.045090,-0.910498,-0.411048,0.000000,0.000000,0.000000,-1,-0.674934,-0.825979,-0.104059,0.038619,0.187246,0.253486
"2019-03-26 11:14:24.061 +0000",1553598864.060595,0.088841,1.133299,2.277819,0.037590,-0.905815,-0.422003,0.000000,0.000000,0.000000,-1,-0.429310,-0.695822,0.125632,-0.049752,0.187385,0.232138
"2019-03-26 11:14:24.083 +0000",1553598864.082904,0.067436,1.126102,2.287421,0.028988,-0.902742,-0.429204,0.000000,0.000000,0.000000,-1,-0.279758,-0.452076,0.154546,-0.134044,0.233186,0.217992
"2019-03-26 11:14:24.105 +0000",1553598864.105211,0.054783,1.123395,2.294062,0.023689,-0.901574,-0.431975,0.000000,0.000000,0.000000,-1,-0.003827,-0.257744,0.115722,-0.155876,0.265619,0.255950
"2019-03-26 11:14:24.128 +0000",1553598864.127505,0.042007,1.129635,2.300508,0.017931,-0.904257,-0.426613,0.000000,0.000000,0.000000,-1,0.435233,-0.338659,0.138959,-0.181124,0.269399,0.243752
"2019-03-26 11:14:24.150 +0000",1553598864.149795,0.033822,1.143306,2.303889,0.014020,-0.910009,-0.414351,0.000000,0.000000,0.000000,-1,0.670811,-0.108896,0.041498,-0.115979,0.235601,0.156508
"2019-03-26 11:14:24.172 +0000",1553598864.172104,0.042349,1.156991,2.299254,0.017023,-0.915597,-0.401736,0.000000,0.000000,0.000000,-1,0.544989,0.368903,-0.133992,-0.043390,0.212182,0.087496
"2019-03-26 11:14:24.194 +0000",1553598864.194412,0.068155,1.162177,2.286208,0.027060,-0.917670,-0.396420,0.000000,0.000000,0.000000,-1,0.045629,0.707872,-0.222812,0.025629,0.075980,-0.056430
"2019-03-26 11:14:24.217 +0000",1553598864.216720,0.090791,1.162245,2.280234,0.036020,-0.917697,-0.395644,0.000000,0.000000,0.000000,-1,0.078930,0.778694,-0.027240,0.023062,-0.066617,-0.133927
"2019-03-26 11:14:24.239 +0000",1553598864.238997,0.096165,1.165311,2.284993,0.037875,-0.918911,-0.392642,0.000000,0.000000,0.000000,-1,0.097958,0.142098,0.132246,0.203168,-0.230503,-0.275586
"2019-03-26 11:14:24.261 +0000",1553598864.261296,0.085508,1.165235,2.291735,0.033695,-0.918881,-0.393093,0.000000,0.000000,0.000000,-1,-0.062957,-0.309485,0.120059,0.391217,-0.276080,-0.372395
"2019-03-26 11:14:24.284 +0000",1553598864.283613,0.066639,1.164601,2.302214,0.026311,-0.918631,-0.394240,0.000000,0.000000,0.000000,-1,0.001350,-0.478791,0.230757,0.256572,-0.226480,-0.180864
"2019-03-26 11:14:24.306 +0000",1553598864.305922,0.038776,1.170287,2.320720,0.015114,-0.920863,-0.389594,0.000000,0.000000,0.000000,-1,0.421068,-0.475429,0.418229,0.009254,-0.134512,-0.083581
"2019-03-26 11:14:24.328 +0000",1553598864.328199,0.001107,1.187290,2.355378,0.000414,-0.927358,-0.374174,0.000000,0.000000,0.000000,-1,0.923300,0.111612,0.748179,-0.160479,0.045065,-0.088793
"2019-03-26 11:14:24.351 +0000",1553598864.350503,-0.033973,1.213876,2.413767,-0.011868,-0.936977,-0.349189,0.000000,0.000000,0.000000,-1,1.381369,1.100388,0.946768,-0.194248,0.102306,0.065238
"2019-03-26 11:14:24.373 +0000",1553598864.372814,-0.054752,1.248285,2.461355,-0.017345,-0.948443,-0.316474,0.000000,0.000000,0.000000,-1,1.669105,1.184654,0.437522,-0.235066,0.017763,0.083991
"2019-03-26 11:14:24.395 +0000",1553598864.395091,-0.045550,1.280175,2.490899,-0.013048,-0.958066,-0.286250,0.000000,0.000000,0.000000,-1,1.075954,2.031577,0.332988,-0.410460,0.086271,0.005000
"2019-03-26 11:14:24.417 +0000",1553598864.417392,-0.018740,1.280457,2.522752,-0.005364,-0.958147,-0.286227,0.000000,0.000000,0.000000,-1,-0.498863,2.665868,0.383747,-0.681601,-0.371779,-0.013242
"2019-03-26 11:14:24.440 +0000",1553598864.439701,0.012934,1.263502,2.544598,0.003912,-0.953155,-0.302456,0.000000,0.000000,0.000000,-1,-0.706735,2.200226,0.240167,-0.696539,-1.167679,-0.200474
"2019-03-26 11:14:24.462 +0000",1553598864.462014,0.038537,1.262106,2.559048,0.011705,-0.952732,-0.303586,0.000000,0.000000,0.000000,-1,0.403910,1.468560,0.190073,-0.368532,-0.701656,0.219403
"2019-03-26 11:14:24.484 +0000",1553598864.484293,0.058829,1.286122,2.568017,0.016512,-0.959753,-0.280359,0.000000,0.000000,0.000000,-1,1.385985,1.353341,0.190276,-0.228381,0.155493,0.567041
"2019-03-26 11:14:24.507 +0000",1553598864.506602,0.081927,1.323070,2.584590,0.020066,-0.969472,-0.244378,0.000000,0.000000,0.000000,-1,1.723389,2.029574,0.380423,-0.245133,0.613317,0.333184
"2019-03-26 11:14:24.529 +0000",1553598864.528909,0.110440,1.360090,2.610985,0.023052,-0.977884,-0.207876,0.000000,0.000000,0.000000,-1,1.533317,2.610309,0.427289,-0.266261,0.478509,0.449438
"2019-03-26 11:14:24.551 +0000",1553598864.551216,0.143535,1.395970,2.630866,0.024880,-0.984757,-0.172148,0.000000,0.000000,0.000000,-1,1.709270,2.009594,0.304921,-0.362847,-0.126068,0.549513
"2019-03-26 11:14:24.573 +0000",1553598864.573494,0.195918,1.440045,2.604027,0.025381,-0.991464,-0.127885,0.000000,0.000000,0.000000,-1,2.049827,0.773684,0.051803,-0.326406,-0.390585,0.167374
"2019-03-26 11:14:24.596 +0000",1553598864.595802,0.341744,1.476585,2.479337,0.031527,-0.995565,-0.088632,0.000000,0.000000,0.000000,-1,1.456709,1.289983,-0.296664,-0.251574,-0.356485,-0.063147
"2019-03-26 11:14:24.618 +0000",1553598864.618110,0.579682,1.491781,2.280552,0.043237,-0.996880,-0.066039,0.000000,0.000000,0.000000,-1,0.716699,1.975703,-0.398590,-0.125970,-0.072853,-0.116700
"2019-03-26 11:14:24.640 +0000",1553598864.640399,0.795911,1.498566,2.105675,0.051564,-0.997392,-0.050492,0.000000,0.000000,0.000000,-1,0.584600,1.761326,-0.151116,-0.039144,0.038210,0.222855
"2019-03-26 11:14:24.663 +0000",1553598864.662695,0.972770,1.509040,1.966097,0.051006,-0.998094,-0.034748,0.000000,0.000000,0.000000,-1,0.663803,1.702479,0.210437,0.022358,0.122132,0.221332
"2019-03-26 11:14:24.685 +0000",1553598864.685003,1.277748,1.521371,1.703925,0.047299,-0.998779,-0.014272,0.000000,0.000000,0.000000,-1,0.933536,2.110785,0.153585,0.049014,0.162597,0.169210
"2019-03-26 11:14:24.707 +0000",1553598864.707313,1.852251,1.520067,1.179885,0.048711,-0.998714,0.014084,0.000000,0.000000,0.000000,-1,1.329934,2.364265,-0.190884,0.025492,0.131129,0.065521
"2019-03-26 11:14:24.730 +0000",1553598864.729614,2.339384,1.495880,0.747600,0.053806,-0.997195,0.052027,0.000000,0.000000,0.000000,-1,1.675648,2.565566,-0.343869,0.019466,0.007052,-0.032649
"2019-03-26 11:14:24.752 +0000",1553598864.751897,2.594162,1.464823,0.550260,0.055056,-0.994390,0.090318,0.000000,0.000000,0.000000,-1,1.436775,2.566135,-0.170301,0.072981,0.005758,-0.107515
"2019-03-26 11:14:24.774 +0000",1553598864.774204,2.730165,1.442666,0.460803,0.051101,-0.991803,0.117117,0.000000,0.000000,0.000000,-1,0.911535,1.721658,0.052825,0.262894,0.054486,-0.169195
"2019-03-26 11:14:24.797 +0000",1553598864.796513,2.813444,1.426791,0.399084,0.046252,-0.989649,0.135851,0.000000,0.000000,0.000000,-1,0.786702,0.685868,0.066928,0.280180,0.046580,-0.205752
"2019-03-26 11:14:24.819 +0000",1553598864.818790,2.869962,1.408278,0.358304,0.043412,-0.986823,0.155871,0.000000,0.000000,0.000000,-1,0.942176,0.843231,0.024659,0.265776,-0.002343,-0.259418
"2019-03-26 11:14:24.841 +0000",1553598864.841099,2.936126,1.386653,0.314522,0.037358,-0.983093,0.179253,0.000000,0.000000,0.000000,-1,1.042026,1.104613,0.166285,0.109203,-0.014557,-0.184502
"2019-03-26 11:14:24.863 +0000",1553598864.863404,3.014597,1.366191,0.257229,0.025734,-0.979141,0.201545,0.000000,0.000000,0.000000,-1,0.952715,0.911286,0.444603,-0.054420,0.081757,-0.148582
"2019-03-26 11:14:24.886 +0000",1553598864.885714,3.092580,1.346117,0.193418,0.010915,-0.974865,0.222526,0.000000,0.000000,0.000000,-1,0.949129,0.514370,0.554811,-0.040258,0.080884,-0.150932
"2019-03-26 11:14:24.908 +0000",1553598864.907990,-3.118685,1.325694,0.126713,-0.005558,-0.970113,0.242592,0.000000,0.000000,0.000000,-1,0.999875,0.250622,0.739534,-0.038646,0.070439,-0.087944
"2019-03-26 11:14:24.930 +0000",1553598864.930299,-3.074317,1.298975,0.088404,-0.018049,-0.963284,0.267878,0.000000,0.000000,0.000000,-1,1.196387,0.535558,0.280570,-0.056887,0.038555,-0.031932
"2019-03-26 11:14:24.953 +0000",1553598864.952607,-3.046913,1.280811,0.094942,-0.027032,-0.958248,0.284658,0.000000,0.000000,0.000000,-1,0.522208,2.082471,-0.125461,-0.003760,-0.069508,-0.144659
"2019-03-26 11:14:24.975 +0000",1553598864.974898,-2.996203,1.274440,0.095369,-0.042310,-0.956407,0.288956,0.000000,0.000000,0.000000,-1,0.253953,2.173454,0.209803,-0.013812,-0.335570,-0.337159
"2019-03-26 11:14:24.997 +0000",1553598864.997192,-2.938834,1.271426,0.072959,-0.059388,-0.955522,0.288877,0.000000,0.000000,0.000000,-1,-0.100159,1.345581,0.254216,0.026033,-0.415251,-0.338911
"2019-03-26 11:14:25.020 +0000",1553598865.019501,-2.914535,1.278616,0.075262,-0.064841,-0.957618,0.280648,0.000000,0.000000,0.000000,-1,-0.369975,1.136436,-0.358111,0.226539,-0.280022,-0.191598
"2019-03-26 11:14:25.042 +0000",1553598865.041801,-2.938323,1.294205,0.130415,-0.055127,-0.961992,0.267456,0.000000,0.000000,0.000000,-1,-0.693772,1.489041,-1.075931,0.275021,-0.261366,-0.191909
"2019-03-26 11:14:25.064 +0000",1553598865.064110,-2.998162,1.323613,0.227645,-0.034974,-0.969605,0.242162,0.000000,0.000000,0.000000,-1,-1.340186,1.433085,-1.478887,0.204957,-0.276717,-0.153646
"2019-03-26 11:14:25.086 +0000",1553598865.086409,-3.117130,1.363048,0.376950,-0.005045,-0.978498,0.206196,0.000000,0.000000,0.000000,-1,-1.791716,1.152675,-1.730902,0.048197,-0.194995,-0.099598
"2019-03-26 11:14:25.109 +0000",1553598865.108700,2.967841,1.408087,0.610503,0.028005,-0.986792,0.159553,0.000000,0.000000,0.000000,-1,-2.369811,1.493114,-1.749058,-0.027456,-0.271539,-0.103416
"2019-03-26 11:14:25.131 +0000",1553598865.131009,2.593967,1.455681,1.017888,0.059803,-0.993382,0.098064,0.000000,0.000000,0.000000,-1,-3.169274,1.278405,-1.514273,-0.253285,-0.329265,-0.130016
"2019-03-26 11:14:25.153 +0000",1553598865.153340,1.903574,1.478610,1.746326,0.087005,-0.995754,0.030072,0.000000,0.000000,0.000000,-1,-2.964378,1.748479,-1.178450,-0.374648,-0.334477,-0.162182
"2019-03-26 11:14:25.176 +0000",1553598865.175593,1.366071,1.465591,2.333410,0.102819,-0.994471,-0.021349,0.000000,0.000000,0.000000,-1,-2.342354,2.370547,-0.392241,-0.582540,-0.482931,-0.304304
"2019-03-26 11:14:25.198 +0000",1553598865.197901,1.016794,1.447007,2.749376,0.105006,-0.992348,-0.064959,0.000000,0.000000,0.000000,-1,-2.226593,3.091259,0.190668,-0.618006,-0.346016,-0.019864
"2019-03-26 11:14:25.220 +0000",1553598865.220211,0.804635,1.418429,3.023375,0.109368,-0.988415,-0.105239,0.000000,0.000000,0.000000,-1,-2.040436,2.114441,-0.151895,-0.621590,-0.245503,0.382766
"2019-03-26 11:14:25.242 +0000",1553598865.242488,0.666723,1.380918,-3.092302,0.116719,-0.982027,-0.148321,0.000000,0.000000,0.000000,-1,-2.183855,0.933797,-0.057119,-0.730702,0.037371,0.071158
"2019-03-26 11:14:25.265 +0000",1553598865.264796,0.538847,1.341713,-2.944043,0.116528,-0.973875,-0.194907,0.000000,0.000000,0.000000,-1,-2.156858,0.595126,0.160512,-0.597134,0.039091,-0.193673
"2019-03-26 11:14:25.287 +0000",1553598865.287102,0.476645,1.305951,-2.873077,0.120095,-0.965133,-0.232584,0.000000,0.000000,0.000000,-1,-1.556975,0.245385,-0.321178,-0.250283,0.003204,0.027567
"2019-03-26 11:14:25.309 +0000",1553598865.309387,0.501776,1.272023,-2.880193,0.141576,-0.955698,-0.258064,0.000000,0.000000,0.000000,-1,-1.152909,1.294439,-1.072160,-0.062521,0.059946,0.307609
"2019-03-26 11:14:25.332 +0000",1553598865.331688,0.596253,1.237611,-2.938133,0.183656,-0.945005,-0.270620,0.000000,0.000000,0.000000,-1,-0.734817,1.869183,-1.687429,0.036391,0.099104,0.420278
"2019-03-26 11:14:25.354 +0000",1553598865.353997,0.692371,1.203262,-3.006984,0.229374,-0.933216,-0.276578,0.000000,0.000000,0.000000,-1,-0.543875,0.985664,-1.777507,0.112927,0.154835,0.370801
"2019-03-26 11:14:25.376 +0000",1553598865.376296,0.748930,1.170071,-3.061992,0.265592,-0.920778,-0.285706,0.000000,0.000000,0.000000,-1,-0.466049,-0.150176,-1.572626,0.076479,0.284273,0.070161
"2019-03-26 11:14:25.399 +0000",1553598865.398596,0.770306,1.145328,-3.099247,0.287419,-0.910845,-0.296228,0.000000,0.000000,0.000000,-1,-0.263613,-0.818442,-1.033175,-0.197117,0.312182,0.080377
"2019-03-26 11:14:25.421 +0000",1553598865.420889,0.762272,1.133518,-3.122564,0.292438,-0.905907,-0.306287,0.000000,0.000000,0.000000,-1,0.096872,-1.501392,-0.491045,-0.280231,0.340447,0.129086
"2019-03-26 11:14:25.443 +0000",1553598865.443198,0.759798,1.137050,3.132638,0.289473,-0.907398,-0.304687,0.000000,0.000000,0.000000,-1,0.715577,-1.114858,-0.171670,-0.369399,0.444904,0.167663
"2019-03-26 11:14:25.465 +0000",1553598865.465498,0.778980,1.155694,3.091935,0.283329,-0.915075,-0.286989,0.000000,0.000000,0.000000,-1,1.343271,-0.601498,0.177596,-0.451664,0.617361,0.197359
"2019-03-26 11:14:25.488 +0000",1553598865.487784,0.812002,1.186095,3.039570,0.272330,-0.926911,-0.258212,0.000000,0.000000,0.000000,-1,1.745453,-0.732120,0.393541,-0.255973,0.645203,0.085406
"2019-03-26 11:14:25.510 +0000",1553598865.510092,0.853250,1.220534,2.977034,0.258532,-0.939283,-0.225630,0.000000,0.000000,0.000000,-1,1.737184,-0.677548,0.509664,-0.166659,0.591749,-0.061372
"2019-03-26 11:14:25.532 +0000",1553598865.532399,0.882181,1.247377,2.932260,0.245390,-0.948154,-0.201959,0.000000,0.000000,0.000000,-1,0.900188,-0.508579,0.396157,-0.046583,0.295078,-0.199378
"2019-03-26 11:14:25.555 +0000",1553598865.554708,0.897504,1.252619,2.918953,0.244567,-0.949807,-0.195073,0.000000,0.000000,0.000000,-1,0.020778,0.526102,-0.113343,0.119752,-0.077842,-0.438655
"2019-03-26 11:14:25.577 +0000",1553598865.576988,0.885163,1.248132,2.931441,0.245437,-0.948394,-0.200773,0.000000,0.000000,0.000000,-1,-0.414577,-0.836301,0.092089,0.318817,-0.568955,-0.718172
"2019-03-26 11:14:25.599 +0000",1553598865.599293,0.802210,1.241571,2.971410,0.232426,-0.946293,-0.224739,0.000000,0.000000,0.000000,-1,-0.717694,-2.345626,0.145054,0.480145,-0.876613,-0.816124
"2019-03-26 11:14:25.622 +0000",1553598865.621600,0.713448,1.233413,3.010586,0.216634,-0.943624,-0.250287,0.000000,0.000000,0.000000,-1,-0.514156,-2.214912,0.204767,0.350017,-0.501688,-0.370395
"2019-03-26 11:14:25.644 +0000",1553598865.643909,0.674371,1.238404,3.022875,0.203747,-0.945264,-0.254877,0.000000,0.000000,0.000000,-1,0.408310,-0.409374,0.336760,-0.008419,-0.180590,-0.189062
"2019-03-26 11:14:25.666 +0000",1553598865.666187,0.694530,1.258190,3.011453,0.196833,-0.951535,-0.236300,0.000000,0.000000,0.000000,-1,0.935122,0.783271,0.440529,-0.212290,0.070325,-0.094312
"2019-03-26 11:14:25.688 +0000",1553598865.688490,0.745135,1.281064,2.998297,0.193722,-0.958320,-0.209985,0.000000,0.000000,0.000000,-1,0.699010,2.121579,0.758532,-0.514828,-0.040184,-0.035773
"2019-03-26 11:14:25.711 +0000",1553598865.710803,0.705184,1.297095,3.085053,0.175199,-0.962777,-0.205829,0.000000,0.000000,0.000000,-1,-0.713453,1.677036,1.431764,-0.570768,-0.163276,0.146457
"2019-03-26 11:14:25.733 +0000",1553598865.733111,0.628008,1.296709,-3.091256,0.159027,-0.962673,-0.219024,0.000000,0.000000,0.000000,-1,-0.685615,0.974209,0.686247,-0.736419,-0.699223,-0.135193
"2019-03-26 11:14:25.755 +0000",1553598865.755390,0.613730,1.301561,-3.050297,0.153192,-0.963975,-0.217452,0.000000,0.000000,0.000000,-1,0.295028,1.294015,0.569699,-0.864923,-0.369888,0.168441
"2019-03-26 11:14:25.778 +0000",1553598865.777695,0.634646,1.328671,-3.032531,0.142156,-0.970831,-0.193079,0.000000,0.000000,0.000000,-1,1.143124,1.971816,1.109884,-0.596486,0.233221,0.525934
"2019-03-26 11:14:25.800 +0000",1553598865.799981,0.636056,1.372767,-2.984664,0.116867,-0.980456,-0.158264,0.000000,0.000000,0.000000,-1,1.321716,2.189854,1.805209,-0.323075,0.517672,0.456101
"2019-03-26 11:14:25.822 +0000",1553598865.822281,0.547222,1.418134,-2.851140,0.079125,-0.988370,-0.129864,0.000000,0.000000,0.000000,-1,0.965670,1.553074,1.958333,-0.255333,0.476147,0.405544
"2019-03-26 11:14:25.845 +0000",1553598865.844587,0.446071,1.452599,-2.746597,0.050875,-0.993023,-0.106384,0.000000,0.000000,0.000000,-1,1.178892,-0.904128,0.829014,-0.264803,0.100292,0.374023
"2019-03-26 11:14:25.867 +0000",1553598865.866897,0.505640,1.484441,-2.852546,0.041776,-0.996274,-0.075456,0.000000,0.000000,0.000000,-1,1.683654,-2.419058,-0.020739,-0.369794,-0.341205,0.131516
"2019-03-26 11:14:25.889 +0000",1553598865.889204,0.863243,1.516266,3.031963,0.041420,-0.998514,-0.035426,0.000000,0.000000,0.000000,-1,1.867475,-1.113983,-0.071942,-0.300254,-0.532141,-0.045873
"2019-03-26 11:14:25.911 +0000",1553598865.911497,1.491419,1.528065,2.408904,0.042585,-0.999087,-0.003387,0.000000,0.000000,0.000000,-1,1.084909,0.974461,-0.079651,0.035266,0.099719,-0.012619
"2019-03-26 11:14:25.934 +0000",1553598865.933789,1.853899,1.521420,2.081876,0.047392,-0.998781,0.013787,0.000000,0.000000,0.000000,-1,0.597733,1.810984,-0.340355,0.052676,0.171038,0.049186
"2019-03-26 11:14:25.956 +0000",1553598865.956098,2.110296,1.505439,1.860347,0.056034,-0.997865,0.033551,0.000000,0.000000,0.000000,-1,0.982240,1.356967,-0.405631,0.074398,0.252534,0.117740
"2019-03-26 11:14:25.978 +0000",1553598865.978374,2.371985,1.481973,1.623008,0.061727,-0.996058,0.063708,0.000000,0.000000,0.000000,-1,1.455648,1.151128,-0.243571,0.097270,0.238932,0.019636
"2019-03-26 11:14:26.001 +0000",1553598866.000688,2.607765,1.449511,1.419386,0.061563,-0.992654,0.104155,0.000000,0.000000,0.000000,-1,1.889456,1.704294,-0.077101,0.039939,0.148416,0.076860
"2019-03-26 11:14:26.023 +0000",1553598866.022991,2.787892,1.408882,1.283877,0.055838,-0.986920,0.151229,0.000000,0.000000,0.000000,-1,2.005836,2.270776,0.068026,-0.048895,0.107831,0.056443
"2019-03-26 11:14:26.045 +0000",1553598866.045298,2.930827,1.373257,1.192053,0.041059,-0.980552,0.191914,0.000000,0.000000,0.000000,-1,1.520499,2.279225,0.397727,-0.107038,0.070823,-0.091649
"2019-03-26 11:14:26.068 +0000",1553598866.067606,3.050941,1.346536,1.107507,0.020132,-0.974959,0.221472,0.000000,0.000000,0.000000,-1,1.250112,1.222386,0.710925,-0.008123,-0.000413,-0.169897
"2019-03-26 11:14:26.090 +0000",1553598866.089884,3.138123,1.318648,1.027582,0.000866,-0.968379,0.249484,0.000000,0.000000,0.000000,-1,1.289858,0.056601,0.810609,0.103794,-0.004079,-0.258883
"2019-03-26 11:14:26.112 +0000",1553598866.112192,-3.080933,1.292800,0.961084,-0.016637,-0.961607,0.273925,0.000000,0.000000,0.000000,-1,1.015246,0.132789,0.819739,0.161015,0.048918,-0.347625
"2019-03-26 11:14:26.134 +0000",1553598866.134481,-3.014846,1.274433,0.904513,-0.036916,-0.956405,0.289701,0.000000,0.000000,0.000000,-1,0.580158,0.753592,0.756977,0.095495,0.033325,-0.333448
"2019-03-26 11:14:26.157 +0000",1553598866.156808,-2.953789,1.263596,0.859164,-0.056457,-0.953184,0.297074,0.000000,0.000000,0.000000,-1,0.342590,0.713682,0.641860,0.088668,-0.007738,-0.376374
"2019-03-26 11:14:26.179 +0000",1553598866.179085,-2.909298,1.248665,0.822612,-0.072882,-0.948563,0.308085,0.000000,0.000000,0.000000,-1,0.724733,0.289306,0.607334,0.062354,-0.031906,-0.307612
"2019-03-26 11:14:26.201 +0000",1553598866.201384,-2.885276,1.228586,0.808259,-0.085073,-0.942015,0.324607,0.000000,0.000000,0.000000,-1,0.753892,0.755579,0.296794,0.208853,-0.219148,-0.176872
"2019-03-26 11:14:26.224 +0000",1553598866.223700,-2.853412,1.217801,0.800590,-0.098253,-0.938341,0.331454,0.000000,0.000000,0.000000,-1,0.284711,1.095926,0.251534,0.239306,-0.335004,-0.223421
"2019-03-26 11:14:26.246 +0000",1553598866.245979,-2.824369,1.212083,0.787492,-0.109509,-0.936349,0.333554,0.000000,0.000000,0.000000,-1,0.102560,0.640731,0.261700,0.265149,-0.379019,-0.265286
"2019-03-26 11:14:26.268 +0000",1553598866.268286,-2.794410,1.214850,0.771895,-0.118569,-0.937317,0.327686,0.000000,0.000000,0.000000,-1,-0.365995,0.609152,0.099268,0.208001,-0.278854,-0.357120
"2019-03-26 11:14:26.291 +0000",1553598866.290594,-2.797815,1.225766,0.779001,-0.113997,-0.941065,0.318435,0.000000,0.000000,0.000000,-1,-0.439185,-0.050146,-0.512700,0.095412,-0.287847,-0.245193
"2019-03-26 11:14:26.313 +0000",1553598866.312902,-2.828702,1.247705,0.818247,-0.097730,-0.948259,0.302084,0.000000,0.000000,0.000000,-1,-0.981729,0.473970,-1.072107,0.281140,-0.338485,-0.188894
"2019-03-26 11:14:26.335 +0000",1553598866.335179,-2.890503,1.286215,0.889952,-0.069756,-0.959779,0.271952,0.000000,0.000000,0.000000,-1,-1.653863,0.122359,-1.580376,0.318780,-0.256117,-0.170923
"2019-03-26 11:14:26.357 +0000",1553598866.357499,-2.994989,1.339622,1.001039,-0.033470,-0.973398,0.226663,0.000000,0.000000,0.000000,-1,-2.300426,0.250623,-1.743062,0.296180,-0.271612,-0.176553
"2019-03-26 11:14:26.380 +0000",1553598866.379795,3.123218,1.394893,1.176454,0.003215,-0.984569,0.174968,0.000000,0.000000,0.000000,-1,-2.355660,0.255477,-1.754294,0.200322,-0.271321,-0.106151
"2019-03-26 11:14:26.402 +0000",1553598866.402103,2.805413,1.440784,1.500824,0.042768,-0.991560,0.122389,0.000000,0.000000,0.000000,-1,-2.374999,0.095157,-1.855844,0.063677,-0.297762,-0.118940
"2019-03-26 11:14:26.424 +0000",1553598866.424392,2.282765,1.463873,2.027955,0.080795,-0.994289,0.069723,0.000000,0.000000,0.000000,-1,-2.687525,0.016121,-1.582357,-0.070191,-0.369648,-0.138952
"2019-03-26 11:14:26.447 +0000",1553598866.446689,1.553082,1.463364,2.728480,0.107209,-0.994235,-0.001899,0.000000,0.000000,0.000000,-1,-1.911239,-0.168184,-0.973764,-0.240265,-0.328138,-0.081002
"2019-03-26 11:14:26.469 +0000",1553598866.468997,1.400155,1.445167,2.918656,0.123479,-0.992119,-0.021278,0.000000,0.000000,0.000000,-1,-1.300266,1.832257,-0.668719,-0.613668,-0.126442,0.614326
"2019-03-26 11:14:26.491 +0000",1553598866.491305,1.169059,1.414672,-3.093312,0.143111,-0.987837,-0.060800,0.000000,0.000000,0.000000,-1,-2.318284,1.561893,-0.805696,-0.729217,-0.581850,0.141839
"2019-03-26 11:14:26.514 +0000",1553598866.513582,0.940576,1.375342,-2.848703,0.156904,-0.980959,-0.114454,0.000000,0.000000,0.000000,-1,-2.659177,-0.070564,-0.460127,-0.457182,-0.281141,-0.169375
"2019-03-26 11:14:26.536 +0000",1553598866.535890,0.737641,1.328202,-2.660905,0.161560,-0.970718,-0.177778,0.000000,0.000000,0.000000,-1,-2.641837,-1.243572,-0.316969,-0.224441,-0.196991,0.021757
"2019-03-26 11:14:26.558 +0000",1553598866.558196,0.631464,1.288468,-2.585970,0.164461,-0.960409,-0.224870,0.000000,0.000000,0.000000,-1,-1.479167,-1.454592,-0.616049,-0.243212,-0.027140,0.353776
"2019-03-26 11:14:26.580 +0000",1553598866.580475,0.635997,1.253760,-2.613839,0.185174,-0.950164,-0.250798,0.000000,0.000000,0.000000,-1,-0.944558,-0.709006,-1.601225,-0.203302,0.129393,0.413991
"2019-03-26 11:14:26.603 +0000",1553598866.602783,0.675543,1.207664,-2.667750,0.222117,-0.934789,-0.277190,0.000000,0.000000,0.000000,-1,-1.249527,-0.415432,-1.998454,-0.146098,0.155538,0.398787
"2019-03-26 11:14:26.625 +0000",1553598866.625089,0.703101,1.155980,-2.714627,0.260588,-0.915191,-0.307441,0.000000,0.000000,0.000000,-1,-1.265461,-1.056769,-2.106898,-0.035170,0.190825,0.440040
"2019-03-26 11:14:26.647 +0000",1553598866.647386,0.705183,1.108252,-2.755346,0.289232,-0.894920,-0.339799,0.000000,0.000000,0.000000,-1,-0.986432,-1.769143,-1.848625,-0.179445,0.253334,0.370866
"2019-03-26 11:14:26.670 +0000",1553598866.669676,0.688877,1.077021,-2.788355,0.301278,-0.880550,-0.365873,0.000000,0.000000,0.000000,-1,-0.401589,-2.168219,-1.088102,-0.307580,0.356838,0.363615
"2019-03-26 11:14:26.692 +0000",1553598866.691984,0.654119,1.066867,-2.807162,0.293807,-0.875692,-0.383198,0.000000,0.000000,0.000000,-1,0.043841,-2.432296,-0.394586,-0.384841,0.433264,0.386906
"2019-03-26 11:14:26.714 +0000",1553598866.714290,0.611306,1.071168,-2.815286,0.274973,-0.877761,-0.392334,0.000000,0.000000,0.000000,-1,0.455499,-2.021380,0.208568,-0.336328,0.472381,0.437454
"2019-03-26 11:14:26.737 +0000",1553598866.736596,0.591162,1.092712,-2.826320,0.256414,-0.887878,-0.382001,0.000000,0.000000,0.000000,-1,1.219472,-0.846990,0.337411,-0.361776,0.660186,0.322400
"2019-03-26 11:14:26.759 +0000",1553598866.758877,0.601993,1.126727,-2.843215,0.243286,-0.903011,-0.354094,0.000000,0.000000,0.000000,-1,1.409132,0.144109,0.848481,-0.255616,0.621471,0.218032
"2019-03-26 11:14:26.781 +0000",1553598866.781185,0.589017,1.152653,-2.820659,0.225587,-0.913844,-0.337638,0.000000,0.000000,0.000000,-1,0.211122,0.196362,0.812769,-0.178971,0.665065,0.034995
"2019-03-26 11:14:26.803 +0000",1553598866.803493,0.580939,1.146736,-2.818549,0.225816,-0.911426,-0.343963,0.000000,0.000000,0.000000,-1,-0.341205,-0.402753,-0.726623,0.079879,-0.176267,-0.503876
"2019-03-26 11:14:26.826 +0000",1553598866.825774,0.610753,1.122743,-2.863449,0.248440,-0.901292,-0.354894,0.000000,0.000000,0.000000,-1,-0.510978,-0.716641,-1.396283,0.385746,-0.913130,-0.651545
"2019-03-26 11:14:26.848 +0000",1553598866.848080,0.602496,1.099627,-2.886016,0.257241,-0.891038,-0.374002,0.000000,0.000000,0.000000,-1,-0.525904,-1.542740,-0.611137,0.460624,-0.902144,-0.454702
"2019-03-26 11:14:26.870 +0000",1553598866.870392,0.558740,1.092850,-2.885097,0.243831,-0.887942,-0.390008,0.000000,0.000000,0.000000,-1,-0.079568,-1.985403,0.026900,0.129521,-0.168577,-0.232795
"2019-03-26 11:14:26.893 +0000",1553598866.892696,0.536479,1.097272,-2.888257,0.233081,-0.889966,-0.391961,0.000000,0.000000,0.000000,-1,0.291377,-0.564473,0.011965,0.143873,-0.143252,-0.520942
"2019-03-26 11:14:26.915 +0000",1553598866.914972,0.552566,1.100969,-2.903052,0.237627,-0.891646,-0.385357,0.000000,0.000000,0.000000,-1,0.345764,0.595302,-0.380394,-0.130739,-0.198380,-0.325443
"2019-03-26 11:14:26.937 +0000",1553598866.937280,0.615643,1.098643,-2.940689,0.262643,-0.890591,-0.371304,0.000000,0.000000,0.000000,-1,0.184833,1.373062,-0.603221,-0.207543,-0.305546,-0.296359
"2019-03-26 11:14:26.960 +0000",1553598866.959588,0.629530,1.104528,-2.934029,0.264683,-0.893252,-0.363378,0.000000,0.000000,0.000000,-1,0.209326,0.873183,0.873749,0.020107,-0.316129,-0.009929
"2019-03-26 11:14:26.982 +0000",1553598866.981894,0.619788,1.136203,-2.889553,0.244567,-0.907041,-0.342728,0.000000,0.000000,0.000000,-1,0.917641,1.648670,1.878209,-0.294387,-0.267794,0.153550
"2019-03-26 11:14:27.004 +0000",1553598867.004172,0.614360,1.188267,-2.827681,0.215165,-0.927724,-0.305013,0.000000,0.000000,0.000000,-1,1.511305,2.589636,2.423392,-0.706498,0.102376,0.350744
"2019-03-26 11:14:27.026 +0000",1553598867.026495,0.602923,1.254181,-2.762205,0.176553,-0.950295,-0.256455,0.000000,0.000000,0.000000,-1,1.932857,2.004727,2.544135,-0.667443,0.293312,0.399018
"2019-03-26 11:14:27.049 +0000",1553598867.048787,0.554723,1.321284,-2.664267,0.130061,-0.969033,-0.209903,0.000000,0.000000,0.000000,-1,1.765550,2.117262,2.715500,-0.457652,0.109933,0.437289
"2019-03-26 11:14:27.071 +0000",1553598867.071096,0.449929,1.376680,-2.526458,0.083892,-0.981219,-0.173702,0.000000,0.000000,0.000000,-1,1.345263,0.559537,2.034444,-0.311141,0.046099,0.383052
"2019-03-26 11:14:27.093 +0000",1553598867.093377,0.354057,1.408376,-2.447050,0.056065,-0.986839,-0.151677,0.000000,0.000000,0.000000,-1,0.900220,-1.423118,0.583053,-0.216435,-0.196877,0.222462
"2019-03-26 11:14:27.116 +0000",1553598867.115685,0.337338,1.428523,-2.464693,0.046930,-0.989896,-0.133802,0.000000,0.000000,0.000000,-1,0.933443,-1.341306,0.103492,-0.224741,-0.425128,0.189512
"2019-03-26 11:14:27.138 +0000",1553598867.137990,0.352000,1.450656,-2.493570,0.041322,-0.992792,-0.112503,0.000000,0.000000,0.000000,-1,1.038886,-0.224973,0.242493,-0.112672,-0.485159,0.152344
"2019-03-26 11:14:27.160 +0000",1553598867.160298,0.370766,1.478241,-2.514375,0.033488,-0.995720,-0.086143,0.000000,0.000000,0.000000,-1,1.282804,-0.173921,0.374882,0.119802,-0.156639,0.087257
"2019-03-26 11:14:27.183 +0000",1553598867.182575,0.441734,1.507010,-2.594462,0.027251,-0.997966,-0.057625,0.000000,0.000000,0.000000,-1,1.287921,-0.433177,0.135280,0.288789,0.237300,0.039757
"2019-03-26 11:14:27.205 +0000",1553598867.204884,0.812472,1.530663,-2.974655,0.029129,-0.999195,-0.027593,0.000000,0.000000,0.000000,-1,1.368196,-0.313857,-0.193248,0.281921,0.381107,-0.035532
"2019-03-26 11:14:27.227 +0000",1553598867.227196,1.668799,1.536534,2.453816,0.034093,-0.999413,0.003352,0.000000,0.000000,0.000000,-1,1.461489,0.253272,-0.187249,0.112712,0.385033,0.038060
"2019-03-26 11:14:27.249 +0000",1553598867.249479,2.506339,1.515735,1.622881,0.032656,-0.998485,0.044297,0.000000,0.000000,0.000000,-1,2.071638,0.416272,0.224665,-0.003267,0.331004,0.103026
"2019-03-26 11:14:27.272 +0000",1553598867.271777,2.930907,1.473145,1.198067,0.020389,-0.995236,0.095340,0.000000,0.000000,0.000000,-1,2.319059,-0.352945,0.738981,-0.089847,0.313153,-0.040561
"2019-03-26 11:14:27.294 +0000",1553598867.294083,-3.140325,1.428734,0.971981,-0.000180,-0.989926,0.141585,0.000000,0.000000,0.000000,-1,1.920371,-0.536145,1.125004,-0.093265,0.277142,-0.105162
"2019-03-26 11:14:27.316 +0000",1553598867.316392,-3.007526,1.388539,0.822445,-0.024227,-0.983437,0.179624,0.000000,0.000000,0.000000,-1,1.662074,-0.780803,1.190332,-0.014866,0.137581,-0.165052
"2019-03-26 11:14:27.339 +0000",1553598867.338670,-2.935339,1.347446,0.729396,-0.045362,-0.975161,0.216803,0.000000,0.000000,0.000000,-1,1.686978,-0.758837,1.141767,-0.023700,-0.063169,-0.148566
"2019-03-26 11:14:27.361 +0000",1553598867.360978,-2.867318,1.308874,0.651683,-0.070133,-0.965894,0.249259,0.000000,0.000000,0.000000,-1,1.241346,-0.026692,1.243004,-0.062618,0.001218,-0.258659
"2019-03-26 11:14:27.383 +0000",1553598867.383286,-2.790631,1.283747,0.584757,-0.097338,-0.959083,0.265865,0.000000,0.000000,0.000000,-1,0.663976,0.775484,1.017301,-0.097196,0.027687,-0.410824
"2019-03-26 11:14:27.406 +0000",1553598867.405592,-2.725513,1.259181,0.534387,-0.123919,-0.951840,0.280438,0.000000,0.000000,0.000000,-1,0.901040,0.684604,1.030614,-0.046369,0.057583,-0.064022
"2019-03-26 11:14:27.428 +0000",1553598867.427871,-2.686041,1.234192,0.508674,-0.145311,-0.943882,0.296601,0.000000,0.000000,0.000000,-1,0.674971,0.820738,0.629855,0.116808,0.046360,0.052962
"2019-03-26 11:14:27.450 +0000",1553598867.450179,-2.656597,1.223226,0.491621,-0.158796,-0.940203,0.301334,0.000000,0.000000,0.000000,-1,0.230798,0.272172,0.381464,0.168226,-0.267561,0.006512
"2019-03-26 11:14:27.472 +0000",1553598867.472485,-2.646872,1.213418,0.487234,-0.166090,-0.936817,0.307877,0.000000,0.000000,0.000000,-1,0.408211,0.455983,0.177700,0.356260,-0.562878,-0.327255
"2019-03-26 11:14:27.495 +0000",1553598867.494795,-2.629685,1.210212,0.490456,-0.172826,-0.935691,0.307593,0.000000,0.000000,0.000000,-1,-0.092813,1.003553,-0.046951,0.536306,-0.413583,-0.051108
"2019-03-26 11:14:27.517 +0000",1553598867.517072,-2.615432,1.222277,0.487075,-0.171510,-0.939880,0.295314,0.000000,0.000000,0.000000,-1,-0.633128,0.038655,-0.424425,0.382463,-0.332108,-0.093715
"2019-03-26 11:14:27.539 +0000",1553598867.539374,-2.640023,1.246982,0.510734,-0.152984,-0.948029,0.278994,0.000000,0.000000,0.000000,-1,-0.982046,0.113383,-1.103814,0.407165,-0.453583,-0.183199
"2019-03-26 11:14:27.562 +0000",1553598867.561680,-2.673605,1.296259,0.550402,-0.122291,-0.962551,0.241952,0.000000,0.000000,0.000000,-1,-2.279005,0.217447,-1.728045,0.438560,-0.212544,-0.163705
"2019-03-26 11:14:27.584 +0000",1553598867.583965,-2.717897,1.368705,0.624874,-0.082522,-0.979649,0.182970,0.000000,0.000000,0.000000,-1,-2.391359,1.588682,-2.134757,0.442339,-0.152370,-0.167620
"2019-03-26 11:14:27.606 +0000",1553598867.606273,-2.831806,1.429549,0.753601,-0.042917,-0.990041,0.134077,0.000000,0.000000,0.000000,-1,-2.393371,-0.380237,-1.989505,0.097375,-0.255412,0.227679
"2019-03-26 11:14:27.629 +0000",1553598867.628581,3.030748,1.493011,1.178800,0.008596,-0.996976,0.077230,0.000000,0.000000,0.000000,-1,-2.326656,0.845725,-2.445713,0.273722,-0.161318,-0.425222
"2019-03-26 11:14:27.651 +0000",1553598867.650872,2.154071,1.501329,2.054732,0.057935,-0.997588,0.038229,0.000000,0.000000,0.000000,-1,-1.580012,-1.189484,-2.027873,-0.388898,-0.426591,0.125681
"2019-03-26 11:14:27.673 +0000",1553598867.673168,1.489935,1.481446,2.686526,0.088940,-0.996011,-0.007208,0.000000,0.000000,0.000000,-1,-2.249153,-1.285138,-0.921989,-0.243970,-0.458579,0.184560
"2019-03-26 11:14:27.695 +0000",1553598867.695484,0.992366,1.452377,-3.105324,0.098924,-0.992997,-0.064590,0.000000,0.000000,0.000000,-1,-2.683792,-0.180855,-0.340239,-0.387605,-0.742248,0.604232
"2019-03-26 11:14:27.718 +0000",1553598867.717782,0.702095,1.401142,-2.818967,0.109041,-0.985643,-0.128909,0.000000,0.000000,0.000000,-1,-2.994966,-0.383880,-0.637541,-0.577913,-0.902357,0.179233
"2019-03-26 11:14:27.740 +0000",1553598867.740091,0.577972,1.333602,-2.693526,0.128374,-0.972001,-0.196810,0.000000,0.000000,0.000000,-1,-3.128853,0.409351,-0.998194,-0.666918,-0.465468,-0.087767
"2019-03-26 11:14:27.762 +0000",1553598867.762367,0.587114,1.277836,-2.651504,0.159977,-0.957393,-0.240428,0.000000,0.000000,0.000000,-1,-1.744192,2.810658,-0.820430,-0.790760,-0.119633,0.147945
"2019-03-26 11:14:27.785 +0000",1553598867.784675,0.611967,1.249676,-2.644005,0.181322,-0.948882,-0.258349,0.000000,0.000000,0.000000,-1,-0.842920,0.479607,-0.576054,-0.559603,0.280364,0.695239
"2019-03-26 11:14:27.807 +0000",1553598867.806983,0.623170,1.226605,-2.667205,0.196932,-0.941348,-0.274009,0.000000,0.000000,0.000000,-1,-0.582671,-0.694856,-1.154774,-0.194597,0.325183,0.191596
"2019-03-26 11:14:27.829 +0000",1553598867.829292,0.670467,1.192419,-2.727631,0.229536,-0.929265,-0.289447,0.000000,0.000000,0.000000,-1,-0.737425,-0.381797,-1.937920,-0.145200,0.363149,0.366168
"2019-03-26 11:14:27.852 +0000",1553598867.851568,0.701850,1.148796,-2.783246,0.264442,-0.912271,-0.312780,0.000000,0.000000,0.000000,-1,-0.960036,-1.245460,-1.937792,-0.014747,0.257746,0.348776
"2019-03-26 11:14:27.874 +0000",1553598867.873876,0.689728,1.108979,-2.817401,0.283532,-0.895244,-0.343726,0.000000,0.000000,0.000000,-1,-0.871170,-2.297976,-1.500424,0.100165,0.239162,0.376257
"2019-03-26 11:14:27.896 +0000",1553598867.896185,0.664792,1.080804,-2.850325,0.290323,-0.882336,-0.370399,0.000000,0.000000,0.000000,-1,-0.344444,-2.436807,-1.193793,-0.061533,0.327649,0.428504
"2019-03-26 11:14:27.918 +0000",1553598867.918474,0.639686,1.070065,-2.883562,0.286573,-0.877232,-0.385150,0.000000,0.000000,0.000000,-1,0.301341,-2.415910,-0.631737,-0.299619,0.579456,0.554965
"2019-03-26 11:14:27.941 +0000",1553598867.940770,0.614479,1.082275,-2.910214,0.270579,-0.883028,-0.383470,0.000000,0.000000,0.000000,-1,1.080262,-2.008815,0.215994,-0.338221,0.675646,0.552476
"2019-03-26 11:14:27.963 +0000",1553598867.963077,0.596446,1.121034,-2.931317,0.244202,-0.900551,-0.359686,0.000000,0.000000,0.000000,-1,2.037618,-1.368953,0.795019,-0.360627,0.757881,0.443533
"2019-03-26 11:14:27.985 +0000",1553598867.985386,0.598437,1.172957,-2.951968,0.218258,-0.921900,-0.320099,0.000000,0.000000,0.000000,-1,1.912839,-0.335766,1.089727,-0.278805,0.688181,0.336899
"2019-03-26 11:14:28.008 +0000",1553598868.007664,0.596385,1.193345,-2.935903,0.206999,-0.929607,-0.304930,0.000000,0.000000,0.000000,-1,-0.125609,0.917272,0.230441,-0.229079,0.395778,0.086927
"2019-03-26 11:14:28.030 +0000",1553598868.029971,0.650507,1.173433,-2.983948,0.234356,-0.922085,-0.307956,0.000000,0.000000,0.000000,-1,-0.209820,0.200651,-1.844861,-0.400967,-0.150822,-0.388028
"2019-03-26 11:14:28.052 +0000",1553598868.052279,0.725608,1.142987,-3.054522,0.275310,-0.909877,-0.310369,0.000000,0.000000,0.000000,-1,-0.266655,0.443630,-1.673367,-0.194118,-1.164998,-1.193934
"2019-03-26 11:14:28.075 +0000",1553598868.074586,0.749018,1.122862,-3.089080,0.294910,-0.901344,-0.317188,0.000000,0.000000,0.000000,-1,-0.205932,-0.920527,-0.702294,0.569196,-0.843545,-0.256757
"2019-03-26 11:14:28.097 +0000",1553598868.096863,0.706969,1.120525,-3.088375,0.282683,-0.900329,-0.330905,0.000000,0.000000,0.000000,-1,0.097308,-1.953479,0.318046,0.490068,-0.099030,-0.420225
"2019-03-26 11:14:28.119 +0000",1553598868.119172,0.677503,1.136274,-3.073716,0.263889,-0.907071,-0.328000,0.000000,0.000000,0.000000,-1,0.492773,0.049555,0.681281,0.409023,-0.004535,-0.498629
"2019-03-26 11:14:28.141 +0000",1553598868.141472,0.716194,1.149752,-3.086777,0.268328,-0.912663,-0.308297,0.000000,0.000000,0.000000,-1,0.619045,1.851493,-0.031844,-0.134508,-0.422283,0.152138
"2019-03-26 11:14:28.164 +0000",1553598868.163788,0.753130,1.157912,-3.079593,0.274427,-0.915967,-0.292735,0.000000,0.000000,0.000000,-1,-0.270236,1.667908,0.626892,-0.150480,-0.197070,0.113123
"2019-03-26 11:14:28.186 +0000",1553598868.186066,0.724151,1.156488,-3.022376,0.266694,-0.915395,-0.301540,0.000000,0.000000,0.000000,-1,-0.710726,0.692639,0.738325,-0.425981,-0.522822,0.187557
"2019-03-26 11:14:28.208 +0000",1553598868.208373,0.698593,1.167411,-2.982174,0.252455,-0.919737,-0.300583,0.000000,0.000000,0.000000,-1,0.292681,0.722459,1.023815,-0.868239,-0.679292,-0.371476
"2019-03-26 11:14:28.231 +0000",1553598868.230680,0.688668,1.203592,-2.938752,0.228153,-0.933335,-0.277187,0.000000,0.000000,0.000000,-1,1.042382,1.658932,1.988272,-0.574329,0.209610,0.325802
"2019-03-26 11:14:28.253 +0000",1553598868.252959,0.648229,1.266965,-2.857399,0.180636,-0.954197,-0.238491,0.000000,0.000000,0.000000,-1,1.674029,1.467968,3.117889,-0.283816,0.438908,0.571056
"2019-03-26 11:14:28.275 +0000",1553598868.275279,0.503136,1.338486,-2.683795,0.111009,-0.973137,-0.201695,0.000000,0.000000,0.000000,-1,1.417761,0.695421,3.462064,-0.223421,0.034722,0.392369
"2019-03-26 11:14:28.298 +0000",1553598868.297568,0.296865,1.384471,-2.482863,0.054190,-0.982692,-0.177146,0.000000,0.000000,0.000000,-1,0.994448,-1.254836,1.797021,-0.187735,-0.095525,0.423804
"2019-03-26 11:14:28.320 +0000",1553598868.319882,0.170543,1.409897,-2.400317,0.027190,-0.987084,-0.157882,0.000000,0.000000,0.000000,-1,1.001189,-2.114731,0.518216,-0.331236,-0.376427,0.213104
"2019-03-26 11:14:28.342 +0000",1553598868.342160,0.111713,1.433838,-2.377287,0.015220,-0.990636,-0.135679,0.000000,0.000000,0.000000,-1,1.048286,-1.307561,0.243114,0.037102,-0.561320,0.121504
"2019-03-26 11:14:28.364 +0000",1553598868.364467,0.079686,1.459474,-2.371160,0.008843,-0.993810,-0.110740,0.000000,0.000000,0.000000,-1,1.239509,-1.197493,0.054898,0.156974,0.108526,0.018729
"2019-03-26 11:14:28.387 +0000",1553598868.386776,0.109405,1.492182,-2.431483,0.008575,-0.996911,-0.078064,0.000000,0.000000,0.000000,-1,1.637219,-1.392674,-0.199991,0.109757,0.226327,-0.024430
"2019-03-26 11:14:28.409 +0000",1553598868.409084,0.330369,1.531014,-2.678853,0.012902,-0.999209,-0.037622,0.000000,0.000000,0.000000,-1,1.913101,-0.868921,-0.306247,0.025199,0.402865,-0.063940
"2019-03-26 11:14:28.431 +0000",1553598868.431362,1.872022,1.549338,2.066486,0.020488,-0.999770,0.006365,0.000000,0.000000,0.000000,-1,1.988259,0.872971,-0.316715,-0.027797,0.466643,0.014722
"2019-03-26 11:14:28.454 +0000",1553598868.453662,2.770687,1.510435,1.206054,0.021865,-0.998179,0.056223,0.000000,0.000000,0.000000,-1,2.371850,2.179631,0.020443,-0.091629,0.423472,0.209585
"2019-03-26 11:14:28.476 +0000",1553598868.475971,3.038143,1.455432,0.993186,0.011887,-0.993353,0.114493,0.000000,0.000000,0.000000,-1,2.623064,2.545141,0.351011,-0.021179,0.232229,0.118097
"2019-03-26 11:14:28.498 +0000",1553598868.498283,-3.092390,1.403288,0.890791,-0.008200,-0.986003,0.166524,0.000000,0.000000,0.000000,-1,2.122566,2.005187,0.746360,0.009421,0.146678,-0.011587
"2019-03-26 11:14:28.521 +0000",1553598868.520558,-2.971440,1.362854,0.784544,-0.034958,-0.978458,0.203466,0.000000,0.000000,0.000000,-1,1.370663,-0.177801,1.286443,0.044694,0.085635,-0.181539
"2019-03-26 11:14:28.543 +0000",1553598868.542869,-2.874688,1.337403,0.660853,-0.061000,-0.972887,0.223091,0.000000,0.000000,0.000000,-1,0.663170,-1.229240,1.453022,0.145869,0.065081,-0.460259
"2019-03-26 11:14:28.565 +0000",1553598868.565178,-2.783330,1.315694,0.554889,-0.088484,-0.967638,0.236322,0.000000,0.000000,0.000000,-1,0.534299,-0.056179,1.335867,0.125685,0.079988,-0.815119
"2019-03-26 11:14:28.587 +0000",1553598868.587459,-2.709276,1.291563,0.482480,-0.115478,-0.961267,0.250261,0.000000,0.000000,0.000000,-1,0.827098,0.191595,1.117939,-0.058350,0.111276,0.060392
"2019-03-26 11:14:28.610 +0000",1553598868.609764,-2.686392,1.260110,0.461645,-0.134404,-0.952124,0.274583,0.000000,0.000000,0.000000,-1,1.274217,0.175198,0.645630,0.115987,0.067267,0.184188
"2019-03-26 11:14:28.632 +0000",1553598868.632071,-2.673212,1.239309,0.464693,-0.146922,-0.945559,0.290399,0.000000,0.000000,0.000000,-1,0.478064,1.060378,0.276434,0.195719,-0.110822,-0.029291
"2019-03-26 11:14:28.654 +0000",1553598868.654379,-2.657195,1.229342,0.456596,-0.155935,-0.942268,0.296335,0.000000,0.000000,0.000000,-1,0.306876,-0.114295,0.327726,0.211203,-0.511772,-0.166177
"2019-03-26 11:14:28.677 +0000",1553598868.676657,-2.648168,1.222187,0.452246,-0.161793,-0.939849,0.300845,0.000000,0.000000,0.000000,-1,0.194713,0.600644,0.078186,0.354740,-0.430757,-0.364245
"2019-03-26 11:14:28.699 +0000",1553598868.698964,-2.634427,1.227876,0.456448,-0.163312,-0.941777,0.293915,0.000000,0.000000,0.000000,-1,-0.462932,0.597602,-0.319042,0.209027,-0.301906,-0.168320
"2019-03-26 11:14:28.721 +0000",1553598868.721272,-2.655242,1.245458,0.473893,-0.149396,-0.947543,0.282567,0.000000,0.000000,0.000000,-1,-0.606020,-0.441270,-0.782528,0.158536,-0.317136,-0.228062
"2019-03-26 11:14:28.744 +0000",1553598868.743571,-2.694465,1.278072,0.515113,-0.124768,-0.957461,0.260194,0.000000,0.000000,0.000000,-1,-1.443511,0.233766,-1.410390,0.286984,-0.513547,-0.167832
"2019-03-26 11:14:28.766 +0000",1553598868.765857,-2.752625,1.336847,0.579158,-0.087914,-0.972758,0.214504,0.000000,0.000000,0.000000,-1,-2.396504,0.035814,-1.916422,0.302773,-0.301183,-0.172711
"2019-03-26 11:14:28.788 +0000",1553598868.788159,-2.888387,1.406229,0.710840,-0.041040,-0.986489,0.158602,0.000000,0.000000,0.000000,-1,-2.646204,-0.452385,-2.162785,0.290048,-0.208060,-0.083879
"2019-03-26 11:14:28.810 +0000",1553598868.810474,3.065225,1.470585,1.038322,0.007633,-0.994983,0.099752,0.000000,0.000000,0.000000,-1,-2.556777,0.012698,-2.150748,0.125134,-0.197842,0.024973
"2019-03-26 11:14:28.833 +0000",1553598868.832782,2.321660,1.498492,1.785248,0.052816,-0.997387,0.049288,0.000000,0.000000,0.000000,-1,-2.161741,0.000451,-1.861424,0.007533,-0.392627,-0.089816
"2019-03-26 11:14:28.855 +0000",1553598868.855058,1.568840,1.490440,2.539288,0.080270,-0.996773,-0.000157,0.000000,0.000000,0.000000,-1,-2.316749,-0.036116,-0.801744,-0.197289,-0.427589,-0.035976
"2019-03-26 11:14:28.877 +0000",1553598868.877366,0.994708,1.470932,3.114600,0.083607,-0.995018,-0.054311,0.000000,0.000000,0.000000,-1,-2.464728,-0.154290,0.149496,-0.271687,-0.485070,0.299230
"2019-03-26 11:14:28.900 +0000",1553598868.899657,0.606282,1.429448,-2.790066,0.080275,-0.990027,-0.115770,0.000000,0.000000,0.000000,-1,-2.891206,-0.737143,-0.060126,-0.545073,-0.737207,0.264421
"2019-03-26 11:14:28.922 +0000",1553598868.921951,0.438336,1.369413,-2.631114,0.084897,-0.979791,-0.181115,0.000000,0.000000,0.000000,-1,-2.895944,-0.300418,-0.372900,-0.648191,-0.638144,0.073235
"2019-03-26 11:14:28.944 +0000",1553598868.944259,0.357510,1.307943,-2.548818,0.090928,-0.965653,-0.243407,0.000000,0.000000,0.000000,-1,-2.867348,-0.005642,-0.177018,-0.748078,-0.255981,-0.034898
"2019-03-26 11:14:28.967 +0000",1553598868.966550,0.298398,1.248968,-2.498006,0.092989,-0.948659,-0.302323,0.000000,0.000000,0.000000,-1,-2.518703,-0.711164,-0.381498,-0.446383,0.021581,0.396989
"2019-03-26 11:14:28.989 +0000",1553598868.988875,0.292824,1.203087,-2.509590,0.103766,-0.933153,-0.344177,0.000000,0.000000,0.000000,-1,-1.524254,-0.660491,-1.066300,-0.322562,0.116243,0.492065
"2019-03-26 11:14:29.011 +0000",1553598869.011153,0.355784,1.166025,-2.579611,0.137173,-0.919193,-0.369146,0.000000,0.000000,0.000000,-1,-1.134517,0.396659,-1.948858,-0.219479,0.314639,0.575918
"2019-03-26 11:14:29.033 +0000",1553598869.033452,0.439192,1.125047,-2.658078,0.183322,-0.902288,-0.390218,0.000000,0.000000,0.000000,-1,-1.121006,0.280833,-1.999926,0.031263,0.232900,0.646291
"2019-03-26 11:14:29.056 +0000",1553598869.055770,0.474747,1.086342,-2.713228,0.212889,-0.884929,-0.414220,0.000000,0.000000,0.000000,-1,-0.991170,-1.033920,-1.622241,0.124696,0.277111,0.558263
"2019-03-26 11:14:29.078 +0000",1553598869.078078,0.481186,1.059258,-2.755873,0.226564,-0.871992,-0.433933,0.000000,0.000000,0.000000,-1,-0.421673,-1.573385,-1.217754,0.079054,0.400648,0.427997
"2019-03-26 11:14:29.100 +0000",1553598869.100362,0.474174,1.049281,-2.791492,0.227477,-0.867065,-0.443229,0.000000,0.000000,0.000000,-1,0.189913,-1.721239,-0.708798,-0.330749,0.593094,0.527107
"2019-03-26 11:14:29.123 +0000",1553598869.122658,0.465174,1.057462,-2.819681,0.220290,-0.871112,-0.438904,0.000000,0.000000,0.000000,-1,0.899631,-1.308187,-0.222147,-0.413070,0.683993,0.538589
"2019-03-26 11:14:29.145 +0000",1553598869.144971,0.474440,1.086620,-2.856108,0.212650,-0.885058,-0.414067,0.000000,0.000000,0.000000,-1,1.885234,-0.898734,-0.060368,-0.413486,0.728274,0.465245
"2019-03-26 11:14:29.167 +0000",1553598869.167279,0.498973,1.131627,-2.899844,0.203462,-0.905105,-0.373346,0.000000,0.000000,0.000000,-1,2.219525,-0.473904,0.331737,-0.324754,0.777099,0.338251
"2019-03-26 11:14:29.190 +0000",1553598869.189554,0.505913,1.159083,-2.908452,0.193930,-0.916436,-0.350051,0.000000,0.000000,0.000000,-1,0.125333,0.123215,0.370199,-0.114493,0.503274,0.097914
"2019-03-26 11:14:29.212 +0000",1553598869.211862,0.511510,1.142655,-2.923849,0.203229,-0.909739,-0.362041,0.000000,0.000000,0.000000,-1,-0.438665,-0.659441,-1.232077,-0.151425,0.247919,-0.040456
"2019-03-26 11:14:29.234 +0000",1553598869.234171,0.541059,1.122318,-2.969266,0.223320,-0.901108,-0.371661,0.000000,0.000000,0.000000,-1,-0.436252,-0.534121,-0.950225,-0.030190,-0.802642,-1.217084
"2019-03-26 11:14:29.256 +0000",1553598869.256452,0.522602,1.105958,-2.976783,0.223752,-0.893894,-0.388444,0.000000,0.000000,0.000000,-1,-0.540740,-1.411138,-0.280036,0.394900,-1.380413,-0.530822
"2019-03-26 11:14:29.279 +0000",1553598869.278757,0.469644,1.098279,-2.963234,0.205977,-0.890425,-0.405852,0.000000,0.000000,0.000000,-1,-0.311898,-2.065808,0.272952,0.507112,-0.469117,-0.403810
"2019-03-26 11:14:29.301 +0000",1553598869.301069,0.423463,1.102654,-2.941627,0.185419,-0.892408,-0.411373,0.000000,0.000000,0.000000,-1,0.058008,-0.445561,0.584990,0.221533,-0.042696,-0.459797
"2019-03-26 11:14:29.323 +0000",1553598869.323373,0.433959,1.107726,-2.944266,0.187821,-0.894685,-0.405292,0.000000,0.000000,0.000000,-1,0.438665,0.950604,-0.428357,-0.162125,-0.206099,-0.225476
"2019-03-26 11:14:29.346 +0000",1553598869.345649,0.499394,1.108150,-2.966293,0.213739,-0.894874,-0.391811,0.000000,0.000000,0.000000,-1,-0.113251,2.255862,-0.033282,-0.139367,-0.430992,-0.478490
"2019-03-26 11:14:29.368 +0000",1553598869.367958,0.500534,1.113211,-2.923789,0.212009,-0.897122,-0.387588,0.000000,0.000000,0.000000,-1,-0.044364,1.422123,1.312692,0.159191,-0.566166,0.351242
"2019-03-26 11:14:29.390 +0000",1553598869.390265,0.477261,1.141771,-2.867758,0.191082,-0.909372,-0.369501,0.000000,0.000000,0.000000,-1,0.990171,1.323887,1.563356,-0.420879,-0.529120,0.590402
"2019-03-26 11:14:29.413 +0000",1553598869.412550,0.480114,1.184441,-2.823470,0.174044,-0.926288,-0.334213,0.000000,0.000000,0.000000,-1,1.486809,2.314837,1.683788,-0.928621,0.475727,0.201721
"2019-03-26 11:14:29.435 +0000",1553598869.434849,0.469032,1.239911,-2.749995,0.146853,-0.945755,-0.289795,0.000000,0.000000,0.000000,-1,1.800370,2.697152,2.536502,-0.806720,0.595001,0.345627
"2019-03-26 11:14:29.457 +0000",1553598869.457158,0.369625,1.308999,-2.582080,0.093502,-0.965926,-0.241337,0.000000,0.000000,0.000000,-1,1.927814,2.684273,3.646955,-0.403423,0.535018,0.652012
"2019-03-26 11:14:29.479 +0000",1553598869.479453,0.119896,1.369854,-2.276137,0.023873,-0.979879,-0.198160,0.000000,0.000000,0.000000,-1,1.817245,1.695688,3.459678,-0.196252,-0.038218,0.528971
"2019-03-26 11:14:29.502 +0000",1553598869.501744,-0.140074,1.411377,-2.006773,-0.022164,-0.987320,-0.157191,0.000000,0.000000,0.000000,-1,1.910459,-0.708149,1.191017,-0.266746,-0.374924,0.490870
"2019-03-26 11:14:29.524 +0000",1553598869.524062,-0.213014,1.453211,-1.960214,-0.024801,-0.993095,-0.114663,0.000000,0.000000,0.000000,-1,1.806430,-0.989389,-0.587948,-0.337702,-0.874749,0.150414
"2019-03-26 11:14:29.546 +0000",1553598869.546360,-0.065883,1.488140,-2.107413,-0.005435,-0.996586,-0.082383,0.000000,0.000000,0.000000,-1,1.271856,0.506302,-0.894221,-0.188687,-0.709881,-0.008117
"2019-03-26 11:14:29.569 +0000",1553598869.568667,0.147337,1.513640,-2.312373,0.008386,-0.998367,-0.056507,0.000000,0.000000,0.000000,-1,1.143321,0.118357,-0.358640,0.234854,0.055526,0.028080
"2019-03-26 11:14:29.591 +0000",1553598869.590945,0.181441,1.540765,-2.360231,0.005418,-0.999549,-0.029534,0.000000,0.000000,0.000000,-1,1.257072,-1.048712,0.356395,0.430419,0.181464,-0.000129
"2019-03-26 11:14:29.613 +0000",1553598869.613253,1.738620,1.569738,2.335095,0.001012,-0.999999,0.000171,0.000000,0.000000,0.000000,-1,1.388104,-1.255786,-0.082103,0.542674,0.341781,-0.080585
"2019-03-26 11:14:29.636 +0000",1553598869.635567,2.923913,1.535667,1.153900,0.007585,-0.999383,0.034294,0.000000,0.000000,0.000000,-1,1.637045,1.155639,-0.345307,0.130293,0.546609,0.059289
"2019-03-26 11:14:29.658 +0000",1553598869.657869,3.051427,1.488931,1.075480,0.007363,-0.996651,0.081442,0.000000,0.000000,0.000000,-1,2.396208,2.525649,0.109301,0.021140,0.447533,0.189325
"2019-03-26 11:14:29.680 +0000",1553598869.680146,-3.078135,1.428476,0.963713,-0.008995,-0.989890,0.141554,0.000000,0.000000,0.000000,-1,2.845773,1.244060,0.757267,0.009910,0.289313,0.198900
"2019-03-26 11:14:29.702 +0000",1553598869.702464,-2.987797,1.368478,0.861972,-0.030782,-0.979603,0.198569,0.000000,0.000000,0.000000,-1,2.131237,-1.350997,1.302264,-0.017069,0.198338,-0.054145
"2019-03-26 11:14:29.725 +0000",1553598869.724767,-2.866345,1.339655,0.717471,-0.062263,-0.973406,0.220465,0.000000,0.000000,0.000000,-1,0.626097,-0.451755,1.784891,-0.148400,0.160509,-0.333502
"2019-03-26 11:14:29.747 +0000",1553598869.747069,-2.746116,1.313460,0.589838,-0.098048,-0.967071,0.234861,0.000000,0.000000,0.000000,-1,0.657081,-0.008298,1.618457,-0.286245,-0.091568,-0.632307
"2019-03-26 11:14:29.769 +0000",1553598869.769348,-2.652605,1.283618,0.491662,-0.133050,-0.959047,0.250053,0.000000,0.000000,0.000000,-1,0.767448,-0.086945,1.627886,-0.230872,-0.052611,-0.523200
"2019-03-26 11:14:29.792 +0000",1553598869.791655,-2.609013,1.250672,0.452848,-0.159783,-0.949196,0.271101,0.000000,0.000000,0.000000,-1,1.168447,0.700954,0.783699,0.251763,0.150109,0.190233
"2019-03-26 11:14:29.814 +0000",1553598869.813961,-2.597837,1.229116,0.462236,-0.173350,-0.942193,0.286744,0.000000,0.000000,0.000000,-1,0.614477,0.554936,0.303428,0.367091,0.035577,0.069930
"2019-03-26 11:14:29.836 +0000",1553598869.836240,-2.597891,1.217629,0.459728,-0.178922,-0.938282,0.295997,0.000000,0.000000,0.000000,-1,0.483571,-0.034411,0.291236,0.387937,-0.443691,-0.331366
"2019-03-26 11:14:29.859 +0000",1553598869.858556,-2.583680,1.204620,0.462234,-0.189556,-0.933703,0.303754,0.000000,0.000000,0.000000,-1,0.371195,1.001149,0.243538,0.200817,-0.368421,0.013568
"2019-03-26 11:14:29.881 +0000",1553598869.880856,-2.559981,1.206456,0.451247,-0.195759,-0.934359,0.297744,0.000000,0.000000,0.000000,-1,-0.412084,0.207387,-0.069811,0.152790,-0.375669,0.053330
"2019-03-26 11:14:29.903 +0000",1553598869.903164,-2.580233,1.221542,0.465551,-0.182165,-0.939628,0.289681,0.000000,0.000000,0.000000,-1,-0.505830,-0.304857,-0.825755,0.216222,-0.391854,-0.200356
"2019-03-26 11:14:29.925 +0000",1553598869.925455,-2.621850,1.254703,0.508669,-0.154389,-0.950457,0.269806,0.000000,0.000000,0.000000,-1,-1.275204,-0.015406,-1.602752,0.417801,-0.426588,-0.195435
"2019-03-26 11:14:29.948 +0000",1553598869.947753,-2.690990,1.313948,0.581238,-0.110634,-0.967195,0.228677,0.000000,0.000000,0.000000,-1,-2.303849,0.252166,-2.282903,0.427009,-0.204970,-0.119135
"2019-03-26 11:14:29.970 +0000",1553598869.970058,-2.809622,1.385596,0.722635,-0.060014,-0.982899,0.174090,0.000000,0.000000,0.000000,-1,-2.353443,1.081322,-2.588014,0.356477,-0.261257,-0.056231
"2019-03-26 11:14:29.992 +0000",1553598869.992366,-3.094499,1.450828,1.025656,-0.005634,-0.992812,0.119548,0.000000,0.000000,0.000000,-1,-2.643245,0.361980,-2.478788,0.113620,-0.305665,0.065190
"2019-03-26 11:14:30.015 +0000",1553598870.014636,2.460805,1.500035,1.747501,0.044500,-0.997497,0.054941,0.000000,0.000000,0.000000,-1,-2.975031,-0.954218,-2.106249,-0.165075,-0.620453,-0.253443
"2019-03-26 11:14:30.037 +0000",1553598870.036946,1.449903,1.480323,2.732614,0.089691,-0.995910,-0.010896,0.000000,0.000000,0.000000,-1,-2.694642,-1.115741,-1.914893,-0.300186,-0.712937,-0.012923
"2019-03-26 11:14:30.059 +0000",1553598870.059260,1.105569,1.427178,3.077375,0.127914,-0.989705,-0.064210,0.000000,0.000000,0.000000,-1,-2.318549,0.583106,-1.637044,-0.494628,-0.581768,0.212708
"2019-03-26 11:14:30.082 +0000",1553598870.081568,0.940186,1.378193,-3.017995,0.154600,-0.981509,-0.112865,0.000000,0.000000,0.000000,-1,-2.397653,0.617295,-0.739230,-0.781705,-0.686963,0.320507
"2019-03-26 11:14:30.104 +0000",1553598870.103845,0.750685,1.334625,-2.834678,0.159608,-0.972241,-0.171092,0.000000,0.000000,0.000000,-1,-2.728673,-0.983389,-0.130944,-0.735704,-0.501895,0.296779
"2019-03-26 11:14:30.126 +0000",1553598870.126153,0.571133,1.283586,-2.677382,0.153136,-0.959038,-0.238318,0.000000,0.000000,0.000000,-1,-3.008981,-1.290217,0.083792,-0.253691,-0.207451,0.012763
"2019-03-26 11:14:30.148 +0000",1553598870.148441,0.453416,1.224158,-2.580704,0.148819,-0.940520,-0.305409,0.000000,0.000000,0.000000,-1,-2.882291,-0.977864,-0.276202,-0.113357,-0.164384,0.193898
"2019-03-26 11:14:30.171 +0000",1553598870.170735,0.406570,1.168476,-2.552949,0.154845,-0.920155,-0.359636,0.000000,0.000000,0.000000,-1,-2.158364,-0.976084,-0.850278,-0.189162,-0.140270,0.463228
"2019-03-26 11:14:30.193 +0000",1553598870.193045,0.403553,1.125951,-2.579896,0.168981,-0.902677,-0.395751,0.000000,0.000000,0.000000,-1,-1.096042,-1.429289,-1.416449,-0.181050,0.056883,0.677413
"2019-03-26 11:14:30.215 +0000",1553598870.215352,0.422604,1.103950,-2.646957,0.184591,-0.892992,-0.410477,0.000000,0.000000,0.000000,-1,-0.072428,-1.942621,-1.621105,-0.028936,0.416170,0.742997
"2019-03-26 11:14:30.238 +0000",1553598870.237661,0.446536,1.094593,-2.712638,0.197961,-0.888742,-0.413461,0.000000,0.000000,0.000000,-1,0.312139,-1.452472,-1.199687,0.220191,0.774713,0.635705
"2019-03-26 11:14:30.260 +0000",1553598870.259937,0.434683,1.098257,-2.751591,0.191673,-0.890415,-0.412821,0.000000,0.000000,0.000000,-1,0.596295,-2.479540,-0.246397,0.222725,0.765965,0.506938
"2019-03-26 11:14:30.282 +0000",1553598870.282246,0.374769,1.114887,-2.743885,0.161167,-0.897861,-0.409720,0.000000,0.000000,0.000000,-1,0.570744,-2.110120,0.808495,0.063076,0.624790,0.468314
"2019-03-26 11:14:30.305 +0000",1553598870.304554,0.296122,1.133338,-2.703058,0.123624,-0.905831,-0.405200,0.000000,0.000000,0.000000,-1,0.600428,-1.907702,0.979146,-0.351178,0.384103,0.846957
"2019-03-26 11:14:30.327 +0000",1553598870.326862,0.220868,1.152854,-2.662716,0.088919,-0.913926,-0.396021,0.000000,0.000000,0.000000,-1,0.603565,-1.235877,1.020324,-0.502875,0.413346,0.754923
"2019-03-26 11:14:30.349 +0000",1553598870.349138,0.195497,1.164472,-2.626670,0.076776,-0.918580,-0.387707,0.000000,0.000000,0.000000,-1,0.160731,0.820644,0.354317,0.737463,0.318024,0.554317
"2019-03-26 11:14:30.371 +0000",1553598870.371452,0.212596,1.136419,-2.647339,0.088797,-0.907132,-0.411371,0.000000,0.000000,0.000000,-1,-1.688153,-0.916948,-1.194133,-0.547736,0.671247,0.393961
"2019-03-26 11:14:30.394 +0000",1553598870.393756,0.289335,1.117929,-2.749200,0.124838,-0.899196,-0.419358,0.000000,0.000000,0.000000,-1,0.424726,0.295558,-2.491672,-0.876043,0.038433,-0.987609
"2019-03-26 11:14:30.416 +0000",1553598870.416064,0.378311,1.105739,-2.831128,0.165645,-0.893796,-0.416762,0.000000,0.000000,0.000000,-1,-0.374381,0.265425,-0.969603,-0.528834,-1.397861,-1.898850
"2019-03-26 11:14:30.438 +0000",1553598870.438341,0.368507,1.098657,-2.831873,0.163827,-0.890597,-0.424261,0.000000,0.000000,0.000000,-1,-0.186366,-0.925997,0.120324,0.516013,-1.036679,-0.483866
"2019-03-26 11:14:30.461 +0000",1553598870.460648,0.308203,1.096524,-2.816470,0.138536,-0.889625,-0.435172,0.000000,0.000000,0.000000,-1,-0.164903,-2.284296,0.382979,0.577636,-0.003258,-0.380852
"2019-03-26 11:14:30.483 +0000",1553598870.482956,0.267482,1.097727,-2.792212,0.120422,-0.890174,-0.439419,0.000000,0.000000,0.000000,-1,0.087385,-0.055251,0.355858,-0.043182,0.034659,-0.511249
"2019-03-26 11:14:30.505 +0000",1553598870.505232,0.321322,1.115944,-2.827724,0.138750,-0.898326,-0.416844,0.000000,0.000000,0.000000,-1,1.500451,1.722529,-0.701372,-0.539629,-0.344228,-0.106624
"2019-03-26 11:14:30.528 +0000",1553598870.527541,0.376952,1.136707,-2.834574,0.154812,-0.907254,-0.391055,0.000000,0.000000,0.000000,-1,0.229061,2.376292,0.854121,0.174351,-0.232319,-0.016812
"2019-03-26 11:14:30.550 +0000",1553598870.549848,0.347080,1.140723,-2.751382,0.141823,-0.908935,-0.392075,0.000000,0.000000,0.000000,-1,-0.207999,1.667354,1.762100,0.167900,-0.473358,0.839265
"2019-03-26 11:14:30.572 +0000",1553598870.572155,0.301845,1.168637,-2.673701,0.116358,-0.920218,-0.373711,0.000000,0.000000,0.000000,-1,1.138487,1.206269,1.672488,-0.441035,-0.424799,0.547753
"2019-03-26 11:14:30.594 +0000",1553598870.594439,0.283486,1.209155,-2.597974,0.098962,-0.935317,-0.339688,0.000000,0.000000,0.000000,-1,1.437680,2.974793,1.844240,-0.807779,-0.113831,-0.145527
"2019-03-26 11:14:30.617 +0000",1553598870.616742,0.241531,1.251532,-2.469872,0.075074,-0.949467,-0.304757,0.000000,0.000000,0.000000,-1,1.226431,3.765752,2.814674,-0.649140,0.443211,0.563928
"2019-03-26 11:14:30.639 +0000",1553598870.639049,0.056275,1.292960,-2.189832,0.015427,-0.961651,-0.273841,0.000000,0.000000,0.000000,-1,1.374905,3.293971,4.545758,-0.340790,0.411526,0.685890
"2019-03-26 11:14:30.661 +0000",1553598870.661356,-0.233178,1.318106,-1.875050,-0.057770,-0.968243,-0.243244,0.000000,0.000000,0.000000,-1,1.204082,-1.363981,2.502924,0.121094,-0.016742,0.757999
"2019-03-26 11:14:30.684 +0000",1553598870.683631,-0.390672,1.330428,-1.797805,-0.090656,-0.971250,-0.220123,0.000000,0.000000,0.000000,-1,0.716099,-4.389260,-0.075567,0.114551,-0.685442,0.202637
"2019-03-26 11:14:30.706 +0000",1553598870.705941,-0.484173,1.353779,-1.786880,-0.100226,-0.976544,-0.190569,0.000000,0.000000,0.000000,-1,1.147271,-3.019880,-0.385267,-0.057276,-0.705966,0.203951
"2019-03-26 11:14:30.728 +0000",1553598870.728251,-0.563340,1.382773,-1.747418,-0.099816,-0.982376,-0.158034,0.000000,0.000000,0.000000,-1,1.392142,-1.260349,-0.306500,0.088845,-0.214051,-0.083009
"2019-03-26 11:14:30.751 +0000",1553598870.750543,-0.686059,1.412411,-1.644829,-0.099917,-0.987483,-0.122039,0.000000,0.000000,0.000000,-1,1.596888,-0.878930,0.007780,0.044070,0.335399,0.054244
"2019-03-26 11:14:30.773 +0000",1553598870.772830,-0.893085,1.433334,-1.446016,-0.106747,-0.990567,-0.085919,0.000000,0.000000,0.000000,-1,1.602616,0.004382,0.341091,0.122845,0.437634,0.105298
"2019-03-26 11:14:30.795 +0000",1553598870.795144,-1.168938,1.449980,-1.148527,-0.110922,-0.992711,-0.047140,0.000000,0.000000,0.000000,-1,2.029150,1.235203,0.147988,0.151693,0.450001,0.117834
"2019-03-26 11:14:30.817 +0000",1553598870.817452,-1.586847,1.460475,-0.695264,-0.110083,-0.993921,0.001767,0.000000,0.000000,0.000000,-1,2.579255,1.542251,-0.039342,0.088126,0.477060,0.081973
"2019-03-26 11:14:30.840 +0000",1553598870.839729,-2.048684,1.443086,-0.192130,-0.113094,-0.991856,0.058575,0.000000,0.000000,0.000000,-1,2.802159,1.765696,0.139889,0.024303,0.370106,0.005573
"2019-03-26 11:14:30.862 +0000",1553598870.862036,-2.302270,1.405220,0.088036,-0.122658,-0.986324,0.110095,0.000000,0.000000,0.000000,-1,2.065491,0.254116,0.611991,0.149712,0.272609,0.118802
"2019-03-26 11:14:30.884 +0000",1553598870.884345,-2.325952,1.365738,0.085981,-0.148272,-0.979049,0.139564,0.000000,0.000000,0.000000,-1,0.809133,-1.599898,1.661281,0.049746,0.302856,0.039574
"2019-03-26 11:14:30.907 +0000",1553598870.906653,-2.313170,1.322671,0.050515,-0.180965,-0.969375,0.166027,0.000000,0.000000,0.000000,-1,1.294921,-0.406879,1.547934,-0.145512,0.004729,-0.446880
"2019-03-26 11:14:30.929 +0000",1553598870.928930,-2.305218,1.281839,0.062477,-0.211497,-0.958541,0.190963,0.000000,0.000000,0.000000,-1,1.302222,1.551277,1.163355,-0.208150,0.105529,-0.400726
"2019-03-26 11:14:30.951 +0000",1553598870.951237,-2.237992,1.243230,0.027110,-0.252746,-0.946828,0.199088,0.000000,0.000000,0.000000,-1,0.363265,0.832183,1.726339,-0.036683,0.159444,-0.277625
"2019-03-26 11:14:30.974 +0000",1553598870.973525,-2.245806,1.218156,0.008808,-0.269636,-0.938464,0.215828,0.000000,0.000000,0.000000,-1,0.690063,-1.535809,0.750104,0.689467,-0.644254,0.164284
"2019-03-26 11:14:30.996 +0000",1553598870.995855,-2.247586,1.199391,0.005347,-0.282932,-0.931818,0.227298,0.000000,0.000000,0.000000,-1,0.216842,0.321194,0.663947,0.398563,-0.452215,-0.013263
"2019-03-26 11:14:31.018 +0000",1553598871.018131,-2.239986,1.189834,-0.005825,-0.291623,-0.928307,0.230655,0.000000,0.000000,0.000000,-1,0.175888,-0.318819,0.263954,0.104031,-0.338706,-0.168887
"2019-03-26 11:14:31.040 +0000",1553598871.040440,-2.234138,1.193525,-0.015253,-0.290265,-0.929673,0.226835,0.000000,0.000000,0.000000,-1,-0.547017,-0.117849,-0.176051,0.383206,-0.405578,-0.118116
"2019-03-26 11:14:31.063 +0000",1553598871.062746,-2.228207,1.214327,-0.029827,-0.276235,-0.937135,0.213244,0.000000,0.000000,0.000000,-1,-0.894891,-0.251081,-0.872201,0.420583,-0.492294,-0.072756
"2019-03-26 11:14:31.085 +0000",1553598871.085024,-2.218113,1.257928,-0.040510,-0.245525,-0.951455,0.185611,0.000000,0.000000,0.000000,-1,-1.636160,-0.065590,-1.814495,0.552837,-0.579978,-0.154865
"2019-03-26 11:14:31.107 +0000",1553598871.107332,-2.190217,1.327066,-0.078621,-0.196490,-0.970445,0.140104,0.000000,0.000000,0.000000,-1,-2.452732,-0.519478,-2.351692,0.456835,-0.476852,-0.147016
"2019-03-26 11:14:31.130 +0000",1553598871.129641,-2.118208,1.400706,-0.166590,-0.144537,-0.985569,0.088102,0.000000,0.000000,0.000000,-1,-2.515120,-0.735559,-2.234430,0.247625,-0.313823,-0.001631
"2019-03-26 11:14:31.152 +0000",1553598871.151949,-1.827588,1.465631,-0.477357,-0.101529,-0.994475,0.026661,0.000000,0.000000,0.000000,-1,-3.056052,-0.664861,-1.706819,0.029386,-0.259797,0.061169
"2019-03-26 11:14:31.174 +0000",1553598871.174247,-1.048963,1.492522,-1.248637,-0.067787,-0.996938,-0.038978,0.000000,0.000000,0.000000,-1,-2.674908,1.063526,-1.425509,-0.247749,-0.699061,-0.224481
"2019-03-26 11:14:31.197 +0000",1553598871.196526,-0.417028,1.475687,-1.863980,-0.038465,-0.995480,-0.086827,0.000000,0.000000,0.000000,-1,-1.839988,0.424122,-1.126708,-0.476427,-0.644885,0.554189
"2019-03-26 11:14:31.219 +0000",1553598871.218840,-0.167478,1.436938,-2.130179,-0.022247,-0.991054,-0.131591,0.000000,0.000000,0.000000,-1,-2.426235,-1.321067,-0.640062,-0.618775,-0.593922,0.383255
"2019-03-26 11:14:31.241 +0000",1553598871.241149,-0.089592,1.366151,-2.246402,-0.018183,-0.979133,-0.202405,0.000000,0.000000,0.000000,-1,-3.594208,-1.571291,-0.320679,-0.762076,-0.625115,0.282147
"2019-03-26 11:14:31.263 +0000",1553598871.263428,-0.080070,1.286197,-2.268652,-0.022458,-0.959774,-0.279873,0.000000,0.000000,0.000000,-1,-3.448634,0.226032,0.317194,-0.768573,-0.489261,0.302426
"2019-03-26 11:14:31.286 +0000",1553598871.285733,-0.081792,1.218295,-2.250482,-0.028207,-0.938512,-0.344093,0.000000,0.000000,0.000000,-1,-2.740050,0.613423,0.529913,-0.566398,-0.139537,0.332053
"2019-03-26 11:14:31.308 +0000",1553598871.308043,-0.083667,1.169219,-2.249962,-0.032665,-0.920446,-0.389503,0.000000,0.000000,0.000000,-1,-1.812742,-0.366759,-0.143287,-0.237263,0.118032,0.399101
"2019-03-26 11:14:31.330 +0000",1553598871.330352,-0.048471,1.143400,-2.290169,-0.020083,-0.910048,-0.414016,0.000000,0.000000,0.000000,-1,-0.909746,0.211378,-0.888635,0.043170,0.171736,0.464843
"2019-03-26 11:14:31.353 +0000",1553598871.352627,0.020377,1.125980,-2.356103,0.008768,-0.902690,-0.430203,0.000000,0.000000,0.000000,-1,-0.795174,0.382793,-1.428502,-0.034387,0.222132,0.513257
"2019-03-26 11:14:31.375 +0000",1553598871.374922,0.091366,1.103929,-2.440658,0.041066,-0.892983,-0.448214,0.000000,0.000000,0.000000,-1,-0.948343,-0.647521,-1.904474,-0.072148,0.158775,0.510210
"2019-03-26 11:14:31.397 +0000",1553598871.397243,0.147377,1.077942,-2.532818,0.069478,-0.880986,-0.468014,0.000000,0.000000,0.000000,-1,-0.871419,-1.342876,-1.995030,-0.014043,0.218678,0.564953
"2019-03-26 11:14:31.420 +0000",1553598871.419525,0.165878,1.056600,-2.600740,0.081211,-0.870688,-0.485084,0.000000,0.000000,0.000000,-1,-0.583300,-2.154573,-1.336418,-0.084171,0.563773,0.766349
"2019-03-26 11:14:31.442 +0000",1553598871.441829,0.143313,1.046936,-2.639864,0.071444,-0.865894,-0.495099,0.000000,0.000000,0.000000,-1,-0.074274,-2.615676,-0.701912,-0.184954,0.671284,0.670254
"2019-03-26 11:14:31.464 +0000",1553598871.464138,0.107015,1.054998,-2.658225,0.052682,-0.869899,-0.490408,0.000000,0.000000,0.000000,-1,0.752088,-2.142346,-0.228151,-0.140359,0.794124,0.621786
"2019-03-26 11:14:31.486 +0000",1553598871.486445,0.081331,1.088265,-2.673644,0.037698,-0.885823,-0.462489,0.000000,0.000000,0.000000,-1,1.972070,-1.469884,-0.155444,-0.110879,0.923817,0.554576
"2019-03-26 11:14:31.509 +0000",1553598871.508723,0.063122,1.133449,-2.674157,0.026717,-0.905878,-0.422695,0.000000,0.000000,0.000000,-1,1.659849,-0.441022,0.314138,-0.013381,0.799601,0.346218
"2019-03-26 11:14:31.531 +0000",1553598871.531029,0.056867,1.125198,-2.660285,0.024496,-0.902353,-0.430302,0.000000,0.000000,0.000000,-1,-1.509561,0.432060,-0.060929,-0.058035,0.489740,0.261722
"2019-03-26 11:14:31.553 +0000",1553598871.553339,0.081992,1.100804,-2.701751,0.037091,-0.891572,-0.451358,0.000000,0.000000,0.000000,-1,-0.563695,-0.923230,-1.349821,-0.170132,-0.148986,-0.076703
"2019-03-26 11:14:31.576 +0000",1553598871.575623,0.121376,1.089307,-2.758609,0.056071,-0.886306,-0.459693,0.000000,0.000000,0.000000,-1,-0.411150,-0.556130,-0.915103,0.116368,-1.657563,-1.263971
"2019-03-26 11:14:31.598 +0000",1553598871.597941,0.110189,1.083172,-2.771117,0.051522,-0.883449,-0.465687,0.000000,0.000000,0.000000,-1,-0.126678,-1.182128,0.048273,0.190635,-0.393102,-0.360271
"2019-03-26 11:14:31.620 +0000",1553598871.620232,0.057025,1.084340,-2.745205,0.026645,-0.883995,-0.466737,0.000000,0.000000,0.000000,-1,0.191155,-1.255380,0.794624,0.247541,-0.029823,-0.405654
"2019-03-26 11:14:31.643 +0000",1553598871.642523,0.011000,1.090917,-2.700109,0.005078,-0.887051,-0.461644,0.000000,0.000000,0.000000,-1,0.195155,0.200363,0.915682,0.117664,0.115933,-0.240611
"2019-03-26 11:14:31.665 +0000",1553598871.664816,0.009605,1.097046,-2.684745,0.004382,-0.889863,-0.456206,0.000000,0.000000,0.000000,-1,0.465095,1.159743,-0.106240,-0.334811,-0.384795,0.060942
"2019-03-26 11:14:31.687 +0000",1553598871.687125,0.034665,1.105998,-2.669282,0.015535,-0.893912,-0.447973,0.000000,0.000000,0.000000,-1,0.186623,1.851622,0.698813,-0.319780,-0.528894,-0.517008
"2019-03-26 11:14:31.709 +0000",1553598871.709433,0.041285,1.108127,-2.626152,0.018422,-0.894864,-0.445958,0.000000,0.000000,0.000000,-1,0.107057,2.013308,0.846208,-0.239903,-0.804247,0.175648
"2019-03-26 11:14:31.732 +0000",1553598871.731740,0.041274,1.121977,-2.589890,0.017904,-0.900960,-0.433533,0.000000,0.000000,0.000000,-1,0.999020,1.038962,0.732426,-0.377920,-0.051433,0.973557
"2019-03-26 11:14:31.754 +0000",1553598871.754017,0.036316,1.159481,-2.540679,0.014517,-0.916596,-0.399551,0.000000,0.000000,0.000000,-1,1.940356,2.688392,1.211923,-0.510565,0.443238,0.489273
"2019-03-26 11:14:31.776 +0000",1553598871.776327,0.014431,1.205643,-2.433582,0.005153,-0.934069,-0.357055,0.000000,0.000000,0.000000,-1,1.952907,3.409871,2.323251,-0.582637,0.568865,0.094771
"2019-03-26 11:14:31.799 +0000",1553598871.798618,-0.100605,1.245192,-2.240165,-0.032127,-0.947458,-0.318264,0.000000,0.000000,0.000000,-1,1.797325,2.690507,3.049084,-0.305443,0.336236,0.553432
"2019-03-26 11:14:31.821 +0000",1553598871.820941,-0.252545,1.267521,-2.045394,-0.074623,-0.954363,-0.289174,0.000000,0.000000,0.000000,-1,1.286649,0.518077,1.837532,-0.209816,-0.033140,0.651998
"2019-03-26 11:14:31.843 +0000",1553598871.843218,-0.371132,1.297541,-1.961423,-0.097873,-0.962897,-0.251494,0.000000,0.000000,0.000000,-1,1.939128,-2.856924,-0.002965,-0.298230,-0.302422,0.605727
"2019-03-26 11:14:31.866 +0000",1553598871.865520,-0.475352,1.354728,-1.914068,-0.098116,-0.976748,-0.190622,0.000000,0.000000,0.000000,-1,2.739160,-1.789648,-0.856904,-0.224485,-0.786054,0.015359
"2019-03-26 11:14:31.888 +0000",1553598871.887836,-0.493062,1.412630,-1.887109,-0.074553,-0.987518,-0.138747,0.000000,0.000000,0.000000,-1,2.069498,1.492561,-1.062483,0.141142,-0.340195,-0.176698
"2019-03-26 11:14:31.910 +0000",1553598871.910142,-0.429411,1.454186,-1.899079,-0.048439,-0.993209,-0.105784,0.000000,0.000000,0.000000,-1,1.489567,2.595796,-0.736338,0.267113,0.014144,0.153742
"2019-03-26 11:14:31.932 +0000",1553598871.932420,-0.461235,1.490211,-1.817062,-0.035826,-0.996755,-0.072087,0.000000,0.000000,0.000000,-1,1.728446,1.703866,-0.142783,0.367567,0.163076,0.261479
"2019-03-26 11:14:31.955 +0000",1553598871.954728,-0.879701,1.520590,-1.391051,-0.038671,-0.998740,-0.031988,0.000000,0.000000,0.000000,-1,1.828774,-0.522476,0.226855,0.511541,0.478385,-0.020396
"2019-03-26 11:14:31.977 +0000",1553598871.977036,-1.767845,1.527194,-0.519643,-0.042746,-0.999050,0.008534,0.000000,0.000000,0.000000,-1,1.707927,-0.568420,0.129208,0.548590,0.522472,-0.142842
"2019-03-26 11:14:31.999 +0000",1553598871.999314,-2.346689,1.509065,0.072053,-0.044036,-0.998095,0.043207,0.000000,0.000000,0.000000,-1,1.536875,1.213597,0.023998,0.242797,0.421405,-0.061227
"2019-03-26 11:14:32.022 +0000",1553598872.021632,-2.575141,1.476345,0.338414,-0.050611,-0.995543,0.079581,0.000000,0.000000,0.000000,-1,1.915929,1.646678,0.318045,-0.007616,0.178740,0.173059
"2019-03-26 11:14:32.044 +0000",1553598872.043929,-2.685942,1.423935,0.463751,-0.064394,-0.989235,0.131404,0.000000,0.000000,0.000000,-1,2.574863,-0.164734,0.721456,0.032503,0.103463,0.085424
"2019-03-26 11:14:32.066 +0000",1553598872.066237,-2.685383,1.375195,0.451086,-0.085624,-0.980931,0.174480,0.000000,0.000000,0.000000,-1,1.179770,-0.256626,1.288601,-0.003839,0.042775,-0.240077
"2019-03-26 11:14:32.089 +0000",1553598872.088534,-2.559663,1.355118,0.327696,-0.117628,-0.976831,0.178785,0.000000,0.000000,0.000000,-1,-0.155158,0.338719,1.421685,-0.181063,0.104715,-0.628736
"2019-03-26 11:14:32.111 +0000",1553598872.110822,-2.436439,1.336880,0.205750,-0.150234,-0.972766,0.176510,0.000000,0.000000,0.000000,-1,0.127172,0.112733,1.484598,-0.234531,0.074725,-0.265392
"2019-03-26 11:14:32.133 +0000",1553598872.133131,-2.394223,1.307464,0.163096,-0.176929,-0.965528,0.190924,0.000000,0.000000,0.000000,-1,1.011909,-0.063436,1.002730,-0.047635,0.103010,0.079187
"2019-03-26 11:14:32.155 +0000",1553598872.155437,-2.436768,1.276514,0.202999,-0.187925,-0.957011,0.220941,0.000000,0.000000,0.000000,-1,1.428054,0.027513,0.298714,0.134153,0.045939,0.162650
"2019-03-26 11:14:32.178 +0000",1553598872.177710,-2.453031,1.258465,0.245155,-0.195253,-0.951620,0.237268,0.000000,0.000000,0.000000,-1,0.685059,1.365569,-0.029819,0.360506,-0.497218,0.028814
"2019-03-26 11:14:32.200 +0000",1553598872.200030,-2.445567,1.254603,0.257543,-0.199373,-0.950426,0.238622,0.000000,0.000000,0.000000,-1,-0.024980,0.677984,0.066540,0.554307,-0.550657,-0.038976
"2019-03-26 11:14:32.222 +0000",1553598872.222331,-2.429093,1.260653,0.245416,-0.199514,-0.952290,0.230950,0.000000,0.000000,0.000000,-1,-0.407043,-0.160030,-0.282221,0.472494,-0.360546,-0.301537
"2019-03-26 11:14:32.245 +0000",1553598872.244626,-2.452572,1.284792,0.267337,-0.179367,-0.959379,0.217760,0.000000,0.000000,0.000000,-1,-0.843794,0.063459,-1.290399,0.344452,-0.524660,-0.085970
"2019-03-26 11:14:32.267 +0000",1553598872.266917,-2.491995,1.331917,0.306611,-0.143119,-0.971604,0.188422,0.000000,0.000000,0.000000,-1,-1.764323,-0.192400,-1.823195,0.323906,-0.413452,-0.105750
"2019-03-26 11:14:32.289 +0000",1553598872.289225,-2.514758,1.398030,0.326597,-0.100839,-0.985113,0.139226,0.000000,0.000000,0.000000,-1,-2.439603,-0.131636,-1.941875,0.412301,-0.273066,-0.094594
"2019-03-26 11:14:32.312 +0000",1553598872.311506,-2.558706,1.470464,0.370076,-0.055134,-0.994971,0.083625,0.000000,0.000000,0.000000,-1,-2.605696,0.245215,-2.132613,0.324986,-0.325403,-0.002875
"2019-03-26 11:14:32.334 +0000",1553598872.333810,-2.935833,1.542818,0.762708,-0.005716,-0.999609,0.027386,0.000000,0.000000,0.000000,-1,-2.335273,0.548492,-2.310106,0.158182,-0.333018,-0.031139
"2019-03-26 11:14:32.356 +0000",1553598872.356118,1.027865,1.528561,3.076884,0.036151,-0.999108,-0.021814,0.000000,0.000000,0.000000,-1,-2.203451,-0.658654,-1.463209,-0.090900,-0.556281,-0.219732
"2019-03-26 11:14:32.378 +0000",1553598872.378425,0.581629,1.481718,-2.777833,0.048874,-0.996035,-0.074333,0.000000,0.000000,0.000000,-1,-2.417698,-0.830788,-0.143078,-0.169586,-0.572401,0.070747
"2019-03-26 11:14:32.401 +0000",1553598872.400734,0.305373,1.430341,-2.513462,0.042089,-0.990152,-0.133517,0.000000,0.000000,0.000000,-1,-2.764526,-0.465264,0.256704,-0.229650,-0.715704,0.504413
"2019-03-26 11:14:32.423 +0000",1553598872.423006,0.231900,1.366557,-2.452500,0.046614,-0.979216,-0.197393,0.000000,0.000000,0.000000,-1,-2.932734,-0.776357,-0.644961,-0.497954,-0.574465,0.557516
"2019-03-26 11:14:32.445 +0000",1553598872.445320,0.216596,1.299997,-2.455220,0.057488,-0.963557,-0.261252,0.000000,0.000000,0.000000,-1,-2.875830,-0.654192,-0.552980,-0.657128,-0.465444,0.229682
"2019-03-26 11:14:32.468 +0000",1553598872.467625,0.183704,1.235836,-2.424861,0.060050,-0.944423,-0.323200,0.000000,0.000000,0.000000,-1,-2.911861,0.056605,0.027471,-0.559806,-0.069416,0.245228
"2019-03-26 11:14:32.490 +0000",1553598872.489928,0.152896,1.175410,-2.390286,0.058661,-0.922848,-0.380671,0.000000,0.000000,0.000000,-1,-2.584455,0.026029,0.037807,-0.473608,0.000622,0.458353
"2019-03-26 11:14:32.512 +0000",1553598872.512205,0.151485,1.131643,-2.388446,0.064161,-0.905112,-0.420304,0.000000,0.000000,0.000000,-1,-1.442855,0.035338,-0.543600,-0.380812,0.168982,0.625321
"2019-03-26 11:14:32.535 +0000",1553598872.534502,0.212086,1.113178,-2.448987,0.093001,-0.897107,-0.431913,0.000000,0.000000,0.000000,-1,-0.186991,0.591954,-1.803431,-0.270842,0.370908,0.697737
"2019-03-26 11:14:32.557 +0000",1553598872.556828,0.337902,1.098418,-2.561359,0.150838,-0.890489,-0.429276,0.000000,0.000000,0.000000,-1,-0.089041,1.228991,-2.498784,-0.156972,0.427812,0.734757
"2019-03-26 11:14:32.579 +0000",1553598872.579105,0.419053,1.072215,-2.647858,0.194569,-0.878262,-0.436805,0.000000,0.000000,0.000000,-1,-0.601713,-0.627260,-1.791545,-0.051335,0.415661,0.667045
"2019-03-26 11:14:32.601 +0000",1553598872.601413,0.415657,1.045142,-2.689675,0.202614,-0.864996,-0.459053,0.000000,0.000000,0.000000,-1,-0.710542,-2.291613,-1.130496,0.037590,0.450415,0.516365
"2019-03-26 11:14:32.624 +0000",1553598872.623706,0.379931,1.028435,-2.713844,0.191421,-0.856492,-0.479353,0.000000,0.000000,0.000000,-1,-0.315786,-2.601671,-0.551964,-0.113372,0.555238,0.514356
"2019-03-26 11:14:32.646 +0000",1553598872.646030,0.331836,1.032442,-2.721381,0.167035,-0.858553,-0.484753,0.000000,0.000000,0.000000,-1,0.671939,-2.249216,0.140033,-0.244656,0.637667,0.624325
"2019-03-26 11:14:32.668 +0000",1553598872.668307,0.298962,1.065975,-2.725257,0.142449,-0.875261,-0.462197,0.000000,0.000000,0.000000,-1,1.874569,-1.261889,0.518833,-0.292504,0.673540,0.610452
"2019-03-26 11:14:32.691 +0000",1553598872.690610,0.278433,1.114526,-2.715011,0.121099,-0.897702,-0.423634,0.000000,0.000000,0.000000,-1,1.812061,0.080657,0.959686,-0.162390,0.602627,0.151845
"2019-03-26 11:14:32.713 +0000",1553598872.712924,0.275169,1.132231,-2.693581,0.115379,-0.905362,-0.408666,0.000000,0.000000,0.000000,-1,0.109650,0.762065,0.165165,-0.067604,0.484265,-0.015636
"2019-03-26 11:14:32.735 +0000",1553598872.735230,0.313079,1.128554,-2.732984,0.131809,-0.903794,-0.407164,0.000000,0.000000,0.000000,-1,0.086029,-0.347647,-1.135006,0.020565,-0.073379,-0.643434
"2019-03-26 11:14:32.758 +0000",1553598872.757506,0.317465,1.116962,-2.760765,0.136855,-0.898773,-0.416507,0.000000,0.000000,0.000000,-1,-0.559924,-1.271216,-0.355468,0.462739,-1.389603,-0.760770
"2019-03-26 11:14:32.780 +0000",1553598872.779816,0.281978,1.106094,-2.758168,0.124702,-0.893955,-0.430458,0.000000,0.000000,0.000000,-1,-0.351371,-1.524103,0.076093,0.581673,-1.101040,-0.208886
"2019-03-26 11:14:32.802 +0000",1553598872.802124,0.236430,1.107900,-2.744597,0.104595,-0.894763,-0.434119,0.000000,0.000000,0.000000,-1,0.215822,-1.322075,0.405767,0.413273,-0.277951,-0.356012
"2019-03-26 11:14:32.824 +0000",1553598872.824401,0.200651,1.115248,-2.720941,0.087686,-0.898020,-0.431128,0.000000,0.000000,0.000000,-1,0.212977,-0.289775,0.457389,0.129736,-0.102667,-0.504236
"2019-03-26 11:14:32.847 +0000",1553598872.846709,0.234362,1.120754,-2.735372,0.101018,-0.900429,-0.423112,0.000000,0.000000,0.000000,-1,0.119858,1.681876,-0.562509,-0.132954,-0.480583,-0.479751
"2019-03-26 11:14:32.869 +0000",1553598872.869017,0.267128,1.111089,-2.730034,0.117116,-0.896182,-0.427950,0.000000,0.000000,0.000000,-1,-0.593234,1.496415,0.546634,-0.015584,-0.601742,-0.077620
"2019-03-26 11:14:32.891 +0000",1553598872.891325,0.247135,1.112184,-2.679794,0.108297,-0.896668,-0.429253,0.000000,0.000000,0.000000,-1,0.134781,0.876323,1.079681,-0.118398,-0.803131,0.555001
"2019-03-26 11:14:32.914 +0000",1553598872.913619,0.229054,1.132257,-2.635890,0.096412,-0.905373,-0.413528,0.000000,0.000000,0.000000,-1,0.967805,1.304622,1.041500,-0.769096,0.506615,0.248489
"2019-03-26 11:14:32.936 +0000",1553598872.935911,0.229108,1.165522,-2.581373,0.089542,-0.918994,-0.383969,0.000000,0.000000,0.000000,-1,1.332068,2.670986,1.550555,-0.824802,0.655872,0.179257
