timestamp,timeIntervalSince1970,attitude.roll,attitude.pitch,attitude.yaw,gravity.x,gravity.y,gravity.z,magneticField.x,magneticField.y,magneticField.z,magneticField.accuracy,rotationRate.x,rotationRate.y,rotationRate.z,userAcceleration.x,userAcceleration.y,userAcceleration.z
"2019-10-08 15:46:18.609 +0000",1570549578.608837,0.009240,0.418431,-0.001962,0.008443,-0.406327,-0.913689,0.000000,0.000000,0.000000,-1,-0.201902,0.086093,0.052267,0.024730,0.035050,-0.014641
"2019-10-08 15:46:18.629 +0000",1570549578.628919,0.008556,0.417739,-0.000149,0.007820,-0.405695,-0.913975,0.000000,0.000000,0.000000,-1,0.123777,0.058098,0.063222,0.037468,0.032236,-0.114009
"2019-10-08 15:46:18.649 +0000",1570549578.649009,0.014622,0.428805,-0.000761,0.013298,-0.415784,-0.909366,0.000000,0.000000,0.000000,-1,0.133115,0.128140,0.047522,0.007531,0.012876,-0.065777
"2019-10-08 15:46:18.669 +0000",1570549578.669093,0.032331,0.463613,-0.006810,0.028913,-0.447183,-0.893975,0.000000,0.000000,0.000000,-1,0.041917,0.050257,0.062400,0.001528,0.027550,-0.084311
"2019-10-08 15:46:18.689 +0000",1570549578.689180,0.035356,0.456401,-0.006569,0.031730,-0.440721,-0.897083,0.000000,0.000000,0.000000,-1,-0.021261,-0.008563,0.096187,0.003792,0.020326,-0.058468
"2019-10-08 15:46:18.709 +0000",1570549578.709266,0.035098,0.437614,-0.004348,0.031784,-0.423780,-0.905208,0.000000,0.000000,0.000000,-1,-0.016360,-0.024637,0.134199,0.003143,0.010999,-0.026753
"2019-10-08 15:46:18.729 +0000",1570549578.729353,0.031014,0.431513,-0.000329,0.028167,-0.418246,-0.907897,0.000000,0.000000,0.000000,-1,0.038461,-0.065773,0.157616,0.008912,0.019579,-0.017243
"2019-10-08 15:46:18.749 +0000",1570549578.749439,0.027478,0.429621,0.003707,0.024978,-0.416526,-0.908781,0.000000,0.000000,0.000000,-1,0.038559,-0.088812,0.189964,-0.006179,0.018607,0.014692
"2019-10-08 15:46:18.770 +0000",1570549578.769526,0.024751,0.427352,0.007909,0.022523,-0.414462,-0.909788,0.000000,0.000000,0.000000,-1,-0.074949,-0.080343,0.208311,-0.033525,0.020129,0.044157
"2019-10-08 15:46:18.790 +0000",1570549578.789614,0.022455,0.423052,0.012033,0.020474,-0.410546,-0.911610,0.000000,0.000000,0.000000,-1,-0.200604,-0.096576,0.210173,-0.044842,0.028450,0.041905
"2019-10-08 15:46:18.810 +0000",1570549578.809701,0.020913,0.416788,0.015228,0.019122,-0.404825,-0.914194,0.000000,0.000000,0.000000,-1,-0.250231,-0.098811,0.165283,-0.049624,0.049112,0.042414
"2019-10-08 15:46:18.830 +0000",1570549578.829787,0.019181,0.412092,0.017946,0.017574,-0.400527,-0.916116,0.000000,0.000000,0.000000,-1,-0.218259,-0.045119,0.121641,-0.052562,0.056014,0.043421
"2019-10-08 15:46:18.850 +0000",1570549578.849872,0.017165,0.409227,0.021036,0.015747,-0.397900,-0.917294,0.000000,0.000000,0.000000,-1,-0.178853,0.044340,0.111346,-0.053085,0.051098,0.036999
"2019-10-08 15:46:18.870 +0000",1570549578.869959,0.015905,0.405715,0.024679,0.014613,-0.394676,-0.918704,0.000000,0.000000,0.000000,-1,-0.217049,0.103538,0.132320,-0.047145,0.039024,0.022449
"2019-10-08 15:46:18.890 +0000",1570549578.890046,0.014480,0.400125,0.028231,0.013335,-0.389534,-0.920916,0.000000,0.000000,0.000000,-1,-0.267160,0.073757,0.112662,-0.038573,0.046378,-0.006254
"2019-10-08 15:46:18.910 +0000",1570549578.910133,0.011322,0.393924,0.030941,0.010455,-0.383815,-0.923351,0.000000,0.000000,0.000000,-1,-0.263625,-0.047178,0.072703,-0.020923,0.054393,-0.038121
"2019-10-08 15:46:18.930 +0000",1570549578.930224,0.006057,0.388372,0.032667,0.005606,-0.378682,-0.925510,0.000000,0.000000,0.000000,-1,-0.228060,-0.147612,0.020595,-0.021674,0.049428,-0.040555
"2019-10-08 15:46:18.950 +0000",1570549578.950307,0.001594,0.383392,0.033291,0.001478,-0.374068,-0.927400,0.000000,0.000000,0.000000,-1,-0.224755,-0.094094,-0.016221,-0.035093,0.023985,-0.008406
"2019-10-08 15:46:18.970 +0000",1570549578.970397,0.001906,0.378254,0.032760,0.001771,-0.369299,-0.929309,0.000000,0.000000,0.000000,-1,-0.193755,0.146609,-0.068584,-0.051439,0.007970,0.029453
"2019-10-08 15:46:18.990 +0000",1570549578.990480,0.006960,0.372899,0.031593,0.006481,-0.364317,-0.931252,0.000000,0.000000,0.000000,-1,-0.123579,0.302603,-0.065885,-0.019863,-0.009020,-0.003745
"2019-10-08 15:46:19.011 +0000",1570549579.010567,0.010215,0.368650,0.032241,0.009528,-0.360357,-0.932766,0.000000,0.000000,0.000000,-1,-0.046078,0.192712,0.029437,0.027184,-0.033061,-0.084248
"2019-10-08 15:46:19.031 +0000",1570549579.030653,0.008616,0.366768,0.034348,0.008043,-0.358600,-0.933456,0.000000,0.000000,0.000000,-1,-0.050911,0.005987,0.065684,0.033415,-0.035947,-0.105224
"2019-10-08 15:46:19.051 +0000",1570549579.050741,0.005203,0.364986,0.036099,0.004860,-0.356936,-0.934116,0.000000,0.000000,0.000000,-1,-0.130505,-0.058699,0.035458,0.022621,-0.042006,-0.083660
"2019-10-08 15:46:19.071 +0000",1570549579.070832,0.004176,0.362778,0.037020,0.003904,-0.354873,-0.934907,0.000000,0.000000,0.000000,-1,-0.126621,0.038146,0.029111,0.023256,-0.063326,-0.062255
"2019-10-08 15:46:19.091 +0000",1570549579.090917,0.006853,0.362300,0.038163,0.006408,-0.354426,-0.935062,0.000000,0.000000,0.000000,-1,0.003314,0.160464,0.074560,0.041016,-0.080282,-0.081463
"2019-10-08 15:46:19.111 +0000",1570549579.111001,0.009611,0.364794,0.040814,0.008978,-0.356757,-0.934154,0.000000,0.000000,0.000000,-1,0.162094,0.181711,0.138532,0.054483,-0.090067,-0.127629
"2019-10-08 15:46:19.131 +0000",1570549579.131092,0.010986,0.369531,0.043743,0.010244,-0.361178,-0.932441,0.000000,0.000000,0.000000,-1,0.251006,0.098630,0.132700,0.044962,-0.103972,-0.161340
"2019-10-08 15:46:19.151 +0000",1570549579.151175,0.013498,0.375278,0.044524,0.012558,-0.366531,-0.930321,0.000000,0.000000,0.000000,-1,0.298772,0.172801,0.004241,0.018478,-0.112199,-0.138664
"2019-10-08 15:46:19.171 +0000",1570549579.171265,0.021712,0.382926,0.042751,0.020138,-0.373636,-0.927357,0.000000,0.000000,0.000000,-1,0.408023,0.457648,-0.090054,-0.027721,-0.178443,-0.106502
"2019-10-08 15:46:19.191 +0000",1570549579.191348,0.036211,0.392253,0.040702,0.033453,-0.382272,-0.923444,0.000000,0.000000,0.000000,-1,0.486730,0.746979,-0.080314,-0.041174,-0.181999,-0.153490
"2019-10-08 15:46:19.211 +0000",1570549579.211434,0.053802,0.403745,0.036545,0.049452,-0.392865,-0.918266,0.000000,0.000000,0.000000,-1,0.616582,0.795851,-0.203928,-0.081709,-0.134114,-0.259209
"2019-10-08 15:46:19.232 +0000",1570549579.231524,0.072843,0.419997,0.025230,0.066453,-0.407758,-0.910669,0.000000,0.000000,0.000000,-1,0.930765,0.706950,-0.567802,-0.177125,-0.069843,-0.316687
"2019-10-08 15:46:19.252 +0000",1570549579.251611,0.101529,0.444146,0.000836,0.091521,-0.429686,-0.898328,0.000000,0.000000,0.000000,-1,1.425309,1.019421,-1.144821,-0.253874,0.013762,-0.241747
"2019-10-08 15:46:19.272 +0000",1570549579.271694,0.153461,0.477131,-0.042007,0.135787,-0.459233,-0.877877,0.000000,0.000000,0.000000,-1,2.023609,1.870563,-1.878514,-0.333770,0.094150,-0.091728
"2019-10-08 15:46:19.292 +0000",1570549579.291785,0.239068,0.515685,-0.110775,0.206003,-0.493131,-0.845213,0.000000,0.000000,0.000000,-1,2.611367,2.872209,-2.831452,-0.395639,0.230816,0.019117
"2019-10-08 15:46:19.312 +0000",1570549579.311867,0.359514,0.551703,-0.210920,0.299621,-0.524139,-0.797186,0.000000,0.000000,0.000000,-1,3.097410,3.621570,-3.815180,-0.410430,0.404310,0.065345
"2019-10-08 15:46:19.332 +0000",1570549579.331954,0.513270,0.575497,-0.345169,0.411935,-0.544252,-0.730821,0.000000,0.000000,0.000000,-1,3.589006,4.226035,-4.897997,-0.448143,0.586060,0.145342
"2019-10-08 15:46:19.352 +0000",1570549579.352041,0.691984,0.577371,-0.510409,0.534636,-0.545823,-0.645168,0.000000,0.000000,0.000000,-1,4.124770,4.410139,-5.845882,-0.403455,0.655975,0.163693
"2019-10-08 15:46:19.372 +0000",1570549579.372127,0.871350,0.549380,-0.690984,0.652598,-0.522159,-0.549059,0.000000,0.000000,0.000000,-1,4.433855,3.972432,-6.522821,-0.315118,0.574938,0.097171
"2019-10-08 15:46:19.392 +0000",1570549579.392214,1.029561,0.484446,-0.865877,0.758452,-0.465718,-0.455913,0.000000,0.000000,0.000000,-1,4.215796,3.385261,-7.201056,-0.285092,0.551350,0.134809
"2019-10-08 15:46:19.412 +0000",1570549579.412300,1.148434,0.383802,-1.016337,0.845764,-0.374448,-0.380094,0.000000,0.000000,0.000000,-1,3.532463,2.516197,-7.666021,-0.195662,0.489377,0.092604
"2019-10-08 15:46:19.432 +0000",1570549579.432388,1.224892,0.265493,-1.132810,0.907808,-0.262385,-0.327168,0.000000,0.000000,0.000000,-1,2.687391,1.772804,-7.414502,-0.239975,0.278879,0.043570
"2019-10-08 15:46:19.452 +0000",1570549579.452474,1.273326,0.146921,-1.219970,0.945781,-0.146393,-0.289944,0.000000,0.000000,0.000000,-1,2.012487,1.445889,-6.776371,-0.246362,0.145553,0.097502
"2019-10-08 15:46:19.473 +0000",1570549579.472561,1.305169,0.034181,-1.286735,0.964364,-0.034174,-0.262362,0.000000,0.000000,0.000000,-1,1.496834,1.225269,-6.164861,-0.217002,0.062159,0.149204
"2019-10-08 15:46:19.493 +0000",1570549579.492649,1.327253,-0.068831,-1.340133,0.968192,0.068777,-0.240572,0.000000,0.000000,0.000000,-1,1.241950,1.137020,-5.429264,-0.146901,-0.011968,0.104114
"2019-10-08 15:46:19.513 +0000",1570549579.512740,1.342425,-0.164040,-1.386904,0.960961,0.163305,-0.223352,0.000000,0.000000,0.000000,-1,1.106247,0.961655,-5.062925,-0.186408,0.122355,0.075191
"2019-10-08 15:46:19.533 +0000",1570549579.532823,1.348779,-0.251222,-1.430662,0.944835,0.248588,-0.213286,0.000000,0.000000,0.000000,-1,1.130382,0.696946,-4.583434,-0.079111,0.076807,-0.013077
"2019-10-08 15:46:19.553 +0000",1570549579.552913,1.343063,-0.330204,-1.475587,0.921552,0.324236,-0.213573,0.000000,0.000000,0.000000,-1,1.237427,0.234193,-4.227230,-0.077678,0.062285,-0.052692
"2019-10-08 15:46:19.573 +0000",1570549579.572994,1.330400,-0.402213,-1.520170,0.893736,0.391456,-0.219087,0.000000,0.000000,0.000000,-1,1.153945,0.189399,-3.879636,-0.048458,0.051767,0.066226
"2019-10-08 15:46:19.593 +0000",1570549579.593082,1.321399,-0.468214,-1.561402,0.864767,0.451293,-0.220256,0.000000,0.000000,0.000000,-1,0.953552,0.500890,-3.563298,-0.004918,0.051546,0.138516
"2019-10-08 15:46:19.613 +0000",1570549579.613169,1.315928,-0.527584,-1.599678,0.836115,0.503447,-0.217837,0.000000,0.000000,0.000000,-1,0.884779,0.639844,-3.184805,0.102775,0.051989,0.062946
"2019-10-08 15:46:19.633 +0000",1570549579.633255,1.303083,-0.577391,-1.642574,0.808043,0.545840,-0.221644,0.000000,0.000000,0.000000,-1,1.206780,0.439611,-2.750771,0.222293,0.056426,-0.041813
"2019-10-08 15:46:19.653 +0000",1570549579.653343,1.281283,-0.617329,-1.691809,0.781492,0.578859,-0.232793,0.000000,0.000000,0.000000,-1,1.448617,0.272228,-2.373070,0.274463,0.070266,-0.027734
"2019-10-08 15:46:19.673 +0000",1570549579.673430,1.259049,-0.648616,-1.741880,0.758509,0.604084,-0.244433,0.000000,0.000000,0.000000,-1,1.450256,0.434735,-1.971667,0.328116,-0.014712,0.038273
"2019-10-08 15:46:19.694 +0000",1570549579.693516,1.239938,-0.674696,-1.786744,0.738544,0.624660,-0.253678,0.000000,0.000000,0.000000,-1,1.196524,0.380764,-1.716290,0.315579,0.068792,0.034731
"2019-10-08 15:46:19.714 +0000",1570549579.713602,1.218796,-0.699369,-1.822784,0.718327,0.643735,-0.263840,0.000000,0.000000,0.000000,-1,0.791480,-0.028989,-1.562273,0.351299,-0.000241,0.004655
"2019-10-08 15:46:19.734 +0000",1570549579.733690,1.198160,-0.718666,-1.846193,0.701028,0.658382,-0.274032,0.000000,0.000000,0.000000,-1,0.398999,-0.284428,-1.084081,0.344764,0.061040,0.018875
"2019-10-08 15:46:19.754 +0000",1570549579.753777,1.181808,-0.732055,-1.862945,0.688235,0.668400,-0.282089,0.000000,0.000000,0.000000,-1,0.336721,-0.279171,-0.795919,0.322385,0.100980,0.052338
"2019-10-08 15:46:19.774 +0000",1570549579.773863,1.170628,-0.742150,-1.881143,0.678790,0.675874,-0.287123,0.000000,0.000000,0.000000,-1,0.451800,0.159862,-0.691616,0.321776,0.158737,0.174651
"2019-10-08 15:46:19.794 +0000",1570549579.793950,1.165868,-0.748712,-1.897013,0.673324,0.680696,-0.288597,0.000000,0.000000,0.000000,-1,0.374828,0.331824,-0.463324,0.321672,0.118316,0.103417
"2019-10-08 15:46:19.814 +0000",1570549579.814037,1.163182,-0.751945,-1.906491,0.670522,0.683061,-0.289530,0.000000,0.000000,0.000000,-1,0.216524,0.103589,-0.231429,0.305827,0.063781,0.008251
"2019-10-08 15:46:19.834 +0000",1570549579.834126,1.157812,-0.751953,-1.911493,0.668953,0.683066,-0.293125,0.000000,0.000000,0.000000,-1,0.158765,-0.152839,-0.006786,0.242897,-0.006918,-0.047985
"2019-10-08 15:46:19.854 +0000",1570549579.854211,1.152007,-0.748164,-1.915031,0.669600,0.680294,-0.298053,0.000000,0.000000,0.000000,-1,0.210403,-0.156612,0.151964,0.139879,-0.074474,-0.016857
"2019-10-08 15:46:19.874 +0000",1570549579.874297,1.147465,-0.742406,-1.918355,0.671799,0.676063,-0.302696,0.000000,0.000000,0.000000,-1,0.226987,-0.088052,0.224610,0.053238,-0.108817,-0.015236
"2019-10-08 15:46:19.894 +0000",1570549579.894385,1.144494,-0.735951,-1.919607,0.674857,0.671292,-0.306489,0.000000,0.000000,0.000000,-1,0.153513,-0.122256,0.292235,0.011133,-0.147915,-0.080794
"2019-10-08 15:46:19.914 +0000",1570549579.914474,1.140930,-0.729301,-1.918808,0.677803,0.666349,-0.310745,0.000000,0.000000,0.000000,-1,0.104810,-0.228528,0.315016,0.011376,-0.135037,-0.140930
"2019-10-08 15:46:19.935 +0000",1570549579.934559,1.136178,-0.722438,-1.920944,0.680451,0.661216,-0.315881,0.000000,0.000000,0.000000,-1,0.259016,-0.124297,0.260089,0.008102,-0.040854,-0.172873
"2019-10-08 15:46:19.955 +0000",1570549579.954645,1.130701,-0.715439,-1.928363,0.682881,0.655949,-0.321567,0.000000,0.000000,0.000000,-1,0.449047,-0.010834,0.173612,-0.017643,0.026486,-0.179562
"2019-10-08 15:46:19.975 +0000",1570549579.974731,1.120235,-0.707460,-1.941268,0.684167,0.649906,-0.330965,0.000000,0.000000,0.000000,-1,0.583173,-0.111264,0.058643,-0.043115,0.061307,-0.169310
"2019-10-08 15:46:19.995 +0000",1570549579.994821,1.100895,-0.697020,-1.959837,0.683652,0.641935,-0.347187,0.000000,0.000000,0.000000,-1,0.705359,-0.262379,-0.006613,-0.093045,0.025210,-0.095684
"2019-10-08 15:46:20.015 +0000",1570549580.014905,1.084670,-0.692337,-1.979473,0.680579,0.638338,-0.359634,0.000000,0.000000,0.000000,-1,0.507067,0.122012,-0.274634,-0.187094,0.194792,0.088882
"2019-10-08 15:46:20.035 +0000",1570549580.034992,1.101782,-0.706457,-1.976120,0.678526,0.649143,-0.343827,0.000000,0.000000,0.000000,-1,-0.675168,0.780206,-0.649334,-0.110074,0.203732,0.640016
"2019-10-08 15:46:20.055 +0000",1570549580.055079,1.115121,-0.722636,-1.972639,0.673531,0.661364,-0.330080,0.000000,0.000000,0.000000,-1,-0.354978,0.483431,-0.633588,0.104561,0.087873,0.130938
"2019-10-08 15:46:20.075 +0000",1570549580.075165,1.116298,-0.731446,-1.975963,0.668658,0.667947,-0.326717,0.000000,0.000000,0.000000,-1,-0.019989,0.060648,-0.399648,0.113523,0.120003,-0.034382
"2019-10-08 15:46:20.095 +0000",1570549580.095253,1.109977,-0.738572,-1.977076,0.662300,0.673233,-0.328811,0.000000,0.000000,0.000000,-1,-0.164110,-0.384565,-0.314839,0.029061,0.049744,-0.013519
"2019-10-08 15:46:20.115 +0000",1570549580.115340,1.101856,-0.745042,-1.976678,0.655709,0.678002,-0.332204,0.000000,0.000000,0.000000,-1,-0.139304,-0.392689,-0.279183,-0.034797,0.017219,-0.076350
"2019-10-08 15:46:20.135 +0000",1570549580.135425,1.096864,-0.754050,-1.978690,0.648581,0.684597,-0.332672,0.000000,0.000000,0.000000,-1,-0.151408,-0.096648,-0.485135,-0.075399,0.040593,0.009064
"2019-10-08 15:46:20.156 +0000",1570549580.155513,1.095103,-0.764238,-1.984639,0.641760,0.691987,-0.330602,0.000000,0.000000,0.000000,-1,0.008722,0.187975,-0.507814,-0.031576,-0.092164,-0.002558
"2019-10-08 15:46:20.176 +0000",1570549580.175599,1.094351,-0.771513,-1.988928,0.637021,0.697221,-0.328767,0.000000,0.000000,0.000000,-1,-0.073573,0.071992,-0.352023,0.056156,-0.121338,-0.050352
"2019-10-08 15:46:20.196 +0000",1570549580.195689,1.091810,-0.778721,-1.988383,0.631707,0.702370,-0.328060,0.000000,0.000000,0.000000,-1,-0.265245,-0.137307,-0.289858,0.065224,-0.062843,-0.013721
"2019-10-08 15:46:20.216 +0000",1570549580.215773,1.089275,-0.787971,-1.986190,0.625089,0.708923,-0.326638,0.000000,0.000000,0.000000,-1,-0.293750,-0.157980,-0.272414,0.064716,-0.038955,0.044183
"2019-10-08 15:46:20.236 +0000",1570549580.235859,1.088130,-0.794909,-1.988577,0.620342,0.713800,-0.325062,0.000000,0.000000,0.000000,-1,-0.076735,0.144093,-0.394764,-0.003521,0.055640,0.092656
"2019-10-08 15:46:20.256 +0000",1570549580.255945,1.089939,-0.798613,-1.995854,0.618581,0.716389,-0.322714,0.000000,0.000000,0.000000,-1,-0.008405,0.427613,-0.625895,-0.057301,0.068203,0.049506
"2019-10-08 15:46:20.276 +0000",1570549580.276033,1.096809,-0.814407,-2.003685,0.610639,0.727319,-0.313253,0.000000,0.000000,0.000000,-1,-0.307910,0.605629,-1.247375,-0.217069,0.121818,-0.028269
"2019-10-08 15:46:20.296 +0000",1570549580.296121,1.101473,-0.844080,-2.010627,0.592579,0.747360,-0.300505,0.000000,0.000000,0.000000,-1,-0.459465,0.436918,-1.351026,-0.124149,-0.015060,-0.179826
"2019-10-08 15:46:20.316 +0000",1570549580.316207,1.110171,-0.862648,-2.008092,0.582637,0.759568,-0.289121,0.000000,0.000000,0.000000,-1,-0.527157,0.293607,-0.609439,0.193394,-0.157074,-0.009432
"2019-10-08 15:46:20.336 +0000",1570549580.336297,1.117618,-0.878608,-1.999025,0.573801,0.769852,-0.279430,0.000000,0.000000,0.000000,-1,-0.619068,-0.065845,-0.627826,0.263861,0.104630,0.020474
"2019-10-08 15:46:20.356 +0000",1570549580.356380,1.121218,-0.897472,-1.994830,0.561623,0.781753,-0.271003,0.000000,0.000000,0.000000,-1,-0.485171,0.070897,-0.835499,-0.004387,0.058900,0.110541
"2019-10-08 15:46:20.376 +0000",1570549580.376468,1.125593,-0.916475,-1.996277,0.549295,0.793461,-0.262098,0.000000,0.000000,0.000000,-1,-0.340911,0.323653,-0.880316,-0.128991,0.005612,0.001295
"2019-10-08 15:46:20.397 +0000",1570549580.396554,1.134004,-0.934191,-1.992414,0.538656,0.804119,-0.251481,0.000000,0.000000,0.000000,-1,-0.573103,0.203662,-0.713054,-0.004217,-0.032939,-0.024474
"2019-10-08 15:46:20.417 +0000",1570549580.416640,1.145460,-0.961001,-1.985340,0.521672,0.819765,-0.236312,0.000000,0.000000,0.000000,-1,-0.783734,0.373713,-1.381715,-0.152638,0.186445,0.145812
"2019-10-08 15:46:20.437 +0000",1570549580.436727,1.153176,-0.971590,-1.981464,0.515517,0.825783,-0.228746,0.000000,0.000000,0.000000,-1,-0.156248,0.039587,0.025379,0.180315,-0.404656,-0.123091
"2019-10-08 15:46:20.457 +0000",1570549580.456813,1.141593,-0.972399,-1.972763,0.512224,0.826240,-0.234423,0.000000,0.000000,0.000000,-1,-0.283397,-1.128232,-0.009859,0.217985,0.199639,-0.133527
"2019-10-08 15:46:20.477 +0000",1570549580.476899,1.117292,-0.978620,-1.971097,0.501747,0.829728,-0.244544,0.000000,0.000000,0.000000,-1,-0.147185,-1.129965,-0.281716,0.078759,0.085295,0.142157
"2019-10-08 15:46:20.497 +0000",1570549580.496985,1.095788,-0.986292,-1.974572,0.490697,0.833986,-0.252357,0.000000,0.000000,0.000000,-1,-0.070661,-0.868939,-0.391691,-0.058370,-0.006426,0.021720
"2019-10-08 15:46:20.517 +0000",1570549580.517073,1.078203,-0.991765,-1.976355,0.482155,0.836993,-0.258784,0.000000,0.000000,0.000000,-1,-0.098710,-0.801772,-0.228114,0.015999,-0.117267,0.012522
"2019-10-08 15:46:20.537 +0000",1570549580.537160,1.061486,-0.998373,-1.977040,0.472923,0.840591,-0.264106,0.000000,0.000000,0.000000,-1,-0.152581,-0.793977,-0.330693,-0.035423,0.010178,0.005316
"2019-10-08 15:46:20.557 +0000",1570549580.557252,1.047314,-1.005873,-1.978722,0.463659,0.844629,-0.267622,0.000000,0.000000,0.000000,-1,-0.140584,-0.565154,-0.346801,-0.009832,0.005758,0.026182
"2019-10-08 15:46:20.577 +0000",1570549580.577333,1.036866,-1.013867,-1.983381,0.455011,0.848882,-0.269006,0.000000,0.000000,0.000000,-1,-0.086093,-0.246649,-0.426952,0.032751,0.054316,0.008615
"2019-10-08 15:46:20.597 +0000",1570549580.597420,1.029386,-1.024855,-1.987864,0.444965,0.854639,-0.267579,0.000000,0.000000,0.000000,-1,-0.221009,-0.166944,-0.554476,0.026043,0.045492,-0.033980
"2019-10-08 15:46:20.618 +0000",1570549580.617507,1.024888,-1.038467,-1.988043,0.433774,0.861627,-0.263513,0.000000,0.000000,0.000000,-1,-0.384614,-0.245288,-0.633066,0.009143,0.047140,-0.036811
"2019-10-08 15:46:20.638 +0000",1570549580.637594,1.022371,-1.053570,-1.987259,0.421956,0.869194,-0.257790,0.000000,0.000000,0.000000,-1,-0.385081,-0.149004,-0.672430,-0.007893,0.063972,0.009224
"2019-10-08 15:46:20.658 +0000",1570549580.657682,1.022293,-1.068380,-1.986418,0.410905,0.876422,-0.251083,0.000000,0.000000,0.000000,-1,-0.388464,-0.032307,-0.680382,0.013228,0.011365,0.008681
"2019-10-08 15:46:20.678 +0000",1570549580.677767,1.025363,-1.083319,-1.984461,0.400436,0.883517,-0.243000,0.000000,0.000000,0.000000,-1,-0.495409,0.093521,-0.676628,-0.006027,-0.005206,-0.017178
"2019-10-08 15:46:20.698 +0000",1570549580.697854,1.033688,-1.098665,-1.978183,0.390748,0.890601,-0.232692,0.000000,0.000000,0.000000,-1,-0.603804,0.167596,-0.599287,0.014647,-0.039741,-0.003239
"2019-10-08 15:46:20.718 +0000",1570549580.717940,1.041906,-1.115666,-1.971015,0.379519,0.898204,-0.221801,0.000000,0.000000,0.000000,-1,-0.581352,0.084539,-0.696889,0.008299,0.040791,0.017089
"2019-10-08 15:46:20.738 +0000",1570549580.738027,1.042944,-1.130192,-1.974243,0.368438,0.904494,-0.214813,0.000000,0.000000,0.000000,-1,-0.228044,0.264240,-0.678066,-0.023528,-0.022734,0.120757
"2019-10-08 15:46:20.758 +0000",1570549580.758114,1.032728,-1.142215,-1.993494,0.356860,0.909556,-0.212976,0.000000,0.000000,0.000000,-1,0.073041,0.391475,-0.793026,-0.014452,-0.011623,0.067163
"2019-10-08 15:46:20.778 +0000",1570549580.778201,1.020256,-1.155370,-2.014785,0.343948,0.914944,-0.211132,0.000000,0.000000,0.000000,-1,-0.029143,0.304413,-0.856194,0.049591,-0.076108,-0.043629
"2019-10-08 15:46:20.798 +0000",1570549580.798287,1.013004,-1.174706,-2.027512,0.327335,0.922576,-0.204218,0.000000,0.000000,0.000000,-1,-0.376171,0.200788,-1.048247,0.049023,-0.026565,-0.070181
"2019-10-08 15:46:20.818 +0000",1570549580.818374,1.008466,-1.202377,-2.035172,0.304685,0.932898,-0.192013,0.000000,0.000000,0.000000,-1,-0.586329,0.071310,-1.357404,0.047900,0.017938,-0.030567
"2019-10-08 15:46:20.838 +0000",1570549580.838461,0.994638,-1.232321,-2.052338,0.278444,0.943262,-0.180903,0.000000,0.000000,0.000000,-1,-0.475316,0.103528,-1.466614,0.009916,-0.022196,0.031687
"2019-10-08 15:46:20.859 +0000",1570549580.858547,0.972412,-1.259740,-2.076604,0.252885,0.952011,-0.172409,0.000000,0.000000,0.000000,-1,-0.425364,0.006062,-1.307917,0.042342,-0.057525,0.011444
"2019-10-08 15:46:20.879 +0000",1570549580.878633,0.952287,-1.283211,-2.096705,0.231092,0.958932,-0.164459,0.000000,0.000000,0.000000,-1,-0.432092,-0.040364,-1.054131,0.085405,-0.032998,-0.011170
"2019-10-08 15:46:20.899 +0000",1570549580.898721,0.936850,-1.298466,-2.114112,0.216714,0.963147,-0.159323,0.000000,0.000000,0.000000,-1,-0.180834,0.044898,-0.727142,0.023948,0.086261,0.047384
"2019-10-08 15:46:20.919 +0000",1570549580.918807,0.908842,-1.304308,-2.142343,0.207725,0.964702,-0.161868,0.000000,0.000000,0.000000,-1,0.228741,-0.074476,-0.356005,-0.048515,0.008000,0.072406
"2019-10-08 15:46:20.939 +0000",1570549580.938895,0.872890,-1.300493,-2.178098,0.204592,0.963690,-0.171594,0.000000,0.000000,0.000000,-1,0.557712,-0.068647,-0.088584,-0.029009,0.004999,0.090692
"2019-10-08 15:46:20.959 +0000",1570549580.958983,0.843434,-1.295398,-2.210302,0.203113,0.962317,-0.180807,0.000000,0.000000,0.000000,-1,0.448692,0.110574,-0.093230,0.018536,0.067498,-0.009302
"2019-10-08 15:46:20.979 +0000",1570549580.979069,0.833749,-1.295960,-2.225412,0.200952,0.962470,-0.182402,0.000000,0.000000,0.000000,-1,0.016535,0.295443,-0.185495,0.020346,0.053140,-0.085924
"2019-10-08 15:46:20.999 +0000",1570549580.999156,0.847462,-1.305235,-2.219765,0.196734,0.964945,-0.173713,0.000000,0.000000,0.000000,-1,-0.496250,0.498875,-0.344854,-0.011309,0.042348,-0.095696
"2019-10-08 15:46:21.019 +0000",1570549581.019242,0.879693,-1.317188,-2.195426,0.193329,0.968013,-0.159920,0.000000,0.000000,0.000000,-1,-0.669318,0.437689,-0.244465,0.055924,-0.009090,-0.073677
"2019-10-08 15:46:21.039 +0000",1570549581.039329,0.925438,-1.328900,-2.158252,0.191368,0.970886,-0.144082,0.000000,0.000000,0.000000,-1,-0.688001,0.514037,-0.177128,-0.000878,0.061371,0.012337
"2019-10-08 15:46:21.059 +0000",1570549581.059415,0.965920,-1.338139,-2.126632,0.189657,0.973057,-0.131113,0.000000,0.000000,0.000000,-1,-0.693660,0.535464,-0.171176,0.006419,0.082683,0.003839
"2019-10-08 15:46:21.080 +0000",1570549581.079502,1.003004,-1.344062,-2.095831,0.189525,0.974406,-0.120890,0.000000,0.000000,0.000000,-1,-0.583339,0.365503,0.025124,-0.001537,0.024388,0.016748
"2019-10-08 15:46:21.100 +0000",1570549581.099588,1.037709,-1.342606,-2.061539,0.194827,0.974077,-0.114962,0.000000,0.000000,0.000000,-1,-0.361640,-0.017824,0.289478,-0.041583,-0.040850,0.062456
"2019-10-08 15:46:21.120 +0000",1570549581.119674,1.064297,-1.338354,-2.032188,0.201434,0.973107,-0.111750,0.000000,0.000000,0.000000,-1,-0.159276,-0.124534,0.361500,-0.058383,0.054893,0.063074
"2019-10-08 15:46:21.140 +0000",1570549581.139761,1.080669,-1.335894,-2.013288,0.205348,0.972537,-0.109564,0.000000,0.000000,0.000000,-1,-0.139783,-0.075385,0.186539,-0.035670,0.095791,0.020986
"2019-10-08 15:46:21.160 +0000",1570549581.159850,1.088022,-1.337825,-2.003637,0.204484,0.972985,-0.107179,0.000000,0.000000,0.000000,-1,-0.146197,-0.135985,-0.049534,-0.006608,0.029212,-0.011658
"2019-10-08 15:46:21.180 +0000",1570549581.179936,1.088247,-1.338955,-1.997417,0.203534,0.973245,-0.106623,0.000000,0.000000,0.000000,-1,-0.017144,-0.337863,0.073172,-0.004041,-0.134409,0.047509
"2019-10-08 15:46:21.200 +0000",1570549581.200022,1.085572,-1.337844,-1.993602,0.204205,0.972989,-0.107671,0.000000,0.000000,0.000000,-1,0.086542,-0.288875,0.178136,-0.019863,-0.029401,0.048847
"2019-10-08 15:46:21.220 +0000",1570549581.220110,1.081795,-1.336912,-1.993449,0.204597,0.972773,-0.108867,0.000000,0.000000,0.000000,-1,0.043077,-0.174575,0.086195,-0.009560,0.060597,-0.032002
"2019-10-08 15:46:21.240 +0000",1570549581.240196,1.082933,-1.337689,-1.987507,0.204053,0.972953,-0.108280,0.000000,0.000000,0.000000,-1,-0.127318,-0.256607,0.009895,-0.009091,-0.017540,-0.070248
"2019-10-08 15:46:21.260 +0000",1570549581.260283,1.086456,-1.339102,-1.977997,0.203216,0.973279,-0.106920,0.000000,0.000000,0.000000,-1,-0.078847,-0.307751,-0.071203,-0.009964,-0.052381,0.047395
"2019-10-08 15:46:21.280 +0000",1570549581.280369,1.074014,-1.343311,-1.985539,0.198266,0.974237,-0.107487,0.000000,0.000000,0.000000,-1,0.094216,-0.263468,-0.286944,0.050818,0.024878,0.071292
"2019-10-08 15:46:21.300 +0000",1570549581.300455,1.044271,-1.348125,-2.012635,0.190926,0.975311,-0.110977,0.000000,0.000000,0.000000,-1,0.135952,-0.124000,-0.342691,0.058052,0.011917,0.018432
"2019-10-08 15:46:21.321 +0000",1570549581.320543,1.029159,-1.351490,-2.025708,0.186414,0.976049,-0.112157,0.000000,0.000000,0.000000,-1,-0.105576,-0.118149,-0.173185,0.028933,-0.072927,-0.063182
"2019-10-08 15:46:21.341 +0000",1570549581.340629,1.048721,-1.354695,-2.002536,0.185860,0.976741,-0.106929,0.000000,0.000000,0.000000,-1,-0.333555,-0.181154,0.000496,-0.033272,-0.057537,-0.061910
"2019-10-08 15:46:21.361 +0000",1570549581.360716,1.089425,-1.356878,-1.961414,0.188166,0.977207,-0.098290,0.000000,0.000000,0.000000,-1,-0.346997,0.066262,0.032793,-0.001963,0.049541,0.038246
"2019-10-08 15:46:21.381 +0000",1570549581.380803,1.128102,-1.362138,-1.927134,0.187179,0.978310,-0.088737,0.000000,0.000000,0.000000,-1,-0.416493,0.296840,-0.225360,0.025376,0.169929,0.003516
"2019-10-08 15:46:21.401 +0000",1570549581.400891,1.166021,-1.370497,-1.897991,0.182886,0.980007,-0.078354,0.000000,0.000000,0.000000,-1,-0.531516,0.520744,-0.305567,0.016318,0.067524,-0.006927
"2019-10-08 15:46:21.421 +0000",1570549581.420978,1.212522,-1.378642,-1.860524,0.178848,0.981595,-0.066967,0.000000,0.000000,0.000000,-1,-0.613209,0.465789,-0.198214,0.016358,-0.037763,0.009273
"2019-10-08 15:46:21.441 +0000",1570549581.441063,1.252172,-1.381104,-1.824858,0.179067,0.982062,-0.059067,0.000000,0.000000,0.000000,-1,-0.243582,0.155570,0.102084,-0.015264,-0.007774,0.054413
"2019-10-08 15:46:21.461 +0000",1570549581.461151,1.244902,-1.378242,-1.834564,0.181294,0.981519,-0.061267,0.000000,0.000000,0.000000,-1,0.214342,0.085624,0.097783,-0.053563,0.109683,0.153521
"2019-10-08 15:46:21.481 +0000",1570549581.481236,1.226266,-1.375934,-1.853166,0.182254,0.981074,-0.065400,0.000000,0.000000,0.000000,-1,0.164496,-0.065144,0.036420,-0.058261,0.070561,-0.062500
"2019-10-08 15:46:21.501 +0000",1570549581.501324,1.206756,-1.373437,-1.871438,0.183232,0.980588,-0.069815,0.000000,0.000000,0.000000,-1,0.240440,-0.047170,0.065487,-0.003376,-0.076109,0.068517
"2019-10-08 15:46:21.521 +0000",1570549581.521410,1.198222,-1.369582,-1.881901,0.186149,0.979825,-0.072752,0.000000,0.000000,0.000000,-1,0.165333,0.113507,0.158802,-0.013496,0.028139,0.016034
"2019-10-08 15:46:21.541 +0000",1570549581.541497,1.201322,-1.366496,-1.881640,0.189192,0.979203,-0.073266,0.000000,0.000000,0.000000,-1,0.166503,0.116436,0.183592,0.014650,0.045668,0.007393
"2019-10-08 15:46:21.562 +0000",1570549581.561584,1.190600,-1.365582,-1.896811,0.189226,0.979017,-0.075623,0.000000,0.000000,0.000000,-1,0.152212,0.271505,0.036421,0.038999,0.003220,0.027190
"2019-10-08 15:46:21.582 +0000",1570549581.581670,1.205431,-1.366140,-1.890421,0.189816,0.979131,-0.072612,0.000000,0.000000,0.000000,-1,-0.126976,0.457823,-0.003671,0.023349,-0.021766,-0.048239
"2019-10-08 15:46:21.602 +0000",1570549581.601758,1.245852,-1.367784,-1.857592,0.191071,0.979464,-0.064369,0.000000,0.000000,0.000000,-1,-0.331788,0.357602,0.069361,0.001281,-0.036106,-0.108682
"2019-10-08 15:46:21.622 +0000",1570549581.621844,1.246411,-1.365949,-1.857639,0.192809,0.979092,-0.064835,0.000000,0.000000,0.000000,-1,0.227365,-0.081760,0.094749,-0.014342,-0.038191,0.097105
"2019-10-08 15:46:21.642 +0000",1570549581.641932,1.179589,-1.358737,-1.923016,0.194572,0.977600,-0.080255,0.000000,0.000000,0.000000,-1,0.903260,-0.155851,0.049558,0.007301,-0.011460,0.246147
"2019-10-08 15:46:21.662 +0000",1570549581.662016,1.092246,-1.353588,-2.013307,0.191296,0.976503,-0.099238,0.000000,0.000000,0.000000,-1,0.929512,0.114626,-0.275665,0.062290,0.073971,0.056802
"2019-10-08 15:46:21.682 +0000",1570549581.682103,1.018539,-1.356058,-2.091679,0.181415,0.977032,-0.111791,0.000000,0.000000,0.000000,-1,0.582775,0.130334,-0.584822,0.043377,0.058962,-0.143414
"2019-10-08 15:46:21.702 +0000",1570549581.702189,0.951577,-1.358995,-2.160798,0.171191,0.977654,-0.122013,0.000000,0.000000,0.000000,-1,0.526213,-0.008485,-0.483725,-0.001300,-0.021311,-0.038633
"2019-10-08 15:46:21.722 +0000",1570549581.722276,0.890297,-1.356215,-2.222517,0.165509,0.977066,-0.133977,0.000000,0.000000,0.000000,-1,0.631108,-0.037511,-0.216520,-0.017682,-0.039872,0.077366
"2019-10-08 15:46:21.742 +0000",1570549581.742364,0.847920,-1.351326,-2.269078,0.163264,0.976013,-0.144026,0.000000,0.000000,0.000000,-1,0.499259,0.217536,-0.140532,-0.033412,0.002470,0.010114
"2019-10-08 15:46:21.762 +0000",1570549581.762450,0.840357,-1.351537,-2.283548,0.162016,0.976059,-0.145119,0.000000,0.000000,0.000000,-1,-0.041339,0.325267,-0.114495,0.033601,-0.013064,-0.117868
"2019-10-08 15:46:21.783 +0000",1570549581.782537,0.837554,-1.355543,-2.290445,0.158704,0.976922,-0.142956,0.000000,0.000000,0.000000,-1,-0.046720,0.158888,-0.219807,-0.025540,0.012578,-0.063039
"2019-10-08 15:46:21.803 +0000",1570549581.802624,0.800819,-1.355766,-2.330000,0.153189,0.976970,-0.148536,0.000000,0.000000,0.000000,-1,0.400010,0.092045,-0.315530,-0.031546,0.027026,0.162877
"2019-10-08 15:46:21.823 +0000",1570549581.822711,0.754729,-1.355353,-2.381972,0.146459,0.976882,-0.155730,0.000000,0.000000,0.000000,-1,0.405512,0.266733,-0.403523,-0.014654,0.042907,0.050855
"2019-10-08 15:46:21.843 +0000",1570549581.842798,0.741152,-1.359472,-2.403591,0.141613,0.977754,-0.154734,0.000000,0.000000,0.000000,-1,-0.194747,0.389865,-0.268873,0.043842,-0.001545,-0.097785
"2019-10-08 15:46:21.863 +0000",1570549581.862885,0.755848,-1.367473,-2.394396,0.138502,0.979401,-0.146939,0.000000,0.000000,0.000000,-1,-0.437163,0.233547,-0.174034,0.013368,0.032347,-0.106678
"2019-10-08 15:46:21.883 +0000",1570549581.882972,0.764816,-1.373355,-2.385905,0.135823,0.980572,-0.141533,0.000000,0.000000,0.000000,-1,-0.107523,-0.033640,-0.139200,-0.051915,0.012011,0.062704
"2019-10-08 15:46:21.903 +0000",1570549581.903058,0.729128,-1.373412,-2.420860,0.130649,0.980583,-0.146247,0.000000,0.000000,0.000000,-1,0.350685,-0.064550,-0.310075,-0.093525,0.074606,0.158223
"2019-10-08 15:46:21.923 +0000",1570549581.923145,0.677735,-1.371591,-2.472693,0.124084,0.980224,-0.154157,0.000000,0.000000,0.000000,-1,0.376277,-0.037064,-0.321058,-0.021606,0.032348,0.041851
"2019-10-08 15:46:21.943 +0000",1570549581.943232,0.644447,-1.369212,-2.504828,0.120285,0.979751,-0.160064,0.000000,0.000000,0.000000,-1,0.269826,-0.106486,-0.137349,0.023178,-0.086640,-0.026933
"2019-10-08 15:46:21.963 +0000",1570549581.963318,0.637409,-1.364608,-2.510237,0.121839,0.978818,-0.164531,0.000000,0.000000,0.000000,-1,0.235671,-0.068381,0.145690,0.023547,-0.155776,-0.010641
"2019-10-08 15:46:21.983 +0000",1570549581.983404,0.652196,-1.362076,-2.495571,0.125762,0.978297,-0.164680,0.000000,0.000000,0.000000,-1,0.043119,0.032284,0.225533,0.056382,-0.020779,-0.065088
"2019-10-08 15:46:22.003 +0000",1570549582.003491,0.677993,-1.362390,-2.469079,0.129775,0.978362,-0.161142,0.000000,0.000000,0.000000,-1,-0.188688,-0.027995,0.253112,0.010346,-0.033997,-0.074180
"2019-10-08 15:46:22.024 +0000",1570549582.023577,0.725370,-1.361686,-2.420642,0.137718,0.978216,-0.155330,0.000000,0.000000,0.000000,-1,-0.348998,0.029861,0.445352,-0.007530,-0.087547,0.020014
"2019-10-08 15:46:22.044 +0000",1570549582.043664,0.783695,-1.360358,-2.362222,0.147455,0.977940,-0.147958,0.000000,0.000000,0.000000,-1,-0.425691,0.078612,0.467255,0.043326,0.088191,-0.042031
"2019-10-08 15:46:22.064 +0000",1570549582.063752,0.840038,-1.361770,-2.306800,0.154524,0.978234,-0.138497,0.000000,0.000000,0.000000,-1,-0.520411,0.102832,0.282861,0.083955,0.161993,-0.037590
"2019-10-08 15:46:22.084 +0000",1570549582.083838,0.893474,-1.365140,-2.252428,0.159131,0.978927,-0.127980,0.000000,0.000000,0.000000,-1,-0.611427,-0.042434,0.257523,0.061480,0.029754,-0.051739
"2019-10-08 15:46:22.104 +0000",1570549582.103925,0.956549,-1.364591,-2.185726,0.167321,0.978815,-0.118005,0.000000,0.000000,0.000000,-1,-0.460818,-0.088972,0.489551,-0.039499,-0.118724,0.067528
"2019-10-08 15:46:22.124 +0000",1570549582.124012,1.005746,-1.358493,-2.137017,0.177960,0.977548,-0.112828,0.000000,0.000000,0.000000,-1,-0.221512,0.138012,0.520186,0.019259,0.082967,0.098819
"2019-10-08 15:46:22.144 +0000",1570549582.144099,1.046900,-1.355441,-2.100354,0.185034,0.976900,-0.106903,0.000000,0.000000,0.000000,-1,-0.309131,0.297346,0.266642,0.098154,0.175625,-0.032930
"2019-10-08 15:46:22.164 +0000",1570549582.164186,1.098041,-1.357421,-2.053809,0.188534,0.977322,-0.096423,0.000000,0.000000,0.000000,-1,-0.539366,0.272279,0.131511,0.030826,0.030794,-0.059645
"2019-10-08 15:46:22.184 +0000",1570549582.184273,1.143233,-1.359250,-2.009967,0.191071,0.977707,-0.087066,0.000000,0.000000,0.000000,-1,-0.394719,0.071596,0.128117,-0.037202,-0.082719,0.020003
"2019-10-08 15:46:22.204 +0000",1570549582.204365,1.154090,-1.358283,-1.998046,0.192869,0.977504,-0.085369,0.000000,0.000000,0.000000,-1,-0.010970,-0.070423,0.085755,-0.010664,-0.082470,0.116893
"2019-10-08 15:46:22.224 +0000",1570549582.224446,1.147211,-1.358269,-2.002992,0.192290,0.977501,-0.086700,0.000000,0.000000,0.000000,-1,0.029021,-0.119658,-0.083550,0.003632,0.003044,0.034392
"2019-10-08 15:46:22.245 +0000",1570549582.244533,1.140543,-1.363164,-2.009978,0.187356,0.978522,-0.085983,0.000000,0.000000,0.000000,-1,-0.066389,0.110136,-0.284561,0.029090,0.040688,-0.018510
"2019-10-08 15:46:22.265 +0000",1570549582.264621,1.122231,-1.369465,-2.034044,0.180190,0.979801,-0.086723,0.000000,0.000000,0.000000,-1,0.133478,0.287702,-0.426465,0.105500,0.015620,0.072242
"2019-10-08 15:46:22.285 +0000",1570549582.284705,1.090256,-1.375790,-2.070357,0.171827,0.981047,-0.089573,0.000000,0.000000,0.000000,-1,0.241955,0.113247,-0.401009,0.077593,-0.055113,0.016727
"2019-10-08 15:46:22.305 +0000",1570549582.304792,1.051535,-1.379710,-2.113941,0.164891,0.981799,-0.094249,0.000000,0.000000,0.000000,-1,0.322973,0.223468,-0.354781,-0.053929,-0.084628,0.073313
"2019-10-08 15:46:22.325 +0000",1570549582.324879,0.995065,-1.379683,-2.179848,0.159331,0.981793,-0.103419,0.000000,0.000000,0.000000,-1,0.627698,0.451481,-0.370365,-0.050429,0.135836,0.040766
"2019-10-08 15:46:22.345 +0000",1570549582.344965,0.918157,-1.376896,-2.264849,0.153087,0.981260,-0.117016,0.000000,0.000000,0.000000,-1,0.827570,0.236799,-0.418988,-0.013652,0.101213,-0.001331
"2019-10-08 15:46:22.365 +0000",1570549582.365053,0.854655,-1.371323,-2.327670,0.149476,0.980171,-0.130084,0.000000,0.000000,0.000000,-1,0.655976,-0.189901,-0.180561,-0.038667,-0.047371,-0.054960
"2019-10-08 15:46:22.385 +0000",1570549582.385139,0.807884,-1.365134,-2.371305,0.147613,0.978926,-0.141119,0.000000,0.000000,0.000000,-1,0.566227,-0.198541,-0.052633,-0.018691,0.006425,0.008032
"2019-10-08 15:46:22.405 +0000",1570549582.405226,0.782059,-1.362587,-2.393043,0.145676,0.978403,-0.146653,0.000000,0.000000,0.000000,-1,0.204748,-0.237061,-0.038676,0.023773,0.104941,-0.116226
"2019-10-08 15:46:22.425 +0000",1570549582.425312,0.766142,-1.365287,-2.402753,0.141491,0.978957,-0.147048,0.000000,0.000000,0.000000,-1,-0.049547,-0.358586,-0.184281,0.027378,0.116608,-0.086274
"2019-10-08 15:46:22.445 +0000",1570549582.445400,0.741262,-1.368745,-2.415222,0.135503,0.979657,-0.148025,0.000000,0.000000,0.000000,-1,-0.036291,-0.715676,-0.190466,-0.039220,0.026980,-0.031251
"2019-10-08 15:46:22.465 +0000",1570549582.465487,0.729993,-1.363137,-2.415309,0.137488,0.978516,-0.153634,0.000000,0.000000,0.000000,-1,0.262259,-0.498291,0.280111,-0.100714,-0.104462,0.093285
"2019-10-08 15:46:22.486 +0000",1570549582.485574,0.744790,-1.358241,-2.392143,0.142992,0.977495,-0.155104,0.000000,0.000000,0.000000,-1,-0.117627,-0.338637,0.332343,-0.026965,0.049010,-0.087800
"2019-10-08 15:46:22.506 +0000",1570549582.505664,0.776989,-1.360961,-2.355239,0.146046,0.978065,-0.148523,0.000000,0.000000,0.000000,-1,-0.466797,-0.150587,0.123822,0.007122,0.119271,-0.090124
"2019-10-08 15:46:22.526 +0000",1570549582.525746,0.784948,-1.365948,-2.340086,0.143774,0.979092,-0.143904,0.000000,0.000000,0.000000,-1,-0.203649,-0.414093,-0.101712,0.006738,0.012226,0.049589
"2019-10-08 15:46:22.546 +0000",1570549582.545834,0.771784,-1.364591,-2.343130,0.142794,0.978815,-0.146736,0.000000,0.000000,0.000000,-1,0.166672,-0.506137,0.132520,-0.023745,-0.130136,0.108528
"2019-10-08 15:46:22.566 +0000",1570549582.565920,0.785685,-1.358742,-2.320794,0.148867,0.977601,-0.148782,0.000000,0.000000,0.000000,-1,-0.056806,-0.344938,0.465207,0.052045,-0.065842,-0.057349
"2019-10-08 15:46:22.586 +0000",1570549582.586007,0.832142,-1.356670,-2.271338,0.157113,0.977162,-0.143071,0.000000,0.000000,0.000000,-1,-0.432958,0.011812,0.450566,0.102088,0.128108,-0.099010
"2019-10-08 15:46:22.606 +0000",1570549582.606094,0.885389,-1.357823,-2.219693,0.163633,0.977407,-0.133793,0.000000,0.000000,0.000000,-1,-0.416785,0.162353,0.272761,0.146258,0.111659,-0.003841
"2019-10-08 15:46:22.626 +0000",1570549582.626180,0.925652,-1.357151,-2.182861,0.169411,0.977264,-0.127494,0.000000,0.000000,0.000000,-1,-0.191005,0.229835,0.278629,0.046302,-0.053665,0.087287
"2019-10-08 15:46:22.646 +0000",1570549582.646267,0.951921,-1.354224,-2.163510,0.175030,0.976640,-0.124658,0.000000,0.000000,0.000000,-1,-0.075377,0.422679,0.208554,0.040317,-0.032640,0.072213
"2019-10-08 15:46:22.666 +0000",1570549582.666354,0.983946,-1.352310,-2.140401,0.180488,0.976227,-0.120025,0.000000,0.000000,0.000000,-1,-0.264559,0.470681,0.215293,0.022744,-0.028900,-0.049134
"2019-10-08 15:46:22.686 +0000",1570549582.686440,1.036385,-1.348407,-2.089554,0.189808,0.975373,-0.112339,0.000000,0.000000,0.000000,-1,-0.364737,0.032534,0.460379,-0.003926,-0.003388,-0.079631
"2019-10-08 15:46:22.707 +0000",1570549582.706527,1.093900,-1.341454,-2.028336,0.201972,0.973816,-0.104353,0.000000,0.000000,0.000000,-1,-0.431139,-0.156068,0.641843,-0.130301,0.010208,-0.068194
"2019-10-08 15:46:22.727 +0000",1570549582.726613,1.163297,-1.337428,-1.953539,0.212320,0.972893,-0.091650,0.000000,0.000000,0.000000,-1,-0.745071,-0.181280,0.486292,-0.055277,-0.010186,-0.081476
"2019-10-08 15:46:22.747 +0000",1570549582.746701,1.235808,-1.335136,-1.876784,0.220507,0.972360,-0.076760,0.000000,0.000000,0.000000,-1,-0.804736,-0.037856,0.431388,-0.032976,-0.104273,0.026238
"2019-10-08 15:46:22.767 +0000",1570549582.766789,1.283599,-1.331033,-1.828227,0.227746,0.971394,-0.067268,0.000000,0.000000,0.000000,-1,-0.453089,0.031995,0.343656,0.062842,0.051097,0.126563
"2019-10-08 15:46:22.787 +0000",1570549582.786880,1.294239,-1.330015,-1.816017,0.229401,0.971152,-0.065111,0.000000,0.000000,0.000000,-1,-0.075536,-0.070076,0.079747,0.080780,0.134499,0.075029
"2019-10-08 15:46:22.807 +0000",1570549582.806962,1.295106,-1.330563,-1.818092,0.228945,0.971283,-0.064767,0.000000,0.000000,0.000000,-1,-0.034965,0.235981,-0.036214,0.059187,-0.011337,0.049828
"2019-10-08 15:46:22.827 +0000",1570549582.827049,1.316890,-1.335902,-1.802951,0.225279,0.972539,-0.058461,0.000000,0.000000,0.000000,-1,-0.335352,0.394084,-0.241727,0.071596,-0.097524,-0.051280
"2019-10-08 15:46:22.847 +0000",1570549582.847134,1.349816,-1.343306,-1.775985,0.220050,0.974236,-0.049434,0.000000,0.000000,0.000000,-1,-0.307967,0.270419,-0.322049,0.068631,-0.122491,0.036509
"2019-10-08 15:46:22.867 +0000",1570549582.867221,1.357469,-1.347246,-1.780562,0.216668,0.975117,-0.046935,0.000000,0.000000,0.000000,-1,0.192912,0.878723,-0.106147,0.008307,0.016124,0.240233
"2019-10-08 15:46:22.887 +0000",1570549582.887308,1.354049,-1.346838,-1.808544,0.216895,0.975026,-0.047762,0.000000,0.000000,0.000000,-1,0.229950,1.162679,-0.098108,0.078561,-0.022909,0.008882
"2019-10-08 15:46:22.907 +0000",1570549582.907395,1.392728,-1.347435,-1.783053,0.218006,0.975158,-0.039236,0.000000,0.000000,0.000000,-1,-0.397995,0.612247,0.152658,-0.242497,0.014358,-0.179866
"2019-10-08 15:46:22.927 +0000",1570549582.927482,1.432173,-1.339562,-1.747180,0.226982,0.973384,-0.031668,0.000000,0.000000,0.000000,-1,-0.262244,0.006921,0.391564,-0.001914,0.133091,0.019034
"2019-10-08 15:46:22.948 +0000",1570549582.947568,1.421952,-1.337455,-1.758886,0.228674,0.972899,-0.034290,0.000000,0.000000,0.000000,-1,0.252405,0.067471,0.068340,-0.016180,0.174424,0.207630
"2019-10-08 15:46:22.968 +0000",1570549582.967654,1.418645,-1.339631,-1.772081,0.226465,0.973400,-0.034725,0.000000,0.000000,0.000000,-1,0.005591,0.545492,-0.184382,0.068182,-0.045559,-0.034992
"2019-10-08 15:46:22.988 +0000",1570549582.987741,1.462970,-1.338603,-1.739808,0.228776,0.973164,-0.024764,0.000000,0.000000,0.000000,-1,-0.447835,0.633927,0.188549,0.065795,-0.009877,-0.170747
"2019-10-08 15:46:23.008 +0000",1570549583.007829,1.508579,-1.341037,-1.702747,0.227303,0.973721,-0.014161,0.000000,0.000000,0.000000,-1,-0.395022,0.454185,-0.098567,0.092521,0.169513,-0.013061
"2019-10-08 15:46:23.028 +0000",1570549583.027915,1.530301,-1.341229,-1.690951,0.227370,0.973765,-0.009212,0.000000,0.000000,0.000000,-1,-0.032287,0.532041,-0.013516,0.002534,0.044179,0.132290
"2019-10-08 15:46:23.048 +0000",1570549583.048002,1.528992,-1.339514,-1.704530,0.229026,0.973373,-0.009580,0.000000,0.000000,0.000000,-1,0.213072,0.592140,0.092824,-0.063789,-0.093063,0.088498
"2019-10-08 15:46:23.068 +0000",1570549583.068089,1.536783,-1.334331,-1.712739,0.234132,0.972172,-0.007967,0.000000,0.000000,0.000000,-1,0.029419,0.896364,0.398707,-0.090226,-0.082722,-0.015776
"2019-10-08 15:46:23.088 +0000",1570549583.088175,1.559053,-1.323612,-1.705289,0.244658,0.969605,-0.002873,0.000000,0.000000,0.000000,-1,-0.088289,0.664266,0.503806,-0.081923,0.024307,-0.064021
"2019-10-08 15:46:23.108 +0000",1570549583.108261,1.558858,-1.317796,-1.715846,0.250293,0.968166,-0.002988,0.000000,0.000000,0.000000,-1,0.227446,0.443113,0.217271,-0.000232,0.201375,0.048261
"2019-10-08 15:46:23.128 +0000",1570549583.128348,1.540740,-1.316468,-1.742706,0.251482,0.967833,-0.007561,0.000000,0.000000,0.000000,-1,0.347690,0.371184,0.041559,0.022169,0.047670,0.035179
"2019-10-08 15:46:23.148 +0000",1570549583.148434,1.526207,-1.318055,-1.765001,0.249810,0.968231,-0.011146,0.000000,0.000000,0.000000,-1,0.219534,0.411208,-0.184332,0.007316,-0.023269,-0.042702
"2019-10-08 15:46:23.169 +0000",1570549583.168521,1.551465,-1.317827,-1.740509,0.250233,0.968174,-0.004838,0.000000,0.000000,0.000000,-1,-0.464053,-0.042504,0.080995,-0.165257,-0.136111,-0.243773
"2019-10-08 15:46:23.189 +0000",1570549583.188609,1.586301,-1.314395,-1.702355,0.253571,0.967309,0.003932,0.000000,0.000000,0.000000,-1,-0.465354,-0.173757,0.212094,-0.041398,0.019035,-0.023523
"2019-10-08 15:46:23.209 +0000",1570549583.208695,1.605526,-1.312269,-1.682119,0.255503,0.966768,0.008877,0.000000,0.000000,0.000000,-1,-0.178891,0.068815,0.097958,0.036108,0.079101,0.119801
"2019-10-08 15:46:23.229 +0000",1570549583.228782,1.634421,-1.326627,-1.668718,0.241261,0.970338,0.015371,0.000000,0.000000,0.000000,-1,-0.057673,0.863752,-0.978433,0.382915,0.185774,0.076518
"2019-10-08 15:46:23.249 +0000",1570549583.248868,1.628843,-1.348394,-1.692676,0.220202,0.975370,0.012796,0.000000,0.000000,0.000000,-1,0.462693,0.880770,-1.001580,0.112592,-0.070860,0.146445
"2019-10-08 15:46:23.269 +0000",1570549583.268961,1.585091,-1.361502,-1.755283,0.207749,0.978178,0.002970,0.000000,0.000000,0.000000,-1,0.752663,0.845113,-0.515745,-0.094498,-0.165830,0.066534
"2019-10-08 15:46:23.289 +0000",1570549583.289044,1.519480,-1.367469,-1.836748,0.201663,0.979400,-0.010358,0.000000,0.000000,0.000000,-1,0.794306,0.580536,-0.240140,-0.035403,-0.120315,-0.035800
"2019-10-08 15:46:23.309 +0000",1570549583.309134,1.472153,-1.368885,-1.894558,0.199567,0.979685,-0.019750,0.000000,0.000000,0.000000,-1,0.561761,0.436940,-0.107631,0.023531,0.011114,-0.018519
"2019-10-08 15:46:23.329 +0000",1570549583.329216,1.441600,-1.369341,-1.936483,0.198428,0.979776,-0.025780,0.000000,0.000000,0.000000,-1,0.335965,0.482742,-0.068618,0.024579,0.064200,0.083473
"2019-10-08 15:46:23.349 +0000",1570549583.349303,1.486943,-1.370574,-1.896892,0.198188,0.980022,-0.016658,0.000000,0.000000,0.000000,-1,-0.369484,0.322893,-0.062826,-0.003302,0.158863,-0.239720
"2019-10-08 15:46:23.369 +0000",1570549583.369388,1.456997,-1.371725,-1.938190,0.196480,0.980251,-0.022456,0.000000,0.000000,0.000000,-1,0.792469,0.538340,-0.140911,-0.066551,-0.083217,0.369060
"2019-10-08 15:46:23.389 +0000",1570549583.389475,1.407958,-1.371684,-1.995183,0.195183,0.980242,-0.032067,0.000000,0.000000,0.000000,-1,0.706519,0.400534,-0.179742,-0.038307,0.022428,-0.165900
"2019-10-08 15:46:23.410 +0000",1570549583.409563,1.514527,-1.380672,-1.884308,0.188682,0.981981,-0.010628,0.000000,0.000000,0.000000,-1,-1.656814,0.595655,-0.176000,-0.055045,0.537657,-1.282859
"2019-10-08 15:46:23.430 +0000",1570549583.429650,1.629420,-1.385947,-1.762452,0.183483,0.982964,0.010769,0.000000,0.000000,0.000000,-1,-1.062265,-0.269578,-0.133517,-0.133709,-0.090355,0.045201
"2019-10-08 15:46:23.450 +0000",1570549583.449736,1.721944,-1.387731,-1.663510,0.179969,0.983290,0.027411,0.000000,0.000000,0.000000,-1,-0.818168,-0.217108,-0.238998,0.027001,-0.094862,0.054483
"2019-10-08 15:46:23.470 +0000",1570549583.469822,1.765263,-1.394180,-1.617630,0.172389,0.984444,0.033953,0.000000,0.000000,0.000000,-1,-0.211657,-0.063882,-0.407281,0.029394,-0.026451,0.186674
"2019-10-08 15:46:23.490 +0000",1570549583.489909,1.779287,-1.398421,-1.602066,0.167808,0.985180,0.035502,0.000000,0.000000,0.000000,-1,-0.057160,-0.079537,-0.177135,-0.093116,-0.086086,0.009054
"2019-10-08 15:46:23.510 +0000",1570549583.509996,1.777668,-1.402306,-1.600471,0.164119,0.985839,0.034444,0.000000,0.000000,0.000000,-1,0.055140,-0.157139,-0.246830,-0.002529,0.075425,-0.064077
"2019-10-08 15:46:23.530 +0000",1570549583.530083,1.769243,-1.405172,-1.605339,0.161633,0.986316,0.032503,0.000000,0.000000,0.000000,-1,0.054697,-0.198958,-0.071698,-0.044140,0.068921,-0.073763
"2019-10-08 15:46:23.550 +0000",1570549583.550171,1.766605,-1.404637,-1.601667,0.162236,0.986227,0.032180,0.000000,0.000000,0.000000,-1,-0.077806,-0.381399,0.049970,0.022288,-0.076636,-0.069548
"2019-10-08 15:46:23.570 +0000",1570549583.570258,1.776084,-1.401333,-1.584383,0.165113,0.985675,0.034380,0.000000,0.000000,0.000000,-1,-0.182546,-0.431021,0.161666,-0.011106,-0.050892,-0.036532
"2019-10-08 15:46:23.590 +0000",1570549583.590344,1.795081,-1.396182,-1.558602,0.169379,0.984794,0.038639,0.000000,0.000000,0.000000,-1,-0.319672,-0.408058,0.229466,0.034616,0.023721,-0.124363
"2019-10-08 15:46:23.610 +0000",1570549583.610431,1.824261,-1.391474,-1.521987,0.172665,0.983965,0.044726,0.000000,0.000000,0.000000,-1,-0.426029,-0.364012,0.155749,0.060276,0.004011,-0.064243
"2019-10-08 15:46:23.631 +0000",1570549583.630516,1.854126,-1.387717,-1.486007,0.174800,0.983288,0.050895,0.000000,0.000000,0.000000,-1,-0.395862,-0.279885,0.093840,0.078419,-0.021847,0.015755
"2019-10-08 15:46:23.651 +0000",1570549583.650604,1.873532,-1.382971,-1.461576,0.178234,0.982413,0.055669,0.000000,0.000000,0.000000,-1,-0.311541,-0.146654,0.155782,0.064549,-0.058768,0.053660
"2019-10-08 15:46:23.671 +0000",1570549583.670690,1.875402,-1.378113,-1.456369,0.182679,0.981494,0.057432,0.000000,0.000000,0.000000,-1,-0.123853,-0.197806,0.218333,0.024093,0.034390,0.101534
"2019-10-08 15:46:23.691 +0000",1570549583.690777,1.875742,-1.376819,-1.455812,0.183870,0.981245,0.057876,0.000000,0.000000,0.000000,-1,-0.060354,0.010458,0.000051,-0.015184,0.069429,0.075791
"2019-10-08 15:46:23.711 +0000",1570549583.710864,1.888594,-1.377555,-1.444662,0.182425,0.981387,0.060008,0.000000,0.000000,0.000000,-1,-0.107823,0.090389,-0.122311,-0.012320,0.098035,0.032643
"2019-10-08 15:46:23.731 +0000",1570549583.730952,1.900235,-1.380176,-1.433504,0.179280,0.981887,0.061295,0.000000,0.000000,0.000000,-1,-0.044144,-0.018947,-0.272398,-0.172810,0.035294,0.010191
"2019-10-08 15:46:23.751 +0000",1570549583.751038,1.900094,-1.382123,-1.430321,0.177479,0.982254,0.060652,0.000000,0.000000,0.000000,-1,0.033923,-0.271803,-0.050755,-0.064839,-0.049897,0.094788
"2019-10-08 15:46:23.771 +0000",1570549583.771123,1.887053,-1.383032,-1.435680,0.177406,0.982424,0.058054,0.000000,0.000000,0.000000,-1,0.102864,-0.428148,-0.031360,-0.106697,-0.023853,0.067265
"2019-10-08 15:46:23.791 +0000",1570549583.791212,1.866111,-1.384533,-1.447512,0.177172,0.982703,0.053898,0.000000,0.000000,0.000000,-1,0.149143,-0.468822,-0.011357,-0.084460,0.032311,0.032817
"2019-10-08 15:46:23.811 +0000",1570549583.811297,1.841854,-1.388205,-1.464053,0.174950,0.983377,0.048618,0.000000,0.000000,0.000000,-1,0.232995,-0.338209,-0.128038,-0.068901,0.114538,0.033718
"2019-10-08 15:46:23.831 +0000",1570549583.831384,1.818100,-1.396214,-1.479672,0.168414,0.984799,0.042520,0.000000,0.000000,0.000000,-1,0.261755,-0.465974,-0.365137,0.043226,0.021487,0.024389
"2019-10-08 15:46:23.851 +0000",1570549583.851470,1.817531,-1.408504,-1.474255,0.156688,0.986860,0.039465,0.000000,0.000000,0.000000,-1,0.109587,-0.222240,-0.632964,0.118061,0.038683,0.002420
"2019-10-08 15:46:23.872 +0000",1570549583.871557,1.832402,-1.424405,-1.458493,0.140907,0.989304,0.037727,0.000000,0.000000,0.000000,-1,0.092312,0.041416,-0.794192,0.108300,0.032760,0.030571
"2019-10-08 15:46:23.892 +0000",1570549583.891644,1.833780,-1.439095,-1.460181,0.126807,0.991340,0.034139,0.000000,0.000000,0.000000,-1,0.256579,0.163846,-0.650603,-0.012564,0.050743,0.067667
"2019-10-08 15:46:23.912 +0000",1570549583.911730,1.797419,-1.449478,-1.499311,0.117927,0.992650,0.027192,0.000000,0.000000,0.000000,-1,0.397431,0.078669,-0.394689,-0.089439,-0.009160,0.047820
"2019-10-08 15:46:23.932 +0000",1570549583.931817,1.748564,-1.454941,-1.548657,0.113777,0.993296,0.020442,0.000000,0.000000,0.000000,-1,0.305576,-0.011972,-0.240410,-0.084724,-0.016657,-0.015513
"2019-10-08 15:46:23.952 +0000",1570549583.951904,1.744139,-1.458588,-1.552492,0.110295,0.993711,0.019313,0.000000,0.000000,0.000000,-1,-0.019078,-0.146279,-0.209344,0.037334,0.037844,-0.099467
"2019-10-08 15:46:23.972 +0000",1570549583.971990,1.775312,-1.464895,-1.515372,0.103503,0.994398,0.021468,0.000000,0.000000,0.000000,-1,-0.116611,-0.221875,-0.434742,-0.035418,0.100298,-0.029983
"2019-10-08 15:46:23.992 +0000",1570549583.992078,1.800066,-1.479260,-1.482968,0.089018,0.995814,0.020774,0.000000,0.000000,0.000000,-1,0.085756,-0.472531,-0.805793,-0.069135,-0.029993,0.027398
"2019-10-08 15:46:24.012 +0000",1570549584.012165,1.765799,-1.501448,-1.501761,0.067983,0.997596,0.013428,0.000000,0.000000,0.000000,-1,0.341980,-0.876653,-1.104298,-0.039953,-0.101478,0.069717
"2019-10-08 15:46:24.032 +0000",1570549584.032251,1.662063,-1.524161,-1.582547,0.046425,0.998913,0.004249,0.000000,0.000000,0.000000,-1,0.372454,-1.186893,-1.061248,0.022407,-0.027554,0.005715
"2019-10-08 15:46:24.052 +0000",1570549584.052338,1.596554,-1.542587,-1.628961,0.028200,0.999602,0.000727,0.000000,0.000000,0.000000,-1,0.066902,-0.840210,-0.864077,-0.067934,0.037827,-0.044077
"2019-10-08 15:46:24.072 +0000",1570549584.072426,1.573887,-1.557541,-1.638036,0.013273,0.999912,0.000041,0.000000,0.000000,0.000000,-1,0.030692,-0.689072,-0.689484,-0.061994,0.049739,-0.008907
"2019-10-08 15:46:24.093 +0000",1570549584.092518,-0.182494,-1.566395,2.901857,-0.000799,0.999990,-0.004329,0.000000,0.000000,0.000000,-1,0.272591,-0.649864,-0.682701,0.026403,-0.015448,0.065562
"2019-10-08 15:46:24.113 +0000",1570549584.112597,-0.892834,-1.550447,2.199980,-0.015847,0.999793,-0.012762,0.000000,0.000000,0.000000,-1,0.452500,-0.402577,-0.740686,0.133523,-0.031883,0.062306
"2019-10-08 15:46:24.133 +0000",1570549584.132685,-0.992388,-1.536876,2.108193,-0.028403,0.999425,-0.018544,0.000000,0.000000,0.000000,-1,0.215361,-0.427741,-0.516843,0.075690,0.015772,-0.075191
"2019-10-08 15:46:24.153 +0000",1570549584.152771,-1.079798,-1.529882,2.026870,-0.036071,0.999163,-0.019286,0.000000,0.000000,0.000000,-1,0.010785,-0.262011,-0.309781,-0.013184,0.131955,-0.053652
"2019-10-08 15:46:24.173 +0000",1570549584.172858,-1.097738,-1.527911,2.010375,-0.038164,0.999081,-0.019533,0.000000,0.000000,0.000000,-1,0.041095,-0.016964,-0.032992,-0.012846,-0.021115,0.025529
"2019-10-08 15:46:24.193 +0000",1570549584.192945,-1.012620,-1.527247,2.094739,-0.036928,0.999052,-0.023058,0.000000,0.000000,0.000000,-1,0.224848,0.060670,0.094265,0.068087,-0.096312,0.090608
"2019-10-08 15:46:24.213 +0000",1570549584.213031,-0.896985,-1.524873,2.211595,-0.035877,0.998946,-0.028647,0.000000,0.000000,0.000000,-1,0.281002,-0.144876,-0.012069,0.025364,-0.029006,0.023290
"2019-10-08 15:46:24.233 +0000",1570549584.233119,-0.892483,-1.520168,2.219106,-0.039406,0.998719,-0.031756,0.000000,0.000000,0.000000,-1,0.106951,-0.187647,-0.224272,-0.013542,0.044020,-0.043165
"2019-10-08 15:46:24.253 +0000",1570549584.253206,-0.961964,-1.516059,2.151804,-0.044881,0.998502,-0.031290,0.000000,0.000000,0.000000,-1,-0.049427,-0.102499,-0.268797,-0.088832,0.148530,-0.067054
"2019-10-08 15:46:24.273 +0000",1570549584.273293,-1.031350,-1.515975,2.085724,-0.047015,0.998498,-0.028147,0.000000,0.000000,0.000000,-1,-0.137093,-0.197045,-0.063340,-0.075559,0.002371,-0.033759
"2019-10-08 15:46:24.293 +0000",1570549584.293379,-1.078297,-1.520732,2.045205,-0.044099,0.998747,-0.023664,0.000000,0.000000,0.000000,-1,-0.206802,-0.342291,0.188275,-0.051696,-0.026885,-0.014133
"2019-10-08 15:46:24.313 +0000",1570549584.313466,-1.097146,-1.529500,2.035013,-0.036742,0.999147,-0.018833,0.000000,0.000000,0.000000,-1,-0.233993,-0.425869,0.435809,-0.058641,0.002102,-0.009733
"2019-10-08 15:46:24.334 +0000",1570549584.333552,-1.060364,-1.539051,2.080816,-0.027700,0.999496,-0.015510,0.000000,0.000000,0.000000,-1,-0.171860,-0.452368,0.477391,-0.038111,0.084228,0.002645
"2019-10-08 15:46:24.354 +0000",1570549584.353637,-1.026305,-1.544715,2.124147,-0.022312,0.999660,-0.013511,0.000000,0.000000,0.000000,-1,-0.105526,-0.464002,0.221574,0.090153,0.071154,0.018224
"2019-10-08 15:46:24.374 +0000",1570549584.373726,-1.138734,-1.545558,2.023808,-0.022920,0.999682,-0.010569,0.000000,0.000000,0.000000,-1,-0.158146,-0.639295,-0.074113,0.056856,-0.030277,-0.019310
"2019-10-08 15:46:24.394 +0000",1570549584.393813,-1.316361,-1.540545,1.858175,-0.029276,0.999542,-0.007614,0.000000,0.000000,0.000000,-1,-0.127128,-0.600983,-0.354418,0.004892,-0.067370,0.022077
"2019-10-08 15:46:24.414 +0000",1570549584.413900,-1.409439,-1.526884,1.775357,-0.043331,0.999036,-0.007053,0.000000,0.000000,0.000000,-1,0.033136,-0.510942,-0.769704,0.058452,0.013123,0.043107
"2019-10-08 15:46:24.434 +0000",1570549584.433986,-1.425089,-1.503046,1.770429,-0.066981,0.997706,-0.009829,0.000000,0.000000,0.000000,-1,0.205909,-0.566549,-1.353171,0.061122,-0.002637,0.048691
"2019-10-08 15:46:24.454 +0000",1570549584.454074,-1.458062,-1.463251,1.749187,-0.106659,0.994223,-0.012075,0.000000,0.000000,0.000000,-1,0.108897,-0.577027,-2.231714,0.009308,-0.151665,-0.024762
"2019-10-08 15:46:24.474 +0000",1570549584.474159,-1.544514,-1.406866,1.677710,-0.163142,0.986594,-0.004289,0.000000,0.000000,0.000000,-1,-0.440787,-0.982631,-2.979046,-0.025960,-0.483422,-0.199266
"2019-10-08 15:46:24.494 +0000",1570549584.494246,-1.608698,-1.351104,1.624378,-0.217774,0.975965,0.008258,0.000000,0.000000,0.000000,-1,-0.492841,-0.332133,-2.648050,0.120667,0.318345,0.009394
"2019-10-08 15:46:24.514 +0000",1570549584.514333,-1.606515,-1.313104,1.626244,-0.254689,0.966981,0.009101,0.000000,0.000000,0.000000,-1,0.088079,0.077325,-1.604657,0.041524,0.287045,0.107153
"2019-10-08 15:46:24.534 +0000",1570549584.534420,-1.579632,-1.297229,1.650555,-0.270158,0.962813,0.002387,0.000000,0.000000,0.000000,-1,0.357844,0.223539,-0.553379,0.002077,-0.249711,0.107611
"2019-10-08 15:46:24.555 +0000",1570549584.554507,-1.551226,-1.295956,1.675783,-0.271342,0.962468,-0.005311,0.000000,0.000000,0.000000,-1,0.310650,0.170964,0.088965,-0.115543,-0.132484,-0.004686
"2019-10-08 15:46:24.575 +0000",1570549584.574594,-1.540664,-1.307285,1.688969,-0.260355,0.965481,-0.007848,0.000000,0.000000,0.000000,-1,0.127586,-0.166068,0.730652,-0.026250,-0.171447,-0.031004
"2019-10-08 15:46:24.595 +0000",1570549584.594678,-1.533925,-1.331411,1.692394,-0.236945,0.971484,-0.008740,0.000000,0.000000,0.000000,-1,-0.026134,0.421371,1.384824,-0.085198,-0.255956,0.039622
"2019-10-08 15:46:24.615 +0000",1570549584.614765,-1.529403,-1.362829,1.682623,-0.206296,0.978453,-0.008544,0.000000,0.000000,0.000000,-1,-0.217834,0.667324,1.598084,-0.044467,-0.164093,0.026196
"2019-10-08 15:46:24.635 +0000",1570549584.634851,-1.540301,-1.394327,1.662753,-0.175473,0.984470,-0.005353,0.000000,0.000000,0.000000,-1,-0.243342,0.353778,1.503863,0.178861,0.230417,0.024668
"2019-10-08 15:46:24.655 +0000",1570549584.654939,-1.593997,-1.421315,1.603791,-0.148885,0.988849,0.003455,0.000000,0.000000,0.000000,-1,-0.602444,0.190630,1.290916,0.159185,0.036066,-0.040338
"2019-10-08 15:46:24.675 +0000",1570549584.675027,-1.677790,-1.440984,1.517697,-0.128709,0.991586,0.013824,0.000000,0.000000,0.000000,-1,-0.440691,0.016609,0.894803,-0.005034,0.057453,-0.015428
"2019-10-08 15:46:24.695 +0000",1570549584.695118,-1.671508,-1.450057,1.524247,-0.119838,0.992720,0.012110,0.000000,0.000000,0.000000,-1,0.247596,-0.069035,0.291120,-0.087071,0.112548,0.001758
"2019-10-08 15:46:24.715 +0000",1570549584.715201,-1.611441,-1.449136,1.588974,-0.121261,0.992609,0.004931,0.000000,0.000000,0.000000,-1,0.368326,-0.246534,-0.177729,-0.016831,-0.265468,-0.031347
"2019-10-08 15:46:24.735 +0000",1570549584.735287,-1.576508,-1.438123,1.631834,-0.132284,0.991212,0.000756,0.000000,0.000000,0.000000,-1,0.190125,-0.404273,-0.679520,-0.046167,-0.973193,-0.112605
"2019-10-08 15:46:24.755 +0000",1570549584.755374,-1.581027,-1.426052,1.631895,-0.144234,0.989543,0.001476,0.000000,0.000000,0.000000,-1,-0.013605,-0.048195,-0.399157,0.283730,0.427768,0.135073
"2019-10-08 15:46:24.775 +0000",1570549584.775461,-1.563336,-1.416936,1.655501,-0.153250,0.988187,-0.001143,0.000000,0.000000,0.000000,-1,0.232632,-0.318418,-0.550704,0.017859,1.244461,0.032772
"2019-10-08 15:46:24.796 +0000",1570549584.795548,-1.546242,-1.406449,1.675259,-0.163560,0.986525,-0.004017,0.000000,0.000000,0.000000,-1,0.142162,-0.067055,-0.479621,0.041749,0.278121,0.005464
"2019-10-08 15:46:24.816 +0000",1570549584.815634,-1.518521,-1.405519,1.706926,-0.164302,0.986373,-0.008597,0.000000,0.000000,0.000000,-1,0.317595,-0.250353,0.150993,-0.068638,-0.052308,-0.032879
"2019-10-08 15:46:24.836 +0000",1570549584.835720,-1.464817,-1.418567,1.765152,-0.150792,0.988435,-0.016041,0.000000,0.000000,0.000000,-1,0.440321,-0.154850,0.910970,-0.091334,-0.090778,-0.017897
"2019-10-08 15:46:24.856 +0000",1570549584.855807,-1.412904,-1.447445,1.821925,-0.121509,0.992402,-0.019346,0.000000,0.000000,0.000000,-1,0.068033,-0.288971,1.641624,-0.180493,-0.647189,-0.005116
"2019-10-08 15:46:24.876 +0000",1570549584.875894,-1.355169,-1.491646,1.886473,-0.077239,0.996869,-0.016918,0.000000,0.000000,0.000000,-1,-0.146252,-0.330141,2.334389,0.077498,-0.233856,-0.003959
"2019-10-08 15:46:24.896 +0000",1570549584.895981,-1.201775,-1.533824,2.046195,-0.034483,0.999317,-0.013336,0.000000,0.000000,0.000000,-1,-0.239305,-0.285708,2.082179,0.038160,0.173975,0.036862
"2019-10-08 15:46:24.916 +0000",1570549584.916067,-1.079019,-1.559319,2.176553,-0.010116,0.999934,-0.005419,0.000000,0.000000,0.000000,-1,-0.387260,-0.366585,0.810123,-0.012818,0.790896,0.066757
"2019-10-08 15:46:24.936 +0000",1570549584.936154,-1.525912,-1.560646,1.731694,-0.010145,0.999949,-0.000456,0.000000,0.000000,0.000000,-1,-0.179427,-0.036086,-0.197735,0.093702,0.123294,0.065547
"2019-10-08 15:46:24.956 +0000",1570549584.956241,-1.510619,-1.551590,1.745313,-0.019177,0.999816,-0.001155,0.000000,0.000000,0.000000,-1,0.120563,0.078579,-0.571230,0.116726,-0.157975,0.072030
"2019-10-08 15:46:24.976 +0000",1570549584.976333,-1.365664,-1.541742,1.886802,-0.028447,0.999578,-0.005919,0.000000,0.000000,0.000000,-1,0.252998,0.110687,-0.420896,0.019627,-0.281197,0.036098
"2019-10-08 15:46:24.996 +0000",1570549584.996413,-1.314519,-1.534362,1.933751,-0.035239,0.999336,-0.009234,0.000000,0.000000,0.000000,-1,0.083001,0.226561,-0.322012,0.000922,0.271291,0.027679
"2019-10-08 15:46:25.017 +0000",1570549585.016502,-1.304640,-1.526657,1.941541,-0.042576,0.999026,-0.011607,0.000000,0.000000,0.000000,-1,0.120041,0.070871,-0.368788,-0.098201,0.035670,-0.073311
"2019-10-08 15:46:25.037 +0000",1570549585.036593,-1.301139,-1.521450,1.946307,-0.047547,0.998783,-0.013142,0.000000,0.000000,0.000000,-1,0.082775,-0.115000,-0.210492,-0.056304,0.010141,-0.028274
"2019-10-08 15:46:25.057 +0000",1570549585.056678,-1.270465,-1.520551,1.979190,-0.047979,0.998738,-0.014859,0.000000,0.000000,0.000000,-1,0.067287,-0.080265,0.022075,0.029028,0.021843,0.003794
"2019-10-08 15:46:25.077 +0000",1570549585.076760,-1.170262,-1.519762,2.077308,-0.046979,0.998698,-0.019892,0.000000,0.000000,0.000000,-1,0.296236,0.173559,0.047252,-0.016712,0.112185,0.036964
"2019-10-08 15:46:25.097 +0000",1570549585.096848,-1.085633,-1.516914,2.156466,-0.047643,0.998549,-0.025117,0.000000,0.000000,0.000000,-1,0.193468,0.299999,-0.082740,0.003362,0.171142,0.020781
"2019-10-08 15:46:25.117 +0000",1570549585.116940,-1.114472,-1.513763,2.119357,-0.051174,0.998374,-0.025120,0.000000,0.000000,0.000000,-1,-0.093038,0.467376,-0.194449,-0.034046,0.204382,-0.015364
"2019-10-08 15:46:25.137 +0000",1570549585.137022,-1.215292,-1.511717,2.009980,-0.055354,0.998255,-0.020552,0.000000,0.000000,0.000000,-1,-0.268333,0.357787,-0.187499,0.001811,0.287341,-0.146764
"2019-10-08 15:46:25.157 +0000",1570549585.157109,-1.366141,-1.512963,1.849295,-0.056599,0.998328,-0.011748,0.000000,0.000000,0.000000,-1,-0.523101,0.389615,-0.044897,-0.053585,0.189322,-0.016743
"2019-10-08 15:46:25.177 +0000",1570549585.177196,-1.597190,-1.518324,1.610860,-0.052432,0.998624,0.001384,0.000000,0.000000,0.000000,-1,-0.749111,0.447352,0.282117,-0.018934,0.024827,0.075502
"2019-10-08 15:46:25.197 +0000",1570549585.197283,-1.963982,-1.523068,1.236073,-0.044073,0.998861,0.018281,0.000000,0.000000,0.000000,-1,-0.895375,0.431812,0.454852,0.043417,-0.063042,0.021527
"2019-10-08 15:46:25.217 +0000",1570549585.217369,-2.247136,-1.520115,0.942961,-0.039511,0.998716,0.031712,0.000000,0.000000,0.000000,-1,-0.539427,0.283378,0.241324,0.149680,-0.009995,-0.068001
"2019-10-08 15:46:25.237 +0000",1570549585.237456,-1.942200,-1.503149,1.224753,-0.062988,0.997713,0.024533,0.000000,0.000000,0.000000,-1,0.814796,1.867828,-2.161852,0.442673,0.080379,0.567445
"2019-10-08 15:46:25.258 +0000",1570549585.257542,-1.795068,-1.489246,1.354279,-0.079422,0.996677,0.018117,0.000000,0.000000,0.000000,-1,-0.031279,0.549851,-0.223995,0.060517,-0.710440,-0.389122
"2019-10-08 15:46:25.278 +0000",1570549585.277629,-1.790967,-1.486886,1.347316,-0.081791,0.996482,0.018305,0.000000,0.000000,0.000000,-1,-0.083836,0.533772,-0.107943,-0.037136,0.246649,0.067386
"2019-10-08 15:46:25.298 +0000",1570549585.297716,-1.837335,-1.483409,1.292460,-0.084197,0.996184,0.022989,0.000000,0.000000,0.000000,-1,-0.295151,0.373682,-0.109200,-0.067033,0.034712,-0.020306
"2019-10-08 15:46:25.318 +0000",1570549585.317802,-1.873502,-1.481631,1.249766,-0.085001,0.996027,0.026546,0.000000,0.000000,0.000000,-1,-0.175432,0.292938,-0.002122,-0.047903,-0.022673,-0.023879
"2019-10-08 15:46:25.338 +0000",1570549585.337890,-1.896706,-1.481766,1.221302,-0.084235,0.996039,0.028468,0.000000,0.000000,0.000000,-1,-0.102565,0.251528,0.051369,0.008888,0.000661,-0.005782
"2019-10-08 15:46:25.358 +0000",1570549585.357980,-1.917206,-1.481121,1.194599,-0.084236,0.995982,0.030406,0.000000,0.000000,0.000000,-1,-0.129219,0.333380,-0.013265,0.051903,0.031908,0.030411
"2019-10-08 15:46:25.378 +0000",1570549585.378063,-1.928678,-1.479387,1.174536,-0.085500,0.995825,0.031976,0.000000,0.000000,0.000000,-1,-0.109113,0.460496,-0.060896,0.064229,0.017340,0.050525
"2019-10-08 15:46:25.398 +0000",1570549585.398149,-1.932997,-1.477577,1.161118,-0.087046,0.995658,0.032983,0.000000,0.000000,0.000000,-1,-0.086995,0.433236,-0.058256,0.080653,-0.011180,0.025790
"2019-10-08 15:46:25.418 +0000",1570549585.418235,-1.935153,-1.476525,1.151572,-0.087955,0.995560,0.033545,0.000000,0.000000,0.000000,-1,-0.051912,0.336460,-0.031115,0.073444,-0.022907,0.005758
"2019-10-08 15:46:25.438 +0000",1570549585.438323,-1.934443,-1.476707,1.146633,-0.087808,0.995577,0.033417,0.000000,0.000000,0.000000,-1,0.010423,0.267312,0.003214,0.033761,-0.060873,-0.003621
"2019-10-08 15:46:25.458 +0000",1570549585.458410,-1.923141,-1.478849,1.154535,-0.086179,0.995776,0.031687,0.000000,0.000000,0.000000,-1,0.125743,0.109891,0.095948,0.006361,-0.105902,-0.020171
"2019-10-08 15:46:25.478 +0000",1570549585.478497,-1.874816,-1.482172,1.198362,-0.084451,0.996075,0.026496,0.000000,0.000000,0.000000,-1,0.294818,0.287003,0.029335,0.047921,-0.034913,0.087788
"2019-10-08 15:46:25.499 +0000",1570549585.498582,-1.838676,-1.485077,1.229228,-0.082564,0.996328,0.022662,0.000000,0.000000,0.000000,-1,0.110938,0.264617,0.085698,0.003188,0.134634,-0.027441
"2019-10-08 15:46:25.519 +0000",1570549585.518668,-1.841293,-1.486793,1.220836,-0.080855,0.996474,0.022420,0.000000,0.000000,0.000000,-1,-0.030360,0.297878,0.078274,0.012801,0.093824,-0.009943
"2019-10-08 15:46:25.539 +0000",1570549585.538758,-1.841953,-1.488066,1.212594,-0.079620,0.996580,0.022135,0.000000,0.000000,0.000000,-1,-0.005356,0.408554,0.069200,0.028412,0.018340,0.033327
"2019-10-08 15:46:25.559 +0000",1570549585.558844,-1.843444,-1.489662,1.201941,-0.078053,0.996710,0.021824,0.000000,0.000000,0.000000,-1,-0.007439,0.460057,0.097392,0.017613,-0.016566,0.022392
"2019-10-08 15:46:25.579 +0000",1570549585.578929,-1.840190,-1.492406,1.196246,-0.075487,0.996929,0.020842,0.000000,0.000000,0.000000,-1,0.013846,0.441090,0.139174,-0.010512,-0.012116,0.006955
"2019-10-08 15:46:25.599 +0000",1570549585.599016,-1.854900,-1.495100,1.173710,-0.072595,0.997136,0.021198,0.000000,0.000000,0.000000,-1,-0.075328,0.364410,0.153932,-0.047110,-0.002435,-0.004768
"2019-10-08 15:46:25.619 +0000",1570549585.619104,-1.865171,-1.498255,1.155568,-0.069361,0.997370,0.021029,0.000000,0.000000,0.000000,-1,0.018031,0.408188,0.165567,-0.055181,-0.014739,-0.019019
"2019-10-08 15:46:25.639 +0000",1570549585.639193,-1.836671,-1.502697,1.175081,-0.065659,0.997682,0.017880,0.000000,0.000000,0.000000,-1,0.175270,0.464147,0.198855,-0.028640,-0.050619,-0.020844
"2019-10-08 15:46:25.659 +0000",1570549585.659275,-1.781108,-1.506670,1.220120,-0.062671,0.997945,0.013378,0.000000,0.000000,0.000000,-1,0.211525,0.556668,0.142070,-0.062374,-0.024590,-0.000382
"2019-10-08 15:46:25.679 +0000",1570549585.679364,-1.687979,-1.509116,1.301103,-0.061220,0.998098,0.007207,0.000000,0.000000,0.000000,-1,0.299537,0.632826,0.090129,-0.100675,-0.013544,-0.028283
"2019-10-08 15:46:25.699 +0000",1570549585.699450,-1.571853,-1.511120,1.405343,-0.059645,0.998220,0.000063,0.000000,0.000000,0.000000,-1,0.307166,0.579790,0.115413,-0.104829,0.024649,-0.071417
"2019-10-08 15:46:25.720 +0000",1570549585.719536,-1.470670,-1.513135,1.496805,-0.057345,0.998338,-0.005761,0.000000,0.000000,0.000000,-1,0.244026,0.459707,0.140187,-0.118848,0.077875,-0.116222
"2019-10-08 15:46:25.740 +0000",1570549585.739624,-1.388666,-1.514738,1.571163,-0.055102,0.998429,-0.010148,0.000000,0.000000,0.000000,-1,0.196227,0.363110,0.123762,-0.132764,0.088953,-0.092548
"2019-10-08 15:46:25.760 +0000",1570549585.759710,-1.319784,-1.514832,1.633489,-0.054182,0.998434,-0.013893,0.000000,0.000000,0.000000,-1,0.161624,0.322523,0.051330,-0.108842,0.060261,-0.063488
"2019-10-08 15:46:25.780 +0000",1570549585.779797,-1.263787,-1.514017,1.684251,-0.054098,0.998388,-0.017151,0.000000,0.000000,0.000000,-1,0.124679,0.238992,0.026405,-0.114175,0.018743,-0.037328
"2019-10-08 15:46:25.800 +0000",1570549585.799888,-1.230102,-1.515426,1.715475,-0.052162,0.998467,-0.018492,0.000000,0.000000,0.000000,-1,0.007791,0.082568,0.159915,-0.117058,0.007204,-0.014807
"2019-10-08 15:46:25.820 +0000",1570549585.819970,-1.249911,-1.521475,1.696252,-0.046789,0.998784,-0.015552,0.000000,0.000000,0.000000,-1,-0.223239,-0.063898,0.334596,-0.051584,0.010839,-0.001345
"2019-10-08 15:46:25.840 +0000",1570549585.840058,-1.348751,-1.531059,1.599475,-0.038753,0.999211,-0.008749,0.000000,0.000000,0.000000,-1,-0.378083,-0.119310,0.445206,0.044842,-0.010385,-0.004134
"2019-10-08 15:46:25.860 +0000",1570549585.860144,-1.493611,-1.539071,1.455975,-0.031627,0.999497,-0.002446,0.000000,0.000000,0.000000,-1,-0.287409,-0.049343,0.344619,0.072246,-0.077062,-0.000351
"2019-10-08 15:46:25.880 +0000",1570549585.880232,-1.575147,-1.541673,1.375354,-0.029121,0.999576,0.000127,0.000000,0.000000,0.000000,-1,-0.088779,-0.060123,0.099130,-0.018975,-0.150155,-0.019297
"2019-10-08 15:46:25.900 +0000",1570549585.900318,-1.601419,-1.539645,1.353433,-0.031133,0.999515,0.000954,0.000000,0.000000,0.000000,-1,-0.039149,-0.282090,-0.126636,-0.113657,-0.092217,-0.006238
"2019-10-08 15:46:25.920 +0000",1570549585.920405,-1.689154,-1.535161,1.273517,-0.035380,0.999365,0.004207,0.000000,0.000000,0.000000,-1,-0.204666,-0.404619,-0.241294,-0.117803,0.012989,0.075011
"2019-10-08 15:46:25.940 +0000",1570549585.940491,-1.856962,-1.527619,1.109962,-0.041413,0.999068,0.012186,0.000000,0.000000,0.000000,-1,-0.452745,-0.141469,-0.345823,-0.043288,0.098308,0.213502
"2019-10-08 15:46:25.961 +0000",1570549585.960582,-1.973582,-1.516909,0.989197,-0.049554,0.998548,0.021114,0.000000,0.000000,0.000000,-1,-0.442642,0.322495,-0.429980,-0.014914,0.094769,0.284591
"2019-10-08 15:46:25.981 +0000",1570549585.980663,-2.005514,-1.506155,0.946746,-0.058592,0.997911,0.027207,0.000000,0.000000,0.000000,-1,-0.296660,0.560425,-0.430910,-0.065691,0.089150,0.210932
"2019-10-08 15:46:26.001 +0000",1570549586.000751,-2.017524,-1.498196,0.925835,-0.065419,0.997366,0.031337,0.000000,0.000000,0.000000,-1,-0.214019,0.369058,-0.280669,-0.186900,0.107274,0.082412
"2019-10-08 15:46:26.021 +0000",1570549586.020838,-2.043919,-1.495751,0.898563,-0.066740,0.997185,0.034164,0.000000,0.000000,0.000000,-1,-0.116981,-0.072495,0.009485,-0.292330,0.055803,0.012080
"2019-10-08 15:46:26.041 +0000",1570549586.040925,-2.089996,-1.497641,0.858288,-0.063459,0.997325,0.036267,0.000000,0.000000,0.000000,-1,-0.085083,-0.357069,0.193183,-0.262072,0.039626,0.073438
"2019-10-08 15:46:26.061 +0000",1570549586.061010,-2.168481,-1.501009,0.788265,-0.057644,0.997566,0.039241,0.000000,0.000000,0.000000,-1,-0.132946,-0.440212,0.294660,-0.133365,0.004596,0.142532
"2019-10-08 15:46:26.081 +0000",1570549586.081098,-2.262828,-1.504257,0.701517,-0.051195,0.997787,0.042428,0.000000,0.000000,0.000000,-1,-0.135791,-0.360438,0.306895,-0.012373,-0.047612,0.199739
"2019-10-08 15:46:26.101 +0000",1570549586.101185,-2.348270,-1.506689,0.620874,-0.045658,0.997946,0.044940,0.000000,0.000000,0.000000,-1,-0.105907,-0.209034,0.248427,0.029178,-0.078121,0.221824
"2019-10-08 15:46:26.121 +0000",1570549586.121272,-2.422181,-1.507829,0.549130,-0.041466,0.998018,0.047334,0.000000,0.000000,0.000000,-1,-0.117104,-0.092176,0.190146,0.010796,-0.066368,0.190683
"2019-10-08 15:46:26.141 +0000",1570549586.141359,-2.493169,-1.507481,0.479221,-0.038214,0.997996,0.050433,0.000000,0.000000,0.000000,-1,-0.166896,-0.055925,0.148579,-0.043390,-0.029175,0.151283
"2019-10-08 15:46:26.161 +0000",1570549586.161445,-2.561496,-1.505856,0.411981,-0.035570,0.997892,0.054280,0.000000,0.000000,0.000000,-1,-0.191327,-0.067425,0.124869,-0.098432,-0.035098,0.153753
"2019-10-08 15:46:26.182 +0000",1570549586.181533,-2.622545,-1.503868,0.352390,-0.033177,0.997761,0.058072,0.000000,0.000000,0.000000,-1,-0.187125,-0.079809,0.111963,-0.094692,-0.083857,0.175061
"2019-10-08 15:46:26.202 +0000",1570549586.201619,-2.682185,-1.500620,0.294026,-0.031093,0.997539,0.062850,0.000000,0.000000,0.000000,-1,-0.178314,-0.064080,0.089808,-0.058278,-0.123368,0.185542
"2019-10-08 15:46:26.222 +0000",1570549586.221705,-2.721658,-1.497690,0.255486,-0.029780,0.997329,0.066698,0.000000,0.000000,0.000000,-1,-0.147814,-0.041463,0.064371,-0.037892,-0.097447,0.169869
"2019-10-08 15:46:26.242 +0000",1570549586.241793,-2.743639,-1.494748,0.233452,-0.029444,0.997110,0.070040,0.000000,0.000000,0.000000,-1,-0.136427,0.009272,0.019443,-0.052420,-0.054458,0.171302
"2019-10-08 15:46:26.262 +0000",1570549586.261880,-2.746066,-1.490470,0.229968,-0.030917,0.996776,0.074047,0.000000,0.000000,0.000000,-1,-0.180974,0.062432,-0.067741,-0.077359,-0.020997,0.200757
"2019-10-08 15:46:26.282 +0000",1570549586.281967,-2.733851,-1.486411,0.241666,-0.033423,0.996442,0.077377,0.000000,0.000000,0.000000,-1,-0.081592,0.007683,-0.106406,-0.092630,-0.042147,0.188623
"2019-10-08 15:46:26.302 +0000",1570549586.302054,-2.719091,-1.485062,0.257071,-0.035113,0.996327,0.078102,0.000000,0.000000,0.000000,-1,0.035221,-0.039485,-0.062362,-0.102018,-0.057581,0.207536
"2019-10-08 15:46:26.322 +0000",1570549586.322140,-2.711851,-1.486187,0.265716,-0.035209,0.996423,0.076825,0.000000,0.000000,0.000000,-1,0.136327,-0.077612,0.024811,-0.125359,-0.032851,0.218747
"2019-10-08 15:46:26.342 +0000",1570549586.342228,-2.709366,-1.488820,0.271036,-0.034302,0.996642,0.074357,0.000000,0.000000,0.000000,-1,0.202727,-0.160567,0.061715,-0.161651,0.015178,0.205987
"2019-10-08 15:46:26.362 +0000",1570549586.362314,-2.697761,-1.492095,0.287989,-0.033760,0.996905,0.071004,0.000000,0.000000,0.000000,-1,0.278691,-0.300382,0.037192,-0.202110,0.050667,0.184513
"2019-10-08 15:46:26.382 +0000",1570549586.382400,-2.670606,-1.496455,0.321616,-0.033703,0.997238,0.066187,0.000000,0.000000,0.000000,-1,0.304657,-0.310596,-0.002252,-0.223774,0.077463,0.246078
"2019-10-08 15:46:26.402 +0000",1570549586.402486,-2.641046,-1.499590,0.355542,-0.034145,0.997466,0.062420,0.000000,0.000000,0.000000,-1,0.205877,-0.176839,-0.016908,-0.233067,0.096461,0.300275
"2019-10-08 15:46:26.423 +0000",1570549586.422575,-2.633094,-1.502878,0.366350,-0.033042,0.997694,0.059279,0.000000,0.000000,0.000000,-1,0.145182,-0.154125,0.074865,-0.234170,0.133174,0.309855
"2019-10-08 15:46:26.443 +0000",1570549586.442661,-2.647735,-1.508222,0.355193,-0.029644,0.998043,0.055064,0.000000,0.000000,0.000000,-1,0.253167,-0.153829,0.181010,-0.165226,0.160444,0.099943
"2019-10-08 15:46:26.463 +0000",1570549586.462747,-2.688648,-1.514225,0.314790,-0.024746,0.998400,0.050844,0.000000,0.000000,0.000000,-1,0.219778,0.049431,0.253135,0.135341,0.366996,-0.084283
"2019-10-08 15:46:26.483 +0000",1570549586.482834,-2.744063,-1.519501,0.252614,-0.019851,0.998685,0.047278,0.000000,0.000000,0.000000,-1,0.125487,0.437031,0.250498,0.253525,0.403149,-0.182813
"2019-10-08 15:46:26.503 +0000",1570549586.502921,-2.784374,-1.517119,0.198338,-0.018762,0.998560,0.050269,0.000000,0.000000,0.000000,-1,-0.258230,0.761999,0.027328,0.301599,0.201293,-0.182402
"2019-10-08 15:46:26.523 +0000",1570549586.523009,-2.750744,-1.506896,0.212810,-0.024328,0.997959,0.059042,0.000000,0.000000,0.000000,-1,-0.507355,1.029885,-0.324015,0.214086,0.088292,-0.121854
"2019-10-08 15:46:26.543 +0000",1570549586.543094,-2.682034,-1.492316,0.261690,-0.034776,0.996922,0.070268,0.000000,0.000000,0.000000,-1,-0.627755,0.930554,-0.469840,0.122041,-0.109279,-0.167230
"2019-10-08 15:46:26.563 +0000",1570549586.563181,-2.643213,-1.480019,0.286140,-0.043334,0.995883,0.079629,0.000000,0.000000,0.000000,-1,-0.393281,0.656717,-0.334475,0.024475,-0.198999,-0.196122
"2019-10-08 15:46:26.583 +0000",1570549586.583269,-2.617386,-1.481593,0.302893,-0.044591,0.996024,0.077125,0.000000,0.000000,0.000000,-1,0.262034,0.389132,0.094471,-0.058345,-0.168501,-0.183699
"2019-10-08 15:46:26.603 +0000",1570549586.603356,-2.623818,-1.490687,0.289951,-0.039608,0.996793,0.069535,0.000000,0.000000,0.000000,-1,0.364284,0.322915,0.297353,-0.103687,0.041927,-0.117654
"2019-10-08 15:46:26.623 +0000",1570549586.623441,-2.623455,-1.498449,0.284617,-0.035801,0.997384,0.062798,0.000000,0.000000,0.000000,-1,0.319090,0.266530,0.161358,-0.056561,0.097579,-0.110505
"2019-10-08 15:46:26.644 +0000",1570549586.643529,-2.568159,-1.502274,0.334472,-0.037148,0.997653,0.057520,0.000000,0.000000,0.000000,-1,0.231436,0.274042,-0.123578,-0.027168,0.021413,-0.038988
"2019-10-08 15:46:26.664 +0000",1570549586.663616,-2.462620,-1.503176,0.435063,-0.042433,0.997715,0.052584,0.000000,0.000000,0.000000,-1,0.247619,0.256531,-0.282377,-0.010957,-0.060466,-0.053599
"2019-10-08 15:46:26.684 +0000",1570549586.683707,-2.333914,-1.503338,0.559499,-0.048717,0.997726,0.046593,0.000000,0.000000,0.000000,-1,0.301957,0.217758,-0.305826,-0.033253,-0.170050,-0.067398
"2019-10-08 15:46:26.704 +0000",1570549586.703789,-2.199877,-1.504518,0.690035,-0.053553,0.997804,0.038971,0.000000,0.000000,0.000000,-1,0.394961,0.172484,-0.198655,-0.038427,-0.215570,-0.066627
"2019-10-08 15:46:26.724 +0000",1570549586.723876,-2.077721,-1.508054,0.810200,-0.054819,0.998032,0.030442,0.000000,0.000000,0.000000,-1,0.418318,0.100906,-0.009648,-0.028799,-0.167824,-0.075753
"2019-10-08 15:46:26.744 +0000",1570549586.743963,-1.978079,-1.512810,0.907277,-0.053215,0.998319,0.022957,0.000000,0.000000,0.000000,-1,0.347858,0.175515,0.108249,0.001976,-0.103185,-0.049850
"2019-10-08 15:46:26.764 +0000",1570549586.764051,-1.896047,-1.516911,0.983884,-0.051038,0.998549,0.017211,0.000000,0.000000,0.000000,-1,0.251261,0.315562,0.110573,0.018919,-0.093496,-0.035453
"2019-10-08 15:46:26.784 +0000",1570549586.784137,-1.831853,-1.519697,1.040597,-0.049348,0.998695,0.013183,0.000000,0.000000,0.000000,-1,0.161233,0.394271,0.080871,0.010377,-0.119124,-0.025199
"2019-10-08 15:46:26.804 +0000",1570549586.804223,-1.778173,-1.521147,1.086495,-0.048571,0.998768,0.010219,0.000000,0.000000,0.000000,-1,0.121341,0.385135,0.027675,-0.018446,-0.125255,-0.025729
"2019-10-08 15:46:26.824 +0000",1570549586.824310,-1.736472,-1.521380,1.120501,-0.048725,0.998779,0.008147,0.000000,0.000000,0.000000,-1,0.068489,0.384792,-0.009706,-0.077816,-0.071860,0.013880
"2019-10-08 15:46:26.844 +0000",1570549586.844401,-1.721901,-1.521172,1.126943,-0.049041,0.998769,0.007467,0.000000,0.000000,0.000000,-1,-0.008593,0.416623,-0.013395,-0.119935,-0.003094,0.065859
"2019-10-08 15:46:26.864 +0000",1570549586.864484,-1.736798,-1.520494,1.103097,-0.049591,0.998735,0.008309,0.000000,0.000000,0.000000,-1,-0.089597,0.457771,-0.027545,-0.136063,-0.001351,0.095948
"2019-10-08 15:46:26.885 +0000",1570549586.884571,-1.756369,-1.519611,1.072794,-0.050288,0.998690,0.009441,0.000000,0.000000,0.000000,-1,-0.074513,0.552550,-0.035590,-0.167653,0.026510,0.122709
"2019-10-08 15:46:26.905 +0000",1570549586.904658,-1.740566,-1.517578,1.076557,-0.052433,0.998584,0.008988,0.000000,0.000000,0.000000,-1,0.017408,0.613314,-0.108647,-0.233043,0.046193,0.127113
"2019-10-08 15:46:26.925 +0000",1570549586.924748,-1.691782,-1.514061,1.115258,-0.056296,0.998391,0.006844,0.000000,0.000000,0.000000,-1,0.098796,0.466946,-0.196044,-0.321329,0.099502,0.105194
"2019-10-08 15:46:26.945 +0000",1570549586.944831,-1.632243,-1.510291,1.170135,-0.060356,0.998170,0.003713,0.000000,0.000000,0.000000,-1,0.158015,0.169303,-0.197232,-0.377449,0.159721,0.093249
"2019-10-08 15:46:26.965 +0000",1570549586.964918,-1.543137,-1.507267,1.258443,-0.063464,0.997983,-0.001756,0.000000,0.000000,0.000000,-1,0.314019,0.024728,-0.138327,-0.324674,0.140194,0.118494
"2019-10-08 15:46:26.985 +0000",1570549586.985005,-1.421951,-1.503968,1.381587,-0.066042,0.997768,-0.009903,0.000000,0.000000,0.000000,-1,0.436980,-0.136105,-0.130562,-0.190565,0.167112,0.051019
"2019-10-08 15:46:27.005 +0000",1570549587.005093,-1.293369,-1.497387,1.515447,-0.070541,0.997307,-0.020088,0.000000,0.000000,0.000000,-1,0.556046,-0.266348,-0.264369,-0.001267,0.173783,-0.070755
"2019-10-08 15:46:27.025 +0000",1570549587.025182,-1.198566,-1.485236,1.616518,-0.079604,0.996342,-0.031080,0.000000,0.000000,0.000000,-1,0.560094,-0.317210,-0.510224,0.117126,0.038364,-0.142755
"2019-10-08 15:46:27.045 +0000",1570549587.045265,-1.180742,-1.469262,1.641771,-0.093747,0.994850,-0.038541,0.000000,0.000000,0.000000,-1,0.343748,-0.380286,-0.756718,0.254713,-0.099853,-0.165781
"2019-10-08 15:46:27.065 +0000",1570549587.065352,-1.229968,-1.450833,1.599051,-0.112793,0.992813,-0.040004,0.000000,0.000000,0.000000,-1,0.032875,-0.323593,-0.994184,0.322526,-0.105049,-0.127972
"2019-10-08 15:46:27.085 +0000",1570549587.085439,-1.278930,-1.432519,1.555522,-0.132009,0.990455,-0.039662,0.000000,0.000000,0.000000,-1,0.027421,-0.265990,-0.920886,0.262030,0.077714,-0.077625
"2019-10-08 15:46:27.106 +0000",1570549587.105527,-1.316320,-1.418859,1.520007,-0.146479,0.988480,-0.038101,0.000000,0.000000,0.000000,-1,-0.107719,-0.055634,-0.649933,0.217067,0.281105,-0.071510
"2019-10-08 15:46:27.126 +0000",1570549587.125612,-1.362368,-1.410974,1.470970,-0.155699,0.987256,-0.032930,0.000000,0.000000,0.000000,-1,-0.342304,0.190141,-0.432477,0.175872,0.380321,-0.082967
"2019-10-08 15:46:27.146 +0000",1570549587.145704,-1.424298,-1.408321,1.404877,-0.160029,0.986830,-0.023613,0.000000,0.000000,0.000000,-1,-0.541031,0.140344,-0.118250,0.012295,0.308604,-0.099456
"2019-10-08 15:46:27.166 +0000",1570549587.165787,-1.504446,-1.411353,1.325095,-0.158420,0.987316,-0.010527,0.000000,0.000000,0.000000,-1,-0.680600,-0.150821,0.122781,-0.031703,0.223096,-0.086664
"2019-10-08 15:46:27.186 +0000",1570549587.185874,-1.610185,-1.413626,1.225982,-0.156402,0.987674,0.006164,0.000000,0.000000,0.000000,-1,-0.806507,-0.477332,0.087489,-0.015426,0.092656,-0.045462
"2019-10-08 15:46:27.206 +0000",1570549587.205960,-1.724664,-1.413427,1.123899,-0.154870,0.987643,0.024019,0.000000,0.000000,0.000000,-1,-0.778306,-0.738643,0.060830,0.007075,-0.084757,0.005178
"2019-10-08 15:46:27.226 +0000",1570549587.226047,-1.828335,-1.412091,1.035927,-0.152828,0.987433,0.040253,0.000000,0.000000,0.000000,-1,-0.658653,-0.857593,0.084625,0.048109,-0.213377,0.044746
"2019-10-08 15:46:27.246 +0000",1570549587.246134,-1.918790,-1.411538,0.962260,-0.149081,0.987345,0.054080,0.000000,0.000000,0.000000,-1,-0.530269,-0.888828,0.170561,0.081165,-0.271837,0.052251
"2019-10-08 15:46:27.266 +0000",1570549587.266220,-1.995629,-1.412592,0.902325,-0.143541,0.987512,0.064935,0.000000,0.000000,0.000000,-1,-0.379016,-0.863387,0.240238,0.094668,-0.266511,0.054808
"2019-10-08 15:46:27.286 +0000",1570549587.286307,-2.051827,-1.414720,0.859949,-0.137803,0.987845,0.071923,0.000000,0.000000,0.000000,-1,-0.202585,-0.654614,0.235918,0.070040,-0.253507,0.105636
"2019-10-08 15:46:27.306 +0000",1570549587.306394,-2.078462,-1.417652,0.842584,-0.133308,0.988296,0.074159,0.000000,0.000000,0.000000,-1,-0.001060,-0.414758,0.174445,0.059426,-0.221198,0.145148
"2019-10-08 15:46:27.326 +0000",1570549587.326481,-2.082246,-1.420327,0.844584,-0.130721,0.988701,0.073369,0.000000,0.000000,0.000000,-1,0.093047,-0.248150,0.084128,0.014389,-0.182860,0.153079
"2019-10-08 15:46:27.347 +0000",1570549587.346569,-2.074505,-1.421288,0.855655,-0.130453,0.988844,0.071896,0.000000,0.000000,0.000000,-1,0.092936,-0.135087,-0.027485,-0.053247,-0.146795,0.104275
"2019-10-08 15:46:27.367 +0000",1570549587.366655,-2.056900,-1.420618,0.874849,-0.132284,0.988744,0.069898,0.000000,0.000000,0.000000,-1,0.110793,-0.046493,-0.120639,-0.102151,-0.106183,0.122966
"2019-10-08 15:46:27.387 +0000",1570549587.386741,-2.033916,-1.419706,0.898576,-0.134662,0.988608,0.067242,0.000000,0.000000,0.000000,-1,0.150790,-0.019390,-0.111532,-0.115047,-0.063932,0.158382
"2019-10-08 15:46:27.407 +0000",1570549587.406829,-2.006989,-1.420496,0.926298,-0.135717,0.988726,0.063263,0.000000,0.000000,0.000000,-1,0.216562,-0.023929,-0.034667,-0.103036,0.013953,0.135720
"2019-10-08 15:46:27.427 +0000",1570549587.426916,-1.978109,-1.421747,0.954333,-0.136350,0.988913,0.058827,0.000000,0.000000,0.000000,-1,0.210706,0.093288,-0.034983,-0.171114,0.093966,0.168659
"2019-10-08 15:46:27.447 +0000",1570549587.447003,-1.942265,-1.420962,0.987594,-0.139093,0.988796,0.054184,0.000000,0.000000,0.000000,-1,0.217890,0.156041,-0.165426,-0.239812,0.061017,0.251869
"2019-10-08 15:46:27.467 +0000",1570549587.467089,-1.907230,-1.419523,1.023438,-0.142249,0.988580,0.049749,0.000000,0.000000,0.000000,-1,0.249416,-0.085624,-0.128553,-0.165764,0.047774,0.168048
"2019-10-08 15:46:27.487 +0000",1570549587.487179,-1.879793,-1.422820,1.054241,-0.140455,0.989071,0.044836,0.000000,0.000000,0.000000,-1,0.258797,-0.130823,0.171694,0.179411,0.332012,-0.093489
"2019-10-08 15:46:27.507 +0000",1570549587.507263,-1.932431,-1.429689,0.999499,-0.131543,0.990061,0.049759,0.000000,0.000000,0.000000,-1,-0.431823,0.191746,0.530412,0.274870,0.800169,-0.126839
"2019-10-08 15:46:27.527 +0000",1570549587.527349,-2.051529,-1.432726,0.871099,-0.122033,0.990483,0.063645,0.000000,0.000000,0.000000,-1,-0.881036,0.437785,0.460459,0.311152,0.563617,-0.289590
"2019-10-08 15:46:27.547 +0000",1570549587.547436,-2.201005,-1.420002,0.709693,-0.121367,0.988652,0.088530,0.000000,0.000000,0.000000,-1,-1.443864,0.542761,-0.070045,0.284149,-0.036297,-0.138663
"2019-10-08 15:46:27.568 +0000",1570549587.567523,-2.289228,-1.399167,0.607541,-0.128576,0.985308,0.112414,0.000000,0.000000,0.000000,-1,-1.163665,0.650637,-0.338178,0.274268,-0.242655,-0.058177
"2019-10-08 15:46:27.588 +0000",1570549587.587610,-2.303562,-1.387240,0.580075,-0.135678,0.983201,0.122098,0.000000,0.000000,0.000000,-1,-0.379501,0.606645,-0.257219,0.238310,-0.250069,-0.061025
"2019-10-08 15:46:27.608 +0000",1570549587.607697,-2.284285,-1.385861,0.592095,-0.139032,0.982948,0.120348,0.000000,0.000000,0.000000,-1,0.164466,0.288052,-0.065578,0.027506,-0.121383,-0.142176
"2019-10-08 15:46:27.628 +0000",1570549587.627783,-2.258533,-1.394055,0.616340,-0.135856,0.984422,0.111611,0.000000,0.000000,0.000000,-1,0.491760,0.038234,0.250264,-0.177879,0.045264,-0.140885
"2019-10-08 15:46:27.648 +0000",1570549587.647871,-2.237772,-1.403522,0.637078,-0.130815,0.986042,0.102997,0.000000,0.000000,0.000000,-1,0.393837,0.018232,0.238564,-0.079145,0.138478,-0.151848
"2019-10-08 15:46:27.668 +0000",1570549587.667961,-2.213293,-1.408349,0.658320,-0.129485,0.986835,0.096911,0.000000,0.000000,0.000000,-1,0.249783,0.253821,0.025318,0.070725,0.101171,-0.087855
"2019-10-08 15:46:27.688 +0000",1570549587.688045,-2.174243,-1.408058,0.685809,-0.133406,0.986787,0.091945,0.000000,0.000000,0.000000,-1,0.147500,0.705083,-0.190792,0.158081,-0.019769,-0.001605
"2019-10-08 15:46:27.708 +0000",1570549587.708130,-2.121691,-1.404840,0.718800,-0.140757,0.986261,0.086472,0.000000,0.000000,0.000000,-1,0.141355,1.084068,-0.301572,0.170619,-0.157792,0.008491
"2019-10-08 15:46:27.728 +0000",1570549587.728218,-2.066857,-1.401876,0.749740,-0.147854,0.985767,0.080019,0.000000,0.000000,0.000000,-1,0.150801,1.244808,-0.230045,0.117704,-0.212672,-0.030329
"2019-10-08 15:46:27.748 +0000",1570549587.748306,-2.020075,-1.401935,0.771816,-0.151383,0.985777,0.072992,0.000000,0.000000,0.000000,-1,0.174614,1.232805,-0.027099,0.056123,-0.178960,-0.080141
"2019-10-08 15:46:27.768 +0000",1570549587.768392,-1.979925,-1.405997,0.787977,-0.150515,0.986451,0.065263,0.000000,0.000000,0.000000,-1,0.212353,1.203451,0.172590,0.002597,-0.143197,-0.078423
"2019-10-08 15:46:27.788 +0000",1570549587.788478,-1.956394,-1.411777,0.787431,-0.146723,0.987383,0.059557,0.000000,0.000000,0.000000,-1,0.068422,1.197483,0.297537,-0.032018,-0.080591,-0.064799
"2019-10-08 15:46:27.809 +0000",1570549587.808565,-1.953865,-1.417275,0.765538,-0.141836,0.988239,0.057157,0.000000,0.000000,0.000000,-1,-0.095956,1.205513,0.317285,-0.046624,-0.028514,-0.054174
"2019-10-08 15:46:27.829 +0000",1570549587.828652,-1.962670,-1.421294,0.731797,-0.137656,0.988845,0.056886,0.000000,0.000000,0.000000,-1,-0.176187,1.222823,0.269896,-0.037453,0.006051,-0.014871
"2019-10-08 15:46:27.849 +0000",1570549587.848744,-1.975770,-1.424290,0.692498,-0.134176,0.989287,0.057517,0.000000,0.000000,0.000000,-1,-0.217733,1.312159,0.247208,-0.040140,0.043695,0.027421
"2019-10-08 15:46:27.869 +0000",1570549587.868826,-1.989336,-1.427472,0.648319,-0.130505,0.989747,0.058052,0.000000,0.000000,0.000000,-1,-0.228468,1.572675,0.284799,-0.018007,-0.013192,0.089752
"2019-10-08 15:46:27.889 +0000",1570549587.888912,-1.990997,-1.431262,0.610789,-0.126983,0.990281,0.056738,0.000000,0.000000,0.000000,-1,-0.137972,1.828134,0.265508,-0.065917,-0.122750,0.064698
"2019-10-08 15:46:27.909 +0000",1570549587.908998,-1.961624,-1.434610,0.605236,-0.125529,0.990741,0.051721,0.000000,0.000000,0.000000,-1,0.102024,1.654984,0.136456,-0.228306,-0.212474,-0.034395
"2019-10-08 15:46:27.929 +0000",1570549587.929085,-1.892060,-1.436968,0.652756,-0.126604,0.991058,0.042133,0.000000,0.000000,0.000000,-1,0.425722,0.927144,-0.046140,-0.262586,-0.071755,-0.098583
"2019-10-08 15:46:27.949 +0000",1570549587.949172,-1.792503,-1.436912,0.749465,-0.130219,0.991051,0.029353,0.000000,0.000000,0.000000,-1,0.647509,-0.087386,-0.207473,0.003023,0.189666,-0.232837
"2019-10-08 15:46:27.969 +0000",1570549587.969260,-1.729829,-1.430598,0.819486,-0.137978,0.990188,0.022130,0.000000,0.000000,0.000000,-1,0.316116,-0.343644,-0.484906,0.392526,0.389961,-0.266187
"2019-10-08 15:46:27.989 +0000",1570549587.989346,-1.690802,-1.415466,0.857001,-0.153595,0.987960,0.018521,0.000000,0.000000,0.000000,-1,0.126316,0.275678,-0.876051,0.540742,0.294640,-0.063634
"2019-10-08 15:46:28.009 +0000",1570549588.009439,-1.664275,-1.395504,0.863425,-0.173636,0.984676,0.016279,0.000000,0.000000,0.000000,-1,-0.108495,1.248921,-1.012733,0.505837,0.175595,0.173395
"2019-10-08 15:46:28.030 +0000",1570549588.029519,-1.633032,-1.379921,0.861422,-0.189352,0.981838,0.011800,0.000000,0.000000,0.000000,-1,-0.062933,1.754068,-0.659415,0.406288,0.176815,0.083392
"2019-10-08 15:46:28.050 +0000",1570549588.049606,-1.601213,-1.374097,0.855070,-0.195344,0.980717,0.005944,0.000000,0.000000,0.000000,-1,-0.087127,1.913458,-0.172515,0.214785,0.353214,0.006378
"2019-10-08 15:46:28.070 +0000",1570549588.069693,-1.602515,-1.376437,0.821051,-0.193042,0.981172,0.006125,0.000000,0.000000,0.000000,-1,-0.421111,1.474459,0.217620,-0.032207,0.400428,-0.079818
"2019-10-08 15:46:28.090 +0000",1570549588.089781,-1.638186,-1.381545,0.760450,-0.187698,0.982145,0.012668,0.000000,0.000000,0.000000,-1,-0.590658,1.085396,0.291920,-0.066328,0.234125,-0.023372
"2019-10-08 15:46:28.110 +0000",1570549588.109868,-1.676885,-1.386023,0.703320,-0.182691,0.982978,0.019454,0.000000,0.000000,0.000000,-1,-0.465130,0.803271,0.253148,0.002410,0.013719,0.075707
"2019-10-08 15:46:28.130 +0000",1570549588.129954,-1.701411,-1.390193,0.664575,-0.178094,0.983735,0.023395,0.000000,0.000000,0.000000,-1,-0.277952,0.639551,0.252266,0.067240,-0.137384,0.129521
"2019-10-08 15:46:28.150 +0000",1570549588.150040,-1.707087,-1.395547,0.646526,-0.172737,0.984683,0.023689,0.000000,0.000000,0.000000,-1,-0.070072,0.597736,0.295613,0.139383,-0.184947,0.138672
"2019-10-08 15:46:28.170 +0000",1570549588.170128,-1.693097,-1.402197,0.647287,-0.166549,0.985821,0.020471,0.000000,0.000000,0.000000,-1,0.077051,0.683607,0.337329,0.148743,-0.172062,0.147810
"2019-10-08 15:46:28.190 +0000",1570549588.190214,-1.671179,-1.409361,0.652952,-0.159926,0.986998,0.016108,0.000000,0.000000,0.000000,-1,0.080663,0.858970,0.353891,0.112594,-0.133734,0.167813
"2019-10-08 15:46:28.210 +0000",1570549588.210301,-1.648300,-1.416858,0.656092,-0.152872,0.988175,0.011872,0.000000,0.000000,0.000000,-1,0.052432,1.025626,0.373434,0.097484,-0.065468,0.197227
"2019-10-08 15:46:28.230 +0000",1570549588.230388,-1.624588,-1.423949,0.657691,-0.146109,0.989237,0.007867,0.000000,0.000000,0.000000,-1,0.031800,1.127385,0.338169,0.068779,-0.026233,0.220656
"2019-10-08 15:46:28.250 +0000",1570549588.250475,-1.596526,-1.428101,0.661735,-0.142165,0.989836,0.003659,0.000000,0.000000,0.000000,-1,0.043374,1.211020,0.154754,0.030487,-0.056357,0.206477
"2019-10-08 15:46:28.271 +0000",1570549588.270562,-1.564871,-1.427625,0.669977,-0.142680,0.989769,-0.000845,0.000000,0.000000,0.000000,-1,0.059779,1.146272,-0.083694,0.025677,-0.091354,0.137754
"2019-10-08 15:46:28.291 +0000",1570549588.290648,-1.528705,-1.422678,0.682521,-0.147448,0.989051,-0.006210,0.000000,0.000000,0.000000,-1,0.121015,1.214830,-0.294407,0.048755,-0.090590,0.238563
"2019-10-08 15:46:28.311 +0000",1570549588.310735,-1.477258,-1.414507,0.707869,-0.154974,0.987812,-0.014538,0.000000,0.000000,0.000000,-1,0.242498,1.340094,-0.413893,0.102211,-0.154461,0.224842
"2019-10-08 15:46:28.331 +0000",1570549588.330822,-1.418657,-1.404440,0.737689,-0.163678,0.986195,-0.025096,0.000000,0.000000,0.000000,-1,0.321070,1.494683,-0.485287,0.088240,-0.257107,0.217684
"2019-10-08 15:46:28.351 +0000",1570549588.350910,-1.346644,-1.393585,0.782342,-0.171876,0.984339,-0.039185,0.000000,0.000000,0.000000,-1,0.522379,1.305807,-0.436475,0.113650,-0.309283,0.032952
"2019-10-08 15:46:28.371 +0000",1570549588.370995,-1.276294,-1.388198,0.836542,-0.173767,0.983375,-0.052708,0.000000,0.000000,0.000000,-1,0.439875,0.721914,0.011142,0.552843,0.097977,-0.293781
"2019-10-08 15:46:28.391 +0000",1570549588.391083,-1.241491,-1.396275,0.843691,-0.164308,0.984810,-0.056152,0.000000,0.000000,0.000000,-1,-0.217075,1.653886,0.472958,0.313464,0.900909,-0.070702
"2019-10-08 15:46:28.411 +0000",1570549588.411169,-1.310057,-1.404817,0.736615,-0.159633,0.986257,-0.042592,0.000000,0.000000,0.000000,-1,-1.266510,1.801009,-0.004206,0.013837,0.414614,-0.248400
"2019-10-08 15:46:28.431 +0000",1570549588.431256,-1.416437,-1.405346,0.598031,-0.162738,0.986344,-0.025322,0.000000,0.000000,0.000000,-1,-0.976129,1.412231,-0.232454,-0.102977,0.007377,-0.035187
"2019-10-08 15:46:28.451 +0000",1570549588.451342,-1.472162,-1.403434,0.519475,-0.165773,0.986027,-0.016404,0.000000,0.000000,0.000000,-1,-0.541632,0.989532,-0.153139,0.025210,-0.061932,0.009087
"2019-10-08 15:46:28.471 +0000",1570549588.471429,-1.493588,-1.402846,0.480079,-0.166665,0.985929,-0.012893,0.000000,0.000000,0.000000,-1,-0.239146,0.853831,-0.016116,0.106348,-0.015173,0.055107
"2019-10-08 15:46:28.492 +0000",1570549588.491520,-1.473146,-1.404962,0.481558,-0.164290,0.986281,-0.016094,0.000000,0.000000,0.000000,-1,0.064837,0.985314,0.150691,0.076278,0.031000,0.058705
"2019-10-08 15:46:28.512 +0000",1570549588.511603,-1.444685,-1.407883,0.484029,-0.160906,0.986759,-0.020400,0.000000,0.000000,0.000000,-1,-0.044544,1.413275,0.121595,0.142139,0.183842,0.036781
"2019-10-08 15:46:28.532 +0000",1570549588.531690,-1.440188,-1.407459,0.453076,-0.161228,0.986690,-0.021178,0.000000,0.000000,0.000000,-1,-0.303379,1.852651,-0.113257,0.204244,0.151685,0.024147
"2019-10-08 15:46:28.552 +0000",1570549588.551777,-1.448989,-1.404541,0.401109,-0.164264,0.986211,-0.020108,0.000000,0.000000,0.000000,-1,-0.429360,2.190223,-0.212664,0.189763,-0.009321,0.045903
"2019-10-08 15:46:28.572 +0000",1570549588.571864,-1.459165,-1.402105,0.346442,-0.166849,0.985805,-0.018703,0.000000,0.000000,0.000000,-1,-0.419732,2.149853,-0.147583,0.129390,-0.148761,-0.051143
"2019-10-08 15:46:28.592 +0000",1570549588.591951,-1.455469,-1.402395,0.311115,-0.166494,0.985854,-0.019287,0.000000,0.000000,0.000000,-1,-0.258761,1.820165,0.037688,0.062308,-0.193244,-0.097069
"2019-10-08 15:46:28.612 +0000",1570549588.612038,-1.448968,-1.406178,0.284555,-0.162662,0.986481,-0.019915,0.000000,0.000000,0.000000,-1,-0.241569,1.600604,0.189281,0.035268,-0.081489,-0.044514
"2019-10-08 15:46:28.632 +0000",1570549588.632124,-1.450001,-1.410602,0.250335,-0.158348,0.987196,-0.019221,0.000000,0.000000,0.000000,-1,-0.341839,1.651296,0.183924,0.034921,0.042383,0.028522
"2019-10-08 15:46:28.652 +0000",1570549588.652215,-1.470538,-1.415569,0.192967,-0.153829,0.987976,-0.015474,0.000000,0.000000,0.000000,-1,-0.513422,1.840269,0.196745,0.029654,0.134376,0.048350
"2019-10-08 15:46:28.672 +0000",1570549588.672297,-1.503441,-1.419648,0.120882,-0.150233,0.988599,-0.010134,0.000000,0.000000,0.000000,-1,-0.569162,1.916295,0.139828,-0.033314,0.104564,0.079799
"2019-10-08 15:46:28.692 +0000",1570549588.692384,-1.539409,-1.422675,0.047739,-0.147509,0.989050,-0.004631,0.000000,0.000000,0.000000,-1,-0.545740,1.755984,0.119138,-0.053692,0.058291,0.112855
"2019-10-08 15:46:28.712 +0000",1570549588.712471,-1.577406,-1.426504,-0.026913,-0.143789,0.989608,0.000950,0.000000,0.000000,0.000000,-1,-0.543461,1.788809,0.215196,-0.094430,0.073342,0.164508
"2019-10-08 15:46:28.733 +0000",1570549588.732557,-1.612855,-1.431333,-0.098862,-0.138890,0.990291,0.005845,0.000000,0.000000,0.000000,-1,-0.477859,1.774542,0.261555,-0.154459,0.056089,0.156730
"2019-10-08 15:46:28.753 +0000",1570549588.752645,-1.633929,-1.437972,-0.154583,-0.132172,0.991192,0.008355,0.000000,0.000000,0.000000,-1,-0.316483,1.664768,0.380783,-0.204664,-0.004657,0.170180
"2019-10-08 15:46:28.773 +0000",1570549588.772735,-1.644908,-1.448170,-0.195578,-0.121984,0.992491,0.009057,0.000000,0.000000,0.000000,-1,-0.213204,1.358047,0.592670,-0.140344,-0.026236,0.187133
"2019-10-08 15:46:28.793 +0000",1570549588.792821,-1.647612,-1.460383,-0.219725,-0.109865,0.993911,0.008456,0.000000,0.000000,0.000000,-1,-0.037241,0.949996,0.612813,0.032382,0.082910,0.046193
"2019-10-08 15:46:28.813 +0000",1570549588.812905,-1.653298,-1.472358,-0.237519,-0.097947,0.995159,0.008099,0.000000,0.000000,0.000000,-1,-0.065092,0.491512,0.596884,0.205278,0.124707,-0.110127
"2019-10-08 15:46:28.833 +0000",1570549588.832991,-1.685603,-1.483153,-0.274696,-0.086955,0.996162,0.010027,0.000000,0.000000,0.000000,-1,-0.148787,0.156702,0.531582,0.298214,0.157730,-0.166072
"2019-10-08 15:46:28.853 +0000",1570549588.853079,-1.764194,-1.494035,-0.356920,-0.075257,0.997055,0.014739,0.000000,0.000000,0.000000,-1,-0.273511,0.192869,0.606082,0.367769,0.087211,-0.073478
"2019-10-08 15:46:28.873 +0000",1570549588.873164,-1.902312,-1.505046,-0.504104,-0.062128,0.997839,0.021386,0.000000,0.000000,0.000000,-1,-0.389321,0.533201,0.670816,0.430979,0.025773,0.031157
"2019-10-08 15:46:28.893 +0000",1570549588.893256,-2.142657,-1.512347,-0.761590,-0.049123,0.998292,0.031616,0.000000,0.000000,0.000000,-1,-0.623542,0.907676,0.675238,0.378103,0.061728,0.033653
"2019-10-08 15:46:28.913 +0000",1570549588.913339,-2.510212,-1.511380,-1.150570,-0.035052,0.998235,0.047935,0.000000,0.000000,0.000000,-1,-0.932054,1.075385,0.763080,0.285525,0.277926,-0.038102
"2019-10-08 15:46:28.933 +0000",1570549588.933425,-2.835571,-1.498496,-1.501752,-0.021763,0.997387,0.068881,0.000000,0.000000,0.000000,-1,-1.114901,1.312540,0.717652,0.196842,0.361995,-0.034176
"2019-10-08 15:46:28.954 +0000",1570549588.953516,-3.020752,-1.478944,-1.718107,-0.011057,0.995785,0.091055,0.000000,0.000000,0.000000,-1,-1.126511,1.584690,0.649057,0.163752,0.097439,-0.067000
"2019-10-08 15:46:28.974 +0000",1570549588.973598,-3.133671,-1.461081,-1.867401,-0.000867,0.993987,0.109492,0.000000,0.000000,0.000000,-1,-0.837578,1.819169,0.704691,0.054929,-0.207435,-0.118595
"2019-10-08 15:46:28.994 +0000",1570549588.993686,3.070155,-1.450741,-1.986625,0.008549,0.992802,0.119462,0.000000,0.000000,0.000000,-1,-0.386361,1.997329,0.676888,-0.033665,-0.401043,-0.125559
"2019-10-08 15:46:29.014 +0000",1570549589.013774,3.027208,-1.448336,-2.074244,0.013942,0.992511,0.121358,0.000000,0.000000,0.000000,-1,0.025593,2.225698,0.494295,-0.032497,-0.398662,-0.139387
"2019-10-08 15:46:29.034 +0000",1570549589.033859,2.996708,-1.451156,-2.138352,0.017233,0.992852,0.118107,0.000000,0.000000,0.000000,-1,0.274407,1.107496,0.352166,0.165018,-0.260773,-0.436276
"2019-10-08 15:46:29.054 +0000",1570549589.053946,3.085628,-1.449805,-2.065925,0.006751,0.992689,0.120507,0.000000,0.000000,0.000000,-1,-0.213117,1.267284,-0.724174,0.352898,0.291605,-0.067522
"2019-10-08 15:46:29.074 +0000",1570549589.074034,-3.033033,-1.449128,-1.949644,-0.013150,0.992608,0.120653,0.000000,0.000000,0.000000,-1,0.060572,2.659656,-0.635512,-0.054584,-0.270722,-0.151698
"2019-10-08 15:46:29.094 +0000",1570549589.094122,-2.829096,-1.446428,-1.806224,-0.038137,0.992276,0.118040,0.000000,0.000000,0.000000,-1,0.012659,3.265577,-1.000394,0.024343,-0.066548,-0.272132
"2019-10-08 15:46:29.114 +0000",1570549589.114212,-2.606595,-1.431906,-1.660425,-0.070585,0.990370,0.119100,0.000000,0.000000,0.000000,-1,-0.371613,4.080004,-1.182859,-0.102312,-0.129431,-0.269438
"2019-10-08 15:46:29.134 +0000",1570549589.134293,-2.433276,-1.409203,-1.575113,-0.104669,0.986972,0.122190,0.000000,0.000000,0.000000,-1,-0.582995,4.517336,-1.163783,-0.160177,-0.066646,-0.253012
"2019-10-08 15:46:29.154 +0000",1570549589.154382,-2.304136,-1.386185,-1.540211,-0.136379,0.983008,0.122870,0.000000,0.000000,0.000000,-1,-0.605187,4.775611,-0.953259,-0.202045,0.074419,-0.164413
"2019-10-08 15:46:29.174 +0000",1570549589.174468,-2.229391,-1.371181,-1.558000,-0.156821,0.980143,0.121357,0.000000,0.000000,0.000000,-1,-0.631866,4.487491,-0.257027,-0.200249,0.218458,-0.225552
"2019-10-08 15:46:29.195 +0000",1570549589.194555,-2.215597,-1.368372,-1.629425,-0.160680,0.979582,0.120837,0.000000,0.000000,0.000000,-1,-0.653339,4.051834,0.484219,-0.128473,0.147943,-0.176601
"2019-10-08 15:46:29.215 +0000",1570549589.214642,-2.245123,-1.375579,-1.736011,-0.151524,0.981005,0.121116,0.000000,0.000000,0.000000,-1,-0.591175,3.725427,1.086457,-0.184321,-0.266688,-0.136261
"2019-10-08 15:46:29.235 +0000",1570549589.234727,-2.286323,-1.394539,-1.844129,-0.132343,0.984507,0.115031,0.000000,0.000000,0.000000,-1,0.022601,3.064901,1.410232,-0.122096,-0.348848,-0.035327
"2019-10-08 15:46:29.255 +0000",1570549589.254814,-2.301458,-1.417359,-1.911969,-0.113823,0.988252,0.101998,0.000000,0.000000,0.000000,-1,0.378685,2.358354,1.176248,-0.161735,0.113288,-0.109437
"2019-10-08 15:46:29.275 +0000",1570549589.274902,-2.352327,-1.434634,-2.002823,-0.096355,0.990744,0.095612,0.000000,0.000000,0.000000,-1,0.002794,1.800376,0.941324,-0.176380,0.484666,-0.138605
"2019-10-08 15:46:29.295 +0000",1570549589.294989,-2.369996,-1.438472,-2.058310,-0.091999,0.991258,0.094574,0.000000,0.000000,0.000000,-1,-0.149701,1.923947,0.279448,-0.110347,0.578162,0.076484
"2019-10-08 15:46:29.315 +0000",1570549589.315075,-2.358917,-1.438271,-2.090476,-0.093181,0.991231,0.093690,0.000000,0.000000,0.000000,-1,-0.144161,2.187954,0.093432,-0.098575,0.063891,0.087011
"2019-10-08 15:46:29.335 +0000",1570549589.335162,-2.321084,-1.438447,-2.097572,-0.096532,0.991255,0.089980,0.000000,0.000000,0.000000,-1,0.015321,2.230685,0.039337,-0.124476,-0.141424,0.026543
"2019-10-08 15:46:29.355 +0000",1570549589.355249,-2.279921,-1.443377,-2.097067,-0.096442,0.991893,0.082748,0.000000,0.000000,0.000000,-1,0.220089,1.942085,0.237743,-0.289239,-0.189700,-0.056221
"2019-10-08 15:46:29.375 +0000",1570549589.375335,-2.255681,-1.454241,-2.105762,-0.090067,0.993215,0.073564,0.000000,0.000000,0.000000,-1,0.325377,1.536648,0.509767,-0.353872,-0.184476,-0.088679
"2019-10-08 15:46:29.395 +0000",1570549589.395422,-2.257944,-1.467988,-2.135987,-0.079339,0.994720,0.065101,0.000000,0.000000,0.000000,-1,0.293715,1.353720,0.661869,-0.318564,-0.136237,-0.043686
"2019-10-08 15:46:29.416 +0000",1570549589.415510,-2.292592,-1.480599,-2.197908,-0.067613,0.995935,0.059516,0.000000,0.000000,0.000000,-1,0.129375,1.356018,0.663126,-0.237379,-0.088380,-0.013748
"2019-10-08 15:46:29.436 +0000",1570549589.435596,-2.374547,-1.487789,-2.308363,-0.057542,0.996557,0.059694,0.000000,0.000000,0.000000,-1,-0.173382,1.406365,0.559878,-0.214507,-0.030408,0.044196
"2019-10-08 15:46:29.456 +0000",1570549589.455683,-2.479808,-1.489016,-2.443240,-0.050200,0.996658,0.064444,0.000000,0.000000,0.000000,-1,-0.352959,1.454602,0.428838,-0.262392,-0.001655,0.025483
"2019-10-08 15:46:29.476 +0000",1570549589.475769,-2.575801,-1.487680,-2.568477,-0.044507,0.996548,0.070085,0.000000,0.000000,0.000000,-1,-0.329802,1.440327,0.354736,-0.315417,-0.004200,0.002234
"2019-10-08 15:46:29.496 +0000",1570549589.495856,-2.652674,-1.486337,-2.671041,-0.039621,0.996435,0.074475,0.000000,0.000000,0.000000,-1,-0.263538,1.180470,0.336704,-0.353232,0.025850,-0.064901
"2019-10-08 15:46:29.516 +0000",1570549589.515945,-2.710634,-1.485913,-2.749922,-0.035418,0.996400,0.077032,0.000000,0.000000,0.000000,-1,-0.124154,0.984571,0.268645,-0.418302,0.085380,-0.091735
"2019-10-08 15:46:29.536 +0000",1570549589.536031,-2.751842,-1.487607,-2.806741,-0.031573,0.996542,0.076865,0.000000,0.000000,0.000000,-1,0.007347,0.682724,0.246397,-0.430371,0.123827,-0.112914
"2019-10-08 15:46:29.556 +0000",1570549589.556117,-2.805881,-1.489439,-2.869511,-0.026773,0.996692,0.076732,0.000000,0.000000,0.000000,-1,-0.014569,0.351759,0.281276,-0.388418,0.169880,-0.055561
"2019-10-08 15:46:29.576 +0000",1570549589.576203,-2.888735,-1.491221,-2.957635,-0.019887,0.996836,0.076966,0.000000,0.000000,0.000000,-1,-0.020047,0.234891,0.392669,-0.162623,0.163679,0.017799
"2019-10-08 15:46:29.596 +0000",1570549589.596292,-2.992096,-1.491372,-3.068770,-0.011817,0.996848,0.078457,0.000000,0.000000,0.000000,-1,-0.105016,0.433066,0.439318,0.111747,0.126955,0.124614
"2019-10-08 15:46:29.616 +0000",1570549589.616378,-3.087005,-1.489892,3.102874,-0.004410,0.996729,0.080698,0.000000,0.000000,0.000000,-1,-0.119211,0.984895,0.419840,0.348160,0.150633,0.230985
"2019-10-08 15:46:29.636 +0000",1570549589.636463,-3.116862,-1.486802,3.043345,-0.002075,0.996475,0.083871,0.000000,0.000000,0.000000,-1,-0.190042,1.597124,0.161712,0.424819,0.092889,0.253874
"2019-10-08 15:46:29.657 +0000",1570549589.656552,-3.045462,-1.484735,3.078057,-0.008250,0.996299,0.085560,0.000000,0.000000,0.000000,-1,-0.023289,1.896216,-0.266944,0.348354,-0.073913,0.259143
"2019-10-08 15:46:29.677 +0000",1570549589.676640,-2.901102,-1.484066,-3.090621,-0.020632,0.996241,0.084131,0.000000,0.000000,0.000000,-1,0.025976,1.294304,-0.540466,0.225573,-0.201602,0.077558
"2019-10-08 15:46:29.697 +0000",1570549589.696729,-2.788547,-1.475184,-2.990450,-0.033009,0.995433,0.089580,0.000000,0.000000,0.000000,-1,-0.374506,0.494000,-0.598733,0.026387,-0.037448,0.069088
"2019-10-08 15:46:29.717 +0000",1570549589.716812,-2.697790,-1.462543,-2.907613,-0.046392,0.994146,0.097578,0.000000,0.000000,0.000000,-1,-0.376022,0.288637,-0.595144,-0.233088,0.211717,0.317025
"2019-10-08 15:46:29.737 +0000",1570549589.736898,-2.650377,-1.452557,-2.859315,-0.055644,0.993018,0.104018,0.000000,0.000000,0.000000,-1,-0.325946,-0.109896,-0.431504,-0.341694,0.173722,0.195885
"2019-10-08 15:46:29.757 +0000",1570549589.756986,-2.616826,-1.446965,-2.814896,-0.061883,0.992343,0.106896,0.000000,0.000000,0.000000,-1,-0.009607,-0.703425,-0.356521,-0.409857,-0.117305,0.127592
"2019-10-08 15:46:29.777 +0000",1570549589.777072,-2.607909,-1.450538,-2.769778,-0.061030,0.992778,0.103287,0.000000,0.000000,0.000000,-1,0.403650,-2.139182,-0.068162,-0.247319,-0.389316,-0.065332
"2019-10-08 15:46:29.797 +0000",1570549589.797159,-2.567401,-1.465338,-2.680201,-0.057175,0.994444,0.088384,0.000000,0.000000,0.000000,-1,1.030457,-2.447166,-0.041508,-0.194106,-0.347754,-0.038801
"2019-10-08 15:46:29.817 +0000",1570549589.817245,-2.460897,-1.481577,-2.525873,-0.056074,0.996023,0.069243,0.000000,0.000000,0.000000,-1,1.091735,-2.301111,-0.170686,-0.060259,-0.245619,-0.002525
"2019-10-08 15:46:29.837 +0000",1570549589.837333,-2.277938,-1.492594,-2.300451,-0.059391,0.996944,0.050754,0.000000,0.000000,0.000000,-1,1.024987,-1.985372,-0.334686,0.049885,-0.118549,0.035343
"2019-10-08 15:46:29.857 +0000",1570549589.857419,-2.014049,-1.496200,-2.000967,-0.067325,0.997219,0.031963,0.000000,0.000000,0.000000,-1,1.050781,-1.637470,-0.515717,0.151508,-0.017567,0.012752
"2019-10-08 15:46:29.878 +0000",1570549589.877506,-1.727449,-1.491087,-1.686696,-0.078651,0.996825,0.012423,0.000000,0.000000,0.000000,-1,1.082832,-1.253468,-0.601287,0.129967,-0.050986,0.001714
"2019-10-08 15:46:29.898 +0000",1570549589.897593,-1.494381,-1.481757,-1.428617,-0.088665,0.996039,-0.006789,0.000000,0.000000,0.000000,-1,1.054428,-1.205926,-0.455059,0.121289,-0.119795,-0.062906
"2019-10-08 15:46:29.918 +0000",1570549589.917684,-1.326187,-1.473107,-1.231883,-0.094633,0.995232,-0.023621,0.000000,0.000000,0.000000,-1,0.914450,-1.432077,-0.221407,0.055250,-0.010071,-0.145698
"2019-10-08 15:46:29.938 +0000",1570549589.937772,-1.219956,-1.467219,-1.093556,-0.097094,0.994641,-0.035535,0.000000,0.000000,0.000000,-1,0.698339,-1.614639,-0.021914,-0.031125,0.022121,-0.046458
"2019-10-08 15:46:29.958 +0000",1570549589.957854,-1.129718,-1.465422,-0.968786,-0.095113,0.994453,-0.044903,0.000000,0.000000,0.000000,-1,0.612654,-1.685709,0.222923,-0.036783,0.128952,0.100636
"2019-10-08 15:46:29.978 +0000",1570549589.977939,-1.076391,-1.465178,-0.881987,-0.092798,0.994428,-0.050024,0.000000,0.000000,0.000000,-1,0.329675,-1.616792,0.158826,-0.104879,0.236140,0.151258
"2019-10-08 15:46:29.998 +0000",1570549589.998031,-1.090729,-1.462909,-0.863545,-0.095507,0.994186,-0.049730,0.000000,0.000000,0.000000,-1,0.094273,-1.663297,-0.112471,-0.244352,0.210289,0.165506
"2019-10-08 15:46:30.018 +0000",1570549590.018116,-1.122531,-1.458439,-0.856841,-0.101045,0.993694,-0.048594,0.000000,0.000000,0.000000,-1,0.162184,-2.022726,-0.197876,-0.274504,0.051815,0.068759
"2019-10-08 15:46:30.038 +0000",1570549590.038200,-1.147733,-1.452784,-0.837527,-0.107359,0.993045,-0.048339,0.000000,0.000000,0.000000,-1,0.218818,-2.251391,-0.206323,-0.258439,-0.014186,0.053473
"2019-10-08 15:46:30.058 +0000",1570549590.058287,-1.165163,-1.447771,-0.810009,-0.112758,0.992442,-0.048424,0.000000,0.000000,0.000000,-1,0.281212,-2.203286,-0.144449,-0.220616,-0.029956,0.032959
"2019-10-08 15:46:30.078 +0000",1570549590.078375,-1.156270,-1.444274,-0.757162,-0.115499,0.992007,-0.050822,0.000000,0.000000,0.000000,-1,0.391680,-2.166458,0.010526,-0.187937,-0.079143,-0.051267
"2019-10-08 15:46:30.098 +0000",1570549590.098464,-1.126745,-1.442772,-0.682734,-0.115294,0.991816,-0.054850,0.000000,0.000000,0.000000,-1,0.483090,-2.216648,0.163505,-0.185883,-0.024936,-0.149839
"2019-10-08 15:46:30.119 +0000",1570549590.118550,-1.090454,-1.442043,-0.600526,-0.113869,0.991723,-0.059331,0.000000,0.000000,0.000000,-1,0.465841,-2.264682,0.212410,-0.143882,-0.024217,-0.125644
"2019-10-08 15:46:30.139 +0000",1570549590.138635,-1.090031,-1.442657,-0.554033,-0.113304,0.991801,-0.059097,0.000000,0.000000,0.000000,-1,0.161897,-2.258835,0.139136,0.026314,-0.114749,-0.046013
"2019-10-08 15:46:30.159 +0000",1570549590.158721,-1.145562,-1.443127,-0.568802,-0.115984,0.991861,-0.052525,0.000000,0.000000,0.000000,-1,-0.174871,-1.947613,-0.074808,0.143039,-0.306765,0.045346
"2019-10-08 15:46:30.179 +0000",1570549590.178812,-1.235479,-1.438166,-0.620856,-0.124877,0.991218,-0.043517,0.000000,0.000000,0.000000,-1,-0.247169,-1.955571,-0.447726,0.192856,-0.404830,-0.162042
"2019-10-08 15:46:30.199 +0000",1570549590.198896,-1.340727,-1.427239,-0.685739,-0.139296,0.989713,-0.032625,0.000000,0.000000,0.000000,-1,-0.243540,-2.036495,-0.688283,0.208892,0.019007,0.075419
"2019-10-08 15:46:30.219 +0000",1570549590.218983,-1.405544,-1.413328,-0.707943,-0.154683,0.987628,-0.025797,0.000000,0.000000,0.000000,-1,0.016399,-2.202705,-0.710419,0.227529,0.932348,0.070910
"2019-10-08 15:46:30.239 +0000",1570549590.239070,-1.539411,-1.397637,-0.801746,-0.172211,0.985045,-0.005407,0.000000,0.000000,0.000000,-1,-1.023249,-1.894558,-0.926762,0.185183,1.249521,0.010953
"2019-10-08 15:46:30.259 +0000",1570549590.259158,-1.717246,-1.376198,-0.947094,-0.191303,0.981125,0.028218,0.000000,0.000000,0.000000,-1,-1.381490,-1.723474,-0.999594,0.110128,0.325416,0.012133
"2019-10-08 15:46:30.279 +0000",1570549590.279243,-1.825003,-1.355963,-1.019667,-0.206334,0.977012,0.053611,0.000000,0.000000,0.000000,-1,-0.751318,-1.887226,-0.757352,-0.041070,-0.100402,-0.014511
"2019-10-08 15:46:30.299 +0000",1570549590.299334,-1.898097,-1.344334,-1.053295,-0.212613,0.974467,0.072184,0.000000,0.000000,0.000000,-1,-0.466442,-2.035697,-0.355790,-0.144029,-0.141466,-0.032214
"2019-10-08 15:46:30.319 +0000",1570549590.319417,-1.970330,-1.339200,-1.081651,-0.211455,0.973301,0.089285,0.000000,0.000000,0.000000,-1,-0.364554,-2.291436,-0.053061,-0.151093,-0.072414,-0.042800
"2019-10-08 15:46:30.340 +0000",1570549590.339504,-2.045310,-1.338892,-1.106502,-0.204439,0.973230,0.105012,0.000000,0.000000,0.000000,-1,-0.230698,-2.607238,0.152196,-0.133572,0.039595,0.005484
"2019-10-08 15:46:30.360 +0000",1570549590.359591,-2.125221,-1.339771,-1.131988,-0.194676,0.973432,0.120545,0.000000,0.000000,0.000000,-1,-0.248300,-2.767471,0.173729,-0.066126,0.042643,-0.053979
"2019-10-08 15:46:30.380 +0000",1570549590.379677,-2.204906,-1.338685,-1.158681,-0.185315,0.973183,0.136286,0.000000,0.000000,0.000000,-1,-0.286074,-2.638863,0.110155,0.043852,-0.064376,-0.134707
"2019-10-08 15:46:30.400 +0000",1570549590.399764,-2.274347,-1.335742,-1.180854,-0.177596,0.972502,0.150668,0.000000,0.000000,0.000000,-1,-0.295229,-2.284000,0.019366,0.114777,-0.162832,-0.116833
"2019-10-08 15:46:30.420 +0000",1570549590.419852,-2.328139,-1.331953,-1.196558,-0.171914,0.971612,0.162528,0.000000,0.000000,0.000000,-1,-0.248273,-1.789092,-0.028346,0.142267,-0.208497,-0.048874
"2019-10-08 15:46:30.440 +0000",1570549590.439938,-2.363967,-1.327479,-1.202703,-0.169030,0.970544,0.171678,0.000000,0.000000,0.000000,-1,-0.201356,-1.391006,-0.142976,0.072779,-0.184067,-0.045802
"2019-10-08 15:46:30.460 +0000",1570549590.460024,-2.383468,-1.321650,-1.198468,-0.169537,0.969123,0.179046,0.000000,0.000000,0.000000,-1,-0.156855,-1.114823,-0.264360,0.005949,-0.143630,-0.065880
"2019-10-08 15:46:30.480 +0000",1570549590.480112,-2.391819,-1.316501,-1.187721,-0.171434,0.967841,0.184106,0.000000,0.000000,0.000000,-1,-0.082098,-0.872923,-0.277226,0.064349,-0.105528,-0.063295
"2019-10-08 15:46:30.500 +0000",1570549590.500197,-2.394291,-1.311414,-1.176117,-0.174322,0.966548,0.188138,0.000000,0.000000,0.000000,-1,-0.090913,-0.613557,-0.277652,0.083702,-0.083041,0.009120
"2019-10-08 15:46:30.520 +0000",1570549590.520286,-2.389027,-1.306592,-1.161418,-0.178494,0.965301,0.190617,0.000000,0.000000,0.000000,-1,-0.022107,-0.404167,-0.312532,-0.005206,-0.131384,0.057803
"2019-10-08 15:46:30.540 +0000",1570549590.540377,-2.378055,-1.304139,-1.140395,-0.182211,0.964657,0.190357,0.000000,0.000000,0.000000,-1,0.150565,-0.503412,-0.267018,-0.074532,-0.193317,0.033191
"2019-10-08 15:46:30.560 +0000",1570549590.560458,-2.365109,-1.305042,-1.114296,-0.184050,0.964895,0.187361,0.000000,0.000000,0.000000,-1,0.301661,-0.635525,-0.201242,-0.100052,-0.203671,0.062051
"2019-10-08 15:46:30.581 +0000",1570549590.580545,-2.353565,-1.306774,-1.087998,-0.185016,0.965348,0.184045,0.000000,0.000000,0.000000,-1,0.302219,-0.713769,-0.175046,-0.107875,-0.145638,0.112653
"2019-10-08 15:46:30.601 +0000",1570549590.600631,-2.342610,-1.310032,-1.059488,-0.184766,0.966193,0.179813,0.000000,0.000000,0.000000,-1,0.402622,-0.864724,-0.133395,-0.073839,-0.110075,0.064091
"2019-10-08 15:46:30.621 +0000",1570549590.620723,-2.329684,-1.314940,-1.026782,-0.183631,0.967447,0.174144,0.000000,0.000000,0.000000,-1,0.495124,-0.943808,-0.106843,-0.083671,-0.090119,0.077694
"2019-10-08 15:46:30.641 +0000",1570549590.640805,-2.303049,-1.322448,-0.980110,-0.182798,0.969320,0.164332,0.000000,0.000000,0.000000,-1,0.743586,-0.909411,-0.124796,-0.094941,-0.087658,0.136991
"2019-10-08 15:46:30.661 +0000",1570549590.660895,-2.261924,-1.333194,-0.918844,-0.181362,0.971905,0.150029,0.000000,0.000000,0.000000,-1,0.954701,-0.913071,-0.045243,-0.034488,-0.095096,0.140567
"2019-10-08 15:46:30.681 +0000",1570549590.680983,-2.208407,-1.345903,-0.848249,-0.179187,0.974818,0.132749,0.000000,0.000000,0.000000,-1,1.035904,-0.694143,0.010163,0.038335,-0.062242,0.257533
"2019-10-08 15:46:30.701 +0000",1570549590.701071,-2.138809,-1.357899,-0.768647,-0.178114,0.977423,0.113667,0.000000,0.000000,0.000000,-1,1.069267,-0.289479,0.006495,0.051742,0.018863,0.347568
"2019-10-08 15:46:30.721 +0000",1570549590.721157,-2.043997,-1.367442,-0.674097,-0.179765,0.979395,0.092039,0.000000,0.000000,0.000000,-1,1.096061,0.257134,-0.098408,0.011873,0.036636,0.452280
"2019-10-08 15:46:30.741 +0000",1570549590.741243,-1.911076,-1.374414,-0.549019,-0.183935,0.980779,0.065123,0.000000,0.000000,0.000000,-1,1.361067,0.583932,-0.172973,-0.092308,-0.059872,0.495936
"2019-10-08 15:46:30.761 +0000",1570549590.761330,-1.730164,-1.382822,-0.373969,-0.184501,0.982385,0.029655,0.000000,0.000000,0.000000,-1,1.827283,0.360796,0.069380,-0.153434,-0.160797,0.517137
"2019-10-08 15:46:30.781 +0000",1570549590.781416,-1.525425,-1.394973,-0.158822,-0.174739,0.984583,-0.007934,0.000000,0.000000,0.000000,-1,1.983688,-0.477193,0.613304,0.248380,0.002074,-0.157204
"2019-10-08 15:46:30.802 +0000",1570549590.801503,-1.310686,-1.404942,0.066031,-0.159543,0.986278,-0.042461,0.000000,0.000000,0.000000,-1,1.642204,-0.345199,0.832360,0.283903,0.478361,-0.186138
"2019-10-08 15:46:30.822 +0000",1570549590.821590,-1.145398,-1.415526,0.229440,-0.140865,0.987970,-0.063821,0.000000,0.000000,0.000000,-1,0.928450,0.517347,0.907109,0.340268,0.902115,-0.330259
"2019-10-08 15:46:30.842 +0000",1570549590.841677,-1.066439,-1.421256,0.282935,-0.130434,0.988840,-0.071996,0.000000,0.000000,0.000000,-1,-0.065144,1.402242,0.265122,0.277453,0.565979,-0.078858
"2019-10-08 15:46:30.862 +0000",1570549590.861765,-1.131282,-1.421265,0.194295,-0.134816,0.988841,-0.063389,0.000000,0.000000,0.000000,-1,-0.662622,1.004892,-0.475348,0.234213,0.153501,-0.338107
"2019-10-08 15:46:30.882 +0000",1570549590.881850,-1.188484,-1.415226,0.123803,-0.143758,0.987923,-0.057805,0.000000,0.000000,0.000000,-1,-0.216760,0.522946,-0.444938,0.236456,0.027558,-0.322344
"2019-10-08 15:46:30.902 +0000",1570549590.901937,-1.158270,-1.406965,0.145540,-0.149417,0.986610,-0.065391,0.000000,0.000000,0.000000,-1,0.463800,0.406297,-0.276885,0.226033,-0.089781,-0.334671
"2019-10-08 15:46:30.922 +0000",1570549590.922024,-1.108475,-1.398456,0.186204,-0.153485,0.985186,-0.076488,0.000000,0.000000,0.000000,-1,0.470225,0.540710,-0.227324,0.243513,-0.185984,-0.238475
"2019-10-08 15:46:30.942 +0000",1570549590.942111,-1.056215,-1.392282,0.217925,-0.154574,0.984109,-0.087394,0.000000,0.000000,0.000000,-1,0.358001,1.260365,-0.113516,0.337161,-0.019546,-0.155517
"2019-10-08 15:46:30.962 +0000",1570549590.962201,-1.011846,-1.388299,0.223054,-0.153866,0.983394,-0.096241,0.000000,0.000000,0.000000,-1,0.051029,2.184263,-0.175729,0.390805,0.209059,-0.062762
