timestamp,timeIntervalSince1970,attitude.roll,attitude.pitch,attitude.yaw,gravity.x,gravity.y,gravity.z,magneticField.x,magneticField.y,magneticField.z,magneticField.accuracy,rotationRate.x,rotationRate.y,rotationRate.z,userAcceleration.x,userAcceleration.y,userAcceleration.z
"2019-05-06 15:56:50.601 +0000",1557158210.601469,-0.034207,0.526347,0.009639,-0.029571,-0.502378,-0.864142,0.000000,0.000000,0.000000,-1,-0.465007,-0.536716,0.236436,0.015106,0.061597,0.050528
"2019-05-06 15:56:50.621 +0000",1557158210.621455,-0.053820,0.513259,0.017252,-0.046863,-0.491019,-0.869887,0.000000,0.000000,0.000000,-1,-0.746129,-0.953979,0.415956,-0.000333,0.025657,0.089431
"2019-05-06 15:56:50.641 +0000",1557158210.641437,-0.082409,0.497493,0.023583,-0.072337,-0.477224,-0.875799,0.000000,0.000000,0.000000,-1,-0.754578,-1.514265,0.218474,-0.078359,-0.013315,0.068014
"2019-05-06 15:56:50.661 +0000",1557158210.661419,-0.124032,0.475978,0.031738,-0.109963,-0.458208,-0.882017,0.000000,0.000000,0.000000,-1,-1.146655,-1.776796,0.615541,-0.160133,0.051333,0.143522
"2019-05-06 15:56:50.681 +0000",1557158210.681399,-0.150682,0.450686,0.038332,-0.135124,-0.435583,-0.889949,0.000000,0.000000,0.000000,-1,-1.270285,-0.925737,0.330058,-0.009865,0.046148,0.159190
"2019-05-06 15:56:50.701 +0000",1557158210.701380,-0.167745,0.422136,0.038576,-0.152303,-0.409710,-0.899412,0.000000,0.000000,0.000000,-1,-1.480779,-0.795249,0.226776,-0.080592,0.004116,0.020872
"2019-05-06 15:56:50.721 +0000",1557158210.721363,-0.181596,0.391673,0.038247,-0.166923,-0.381736,-0.909073,0.000000,0.000000,0.000000,-1,-1.502864,-0.766718,0.296761,-0.078118,0.047858,0.025834
"2019-05-06 15:56:50.741 +0000",1557158210.741316,-0.201245,0.362357,0.038845,-0.186909,-0.354479,-0.916193,0.000000,0.000000,0.000000,-1,-1.378580,-1.093101,0.267941,-0.020885,-0.071058,-0.074545
"2019-05-06 15:56:50.761 +0000",1557158210.761296,-0.229240,0.337098,0.036886,-0.214448,-0.330750,-0.919030,0.000000,0.000000,0.000000,-1,-1.166904,-1.569150,0.120401,-0.043594,-0.010788,0.022317
"2019-05-06 15:56:50.781 +0000",1557158210.781307,-0.255563,0.317661,0.031108,-0.240143,-0.312345,-0.919115,0.000000,0.000000,0.000000,-1,-0.913728,-1.176018,-0.130679,-0.016754,0.030561,0.046007
"2019-05-06 15:56:50.801 +0000",1557158210.801283,-0.258876,0.304653,0.021917,-0.244206,-0.299962,-0.922164,0.000000,0.000000,0.000000,-1,-0.651626,0.253716,-0.314884,-0.001537,0.132940,0.096648
"2019-05-06 15:56:50.821 +0000",1557158210.821261,-0.247775,0.293131,0.014406,-0.234787,-0.288951,-0.928107,0.000000,0.000000,0.000000,-1,-0.624538,0.500600,-0.130388,-0.063675,0.057063,-0.054940
"2019-05-06 15:56:50.841 +0000",1557158210.841249,-0.235922,0.282510,0.009955,-0.224473,-0.278767,-0.933756,0.000000,0.000000,0.000000,-1,-0.510169,0.465077,-0.078812,-0.067427,0.071323,-0.063573
"2019-05-06 15:56:50.861 +0000",1557158210.861232,-0.230828,0.276787,0.005105,-0.220076,-0.273267,-0.936425,0.000000,0.000000,0.000000,-1,-0.197203,-0.011228,-0.232703,-0.031923,0.034284,-0.085395
"2019-05-06 15:56:50.881 +0000",1557158210.881214,-0.240777,0.274711,-0.000331,-0.229516,-0.271269,-0.934738,0.000000,0.000000,0.000000,-1,0.217825,-0.583469,-0.394490,-0.050895,0.048155,0.005173
"2019-05-06 15:56:50.901 +0000",1557158210.901195,-0.254162,0.281707,-0.006535,-0.241524,-0.277996,-0.929723,0.000000,0.000000,0.000000,-1,0.238150,-0.780193,-0.348386,-0.053291,-0.010029,-0.015986
"2019-05-06 15:56:50.921 +0000",1557158210.921175,-0.264758,0.285127,-0.014479,-0.251111,-0.281280,-0.926189,0.000000,0.000000,0.000000,-1,-0.045236,-0.526189,-0.480881,-0.020419,-0.031480,-0.032170
"2019-05-06 15:56:50.941 +0000",1557158210.941159,-0.265818,0.284844,-0.027298,-0.252114,-0.281007,-0.925999,0.000000,0.000000,0.000000,-1,-0.240640,-0.075842,-0.628431,0.018044,-0.056822,-0.068462
"2019-05-06 15:56:50.961 +0000",1557158210.961111,-0.258613,0.284232,-0.041940,-0.245479,-0.280421,-0.927957,0.000000,0.000000,0.000000,-1,-0.178384,0.265192,-0.693623,0.027324,-0.095174,-0.124594
"2019-05-06 15:56:50.981 +0000",1557158210.981122,-0.245773,0.285846,-0.057731,-0.233433,-0.281969,-0.930592,0.000000,0.000000,0.000000,-1,-0.077585,0.498934,-0.794057,0.022282,-0.121946,-0.119197
"2019-05-06 15:56:51.001 +0000",1557158211.001103,-0.228295,0.287786,-0.075113,-0.217010,-0.283830,-0.933995,0.000000,0.000000,0.000000,-1,-0.158630,0.729801,-0.834619,0.021438,-0.130355,-0.089168
"2019-05-06 15:56:51.021 +0000",1557158211.021072,-0.205272,0.285333,-0.091772,-0.195592,-0.281477,-0.939422,0.000000,0.000000,0.000000,-1,-0.399428,1.018974,-0.690633,0.019994,-0.064516,0.003570
"2019-05-06 15:56:51.041 +0000",1557158211.041066,-0.177726,0.278441,-0.107555,-0.169983,-0.274857,-0.946340,0.000000,0.000000,0.000000,-1,-0.512812,1.228600,-0.703704,-0.007019,-0.036560,0.032705
"2019-05-06 15:56:51.061 +0000",1557158211.061049,-0.145972,0.270299,-0.125125,-0.140172,-0.267019,-0.953442,0.000000,0.000000,0.000000,-1,-0.560199,1.423436,-0.803418,-0.051966,-0.019327,0.093488
"2019-05-06 15:56:51.081 +0000",1557158211.081029,-0.110379,0.259241,-0.144613,-0.106474,-0.256347,-0.960703,0.000000,0.000000,0.000000,-1,-0.749467,1.592068,-0.892814,-0.091158,0.095245,0.227228
"2019-05-06 15:56:51.101 +0000",1557158211.101008,-0.071180,0.242995,-0.164818,-0.069031,-0.240611,-0.968164,0.000000,0.000000,0.000000,-1,-0.992920,1.765925,-0.904983,-0.098740,0.119303,0.275110
"2019-05-06 15:56:51.121 +0000",1557158211.120994,-0.030083,0.220881,-0.184165,-0.029348,-0.219090,-0.975263,0.000000,0.000000,0.000000,-1,-1.257320,1.864278,-0.872172,-0.034632,0.168614,0.365934
"2019-05-06 15:56:51.141 +0000",1557158211.140973,0.008686,0.191948,-0.203230,0.008526,-0.190772,-0.981597,0.000000,0.000000,0.000000,-1,-1.563828,1.601883,-0.947671,0.111240,0.274542,0.386230
"2019-05-06 15:56:51.161 +0000",1557158211.160930,0.036751,0.159344,-0.222316,0.036277,-0.158671,-0.986665,0.000000,0.000000,0.000000,-1,-1.592352,1.014612,-0.986322,0.124001,0.301035,0.364518
"2019-05-06 15:56:51.181 +0000",1557158211.180915,0.054378,0.128372,-0.237980,0.053904,-0.128020,-0.990306,0.000000,0.000000,0.000000,-1,-1.472255,0.669402,-0.758069,0.158514,0.407378,0.420558
"2019-05-06 15:56:51.201 +0000",1557158211.200918,0.065297,0.099006,-0.246659,0.064931,-0.098844,-0.992982,0.000000,0.000000,0.000000,-1,-1.458462,0.362224,-0.364828,0.160396,0.389173,0.452669
"2019-05-06 15:56:51.221 +0000",1557158211.220890,0.066869,0.064057,-0.247284,0.066682,-0.064013,-0.995719,0.000000,0.000000,0.000000,-1,-1.999146,-0.112112,-0.052469,0.156157,0.363192,0.445975
"2019-05-06 15:56:51.241 +0000",1557158211.240864,0.057191,0.012408,-0.243857,0.057155,-0.012408,-0.998288,0.000000,0.000000,0.000000,-1,-2.939070,-0.727026,0.032327,0.131245,0.241122,0.194226
"2019-05-06 15:56:51.261 +0000",1557158211.260842,0.037936,-0.052846,-0.238951,0.037874,0.052822,-0.997885,0.000000,0.000000,0.000000,-1,-3.249315,-1.042059,0.166099,0.083814,0.142201,-0.156305
"2019-05-06 15:56:51.281 +0000",1557158211.280843,0.021415,-0.111004,-0.228847,0.021282,0.110777,-0.993617,0.000000,0.000000,0.000000,-1,-2.647758,-0.732451,0.522921,0.071049,0.055636,-0.329701
"2019-05-06 15:56:51.301 +0000",1557158211.300815,0.011663,-0.156043,-0.216537,0.011521,0.155411,-0.987783,0.000000,0.000000,0.000000,-1,-2.101261,-0.443034,0.580644,-0.002976,-0.237762,-0.758280
"2019-05-06 15:56:51.321 +0000",1557158211.320807,0.011180,-0.195765,-0.203470,0.010967,0.194517,-0.980838,0.000000,0.000000,0.000000,-1,-1.943691,0.015180,0.673684,-0.056300,-0.478742,-1.009168
"2019-05-06 15:56:51.341 +0000",1557158211.340761,0.017507,-0.228214,-0.187911,0.017052,0.226238,-0.973923,0.000000,0.000000,0.000000,-1,-1.356441,0.179000,0.775208,-0.092858,-0.606121,-1.124878
"2019-05-06 15:56:51.361 +0000",1557158211.360757,0.022345,-0.240317,-0.171283,0.021701,0.238010,-0.971020,0.000000,0.000000,0.000000,-1,-0.123338,-0.067648,0.783721,-0.241656,-0.652882,-1.260059
"2019-05-06 15:56:51.381 +0000",1557158211.380749,0.020037,-0.225684,-0.157718,0.019528,0.223773,-0.974446,0.000000,0.000000,0.000000,-1,1.180262,-0.362744,0.590651,-0.301678,-0.541018,-1.037609
"2019-05-06 15:56:51.401 +0000",1557158211.400731,0.015623,-0.192287,-0.148491,0.015334,0.191104,-0.981450,0.000000,0.000000,0.000000,-1,1.858952,-0.246189,0.432160,-0.281173,-0.477832,-0.675334
"2019-05-06 15:56:51.421 +0000",1557158211.420715,0.014960,-0.153736,-0.142568,0.014783,0.153132,-0.988095,0.000000,0.000000,0.000000,-1,1.904436,-0.003513,0.237221,-0.244154,-0.399241,-0.333072
"2019-05-06 15:56:51.441 +0000",1557158211.440683,0.015566,-0.118568,-0.142455,0.015456,0.118290,-0.992859,0.000000,0.000000,0.000000,-1,1.656055,0.002451,-0.105739,-0.216949,-0.318607,-0.114594
"2019-05-06 15:56:51.461 +0000",1557158211.460678,0.010953,-0.089337,-0.149817,0.010909,0.089219,-0.995952,0.000000,0.000000,0.000000,-1,1.358238,-0.342995,-0.477155,-0.135268,-0.225953,-0.013554
"2019-05-06 15:56:51.481 +0000",1557158211.480660,-0.002298,-0.064366,-0.162163,-0.002293,0.064321,-0.997927,0.000000,0.000000,0.000000,-1,1.229620,-0.748946,-0.665081,-0.037136,-0.118566,-0.004576
"2019-05-06 15:56:51.501 +0000",1557158211.500640,-0.019425,-0.037549,-0.175322,-0.019410,0.037540,-0.999107,0.000000,0.000000,0.000000,-1,1.431844,-0.821745,-0.661390,-0.000670,0.004101,0.014793
"2019-05-06 15:56:51.521 +0000",1557158211.520622,-0.034397,-0.006953,-0.188282,-0.034389,0.006953,-0.999384,0.000000,0.000000,0.000000,-1,1.486077,-0.692117,-0.718034,0.017284,0.003499,0.049799
"2019-05-06 15:56:51.541 +0000",1557158211.540605,-0.047850,0.017809,-0.202627,-0.047824,-0.017808,-0.998697,0.000000,0.000000,0.000000,-1,1.014119,-0.669327,-0.804395,0.048709,-0.059081,0.085138
"2019-05-06 15:56:51.561 +0000",1557158211.560585,-0.059310,0.035146,-0.218919,-0.059238,-0.035139,-0.997625,0.000000,0.000000,0.000000,-1,0.637981,-0.672258,-0.882113,0.102146,-0.116686,0.017813
"2019-05-06 15:56:51.581 +0000",1557158211.580546,-0.075090,0.048358,-0.236420,-0.074932,-0.048339,-0.996016,0.000000,0.000000,0.000000,-1,0.609091,-0.921719,-0.917308,0.113384,-0.139939,-0.013444
"2019-05-06 15:56:51.601 +0000",1557158211.600540,-0.093755,0.061228,-0.250222,-0.093442,-0.061189,-0.993743,0.000000,0.000000,0.000000,-1,0.540950,-0.889417,-0.648423,0.105756,-0.109083,-0.027559
"2019-05-06 15:56:51.620 +0000",1557158211.620499,-0.105764,0.069249,-0.259357,-0.105314,-0.069193,-0.992029,0.000000,0.000000,0.000000,-1,0.194260,-0.476108,-0.359114,0.129789,-0.148931,-0.017371
"2019-05-06 15:56:51.640 +0000",1557158211.640498,-0.110920,0.063796,-0.259882,-0.110468,-0.063753,-0.991833,0.000000,0.000000,0.000000,-1,-0.591842,-0.169921,0.244225,0.147196,-0.237273,0.031719
"2019-05-06 15:56:51.660 +0000",1557158211.660475,-0.110954,0.043183,-0.251192,-0.110623,-0.043170,-0.992924,0.000000,0.000000,0.000000,-1,-1.119163,0.127734,0.649500,0.084882,-0.217191,0.021214
"2019-05-06 15:56:51.680 +0000",1557158211.680472,-0.108435,0.020838,-0.238307,-0.108199,-0.020836,-0.993911,0.000000,0.000000,0.000000,-1,-0.864698,0.309350,0.785662,0.034972,-0.187965,0.074996
"2019-05-06 15:56:51.700 +0000",1557158211.700455,-0.094525,0.015660,-0.229097,-0.094373,-0.015660,-0.995414,0.000000,0.000000,0.000000,-1,0.218809,0.878441,0.268651,-0.017810,-0.150463,-0.001153
"2019-05-06 15:56:51.720 +0000",1557158211.720438,-0.076026,0.027878,-0.225564,-0.075924,-0.027874,-0.996724,0.000000,0.000000,0.000000,-1,0.688558,0.884050,0.099948,0.062069,-0.236652,-0.040096
"2019-05-06 15:56:51.740 +0000",1557158211.740418,-0.058949,0.036155,-0.222108,-0.058876,-0.036147,-0.997611,0.000000,0.000000,0.000000,-1,0.233366,0.921050,0.217385,0.097237,-0.113770,0.050589
"2019-05-06 15:56:51.760 +0000",1557158211.760401,-0.037461,0.033547,-0.213108,-0.037431,-0.033541,-0.998736,0.000000,0.000000,0.000000,-1,-0.319414,1.186950,0.607626,0.082017,-0.067839,0.095172
"2019-05-06 15:56:51.780 +0000",1557158211.780384,-0.010027,0.022302,-0.198234,-0.010024,-0.022300,-0.999701,0.000000,0.000000,0.000000,-1,-0.622641,1.484626,0.805272,0.101134,0.081855,0.145438
"2019-05-06 15:56:51.800 +0000",1557158211.800354,0.020114,0.011206,-0.182550,0.020111,-0.011206,-0.999735,0.000000,0.000000,0.000000,-1,-0.476047,1.530042,0.760774,0.094101,0.168493,0.082987
"2019-05-06 15:56:51.820 +0000",1557158211.820340,0.051800,0.006903,-0.168617,0.051775,-0.006903,-0.998635,0.000000,0.000000,0.000000,-1,-0.074889,1.618551,0.640981,0.087018,0.177145,0.024819
"2019-05-06 15:56:51.840 +0000",1557158211.840327,0.082787,0.011849,-0.158121,0.082686,-0.011849,-0.996505,0.000000,0.000000,0.000000,-1,0.357226,1.486149,0.475829,0.144868,0.145318,-0.008759
"2019-05-06 15:56:51.860 +0000",1557158211.860290,0.111139,0.021284,-0.151032,0.110885,-0.021282,-0.993605,0.000000,0.000000,0.000000,-1,0.426453,1.390668,0.371540,0.122239,0.090084,0.041106
"2019-05-06 15:56:51.880 +0000",1557158211.880290,0.135781,0.025288,-0.146304,0.135321,-0.025285,-0.990479,0.000000,0.000000,0.000000,-1,-0.071102,1.124998,0.145724,0.115000,-0.004545,0.036683
"2019-05-06 15:56:51.900 +0000",1557158211.900271,0.153983,0.012354,-0.146185,0.153363,-0.012354,-0.988093,0.000000,0.000000,0.000000,-1,-0.979502,0.794987,-0.214355,0.131717,-0.053976,-0.098943
"2019-05-06 15:56:51.920 +0000",1557158211.920254,0.168524,-0.014217,-0.146250,0.167711,0.014217,-0.985734,0.000000,0.000000,0.000000,-1,-1.421434,0.742885,-0.152801,0.125883,-0.016322,-0.229247
"2019-05-06 15:56:51.940 +0000",1557158211.940214,0.186473,-0.041089,-0.139697,0.185238,0.041077,-0.981835,0.000000,0.000000,0.000000,-1,-1.330333,1.064465,0.216477,0.103199,0.047195,-0.333610
"2019-05-06 15:56:51.960 +0000",1557158211.960205,0.220662,-0.062840,-0.129633,0.218444,0.062799,-0.973827,0.000000,0.000000,0.000000,-1,-1.032698,2.058870,0.277158,0.073350,-0.036141,-0.419362
"2019-05-06 15:56:51.980 +0000",1557158211.980197,0.268877,-0.075944,-0.121418,0.264883,0.075871,-0.961291,0.000000,0.000000,0.000000,-1,-0.557442,2.529550,0.178458,0.056619,-0.022572,-0.425031
"2019-05-06 15:56:52.000 +0000",1557158212.000168,0.319006,-0.083150,-0.119224,0.312539,0.083054,-0.946267,0.000000,0.000000,0.000000,-1,-0.318912,2.410765,-0.099807,0.091544,0.020034,-0.382697
"2019-05-06 15:56:52.020 +0000",1557158212.020144,0.362193,-0.091717,-0.120584,0.352837,0.091588,-0.931192,0.000000,0.000000,0.000000,-1,-0.443825,2.013156,-0.239748,0.099480,0.028575,-0.366477
"2019-05-06 15:56:52.040 +0000",1557158212.040145,0.396687,-0.102545,-0.118906,0.384335,0.102366,-0.917501,0.000000,0.000000,0.000000,-1,-0.583079,1.507151,-0.002788,0.079013,0.019521,-0.351924
"2019-05-06 15:56:52.060 +0000",1557158212.060122,0.419008,-0.113249,-0.109097,0.404249,0.113007,-0.907641,0.000000,0.000000,0.000000,-1,-0.757323,0.780965,0.357649,-0.008374,0.046050,-0.349195
"2019-05-06 15:56:52.080 +0000",1557158212.080107,0.427247,-0.123947,-0.094158,0.411188,0.123629,-0.903128,0.000000,0.000000,0.000000,-1,-0.763710,0.068813,0.493764,-0.151621,0.116941,-0.343469
"2019-05-06 15:56:52.100 +0000",1557158212.100089,0.423608,-0.129156,-0.081356,0.407629,0.128797,-0.904019,0.000000,0.000000,0.000000,-1,-0.294073,-0.437901,0.418547,-0.275091,0.201464,-0.309085
"2019-05-06 15:56:52.120 +0000",1557158212.120070,0.411585,-0.124539,-0.077565,0.396964,0.124217,-0.909390,0.000000,0.000000,0.000000,-1,0.392146,-0.697203,0.185436,-0.348411,0.222493,-0.196979
"2019-05-06 15:56:52.140 +0000",1557158212.140052,0.396821,-0.109984,-0.080115,0.384153,0.109763,-0.916722,0.000000,0.000000,0.000000,-1,0.877873,-0.730400,0.187757,-0.403227,0.246744,0.065708
"2019-05-06 15:56:52.160 +0000",1557158212.160033,0.381856,-0.088134,-0.082466,0.371197,0.088020,-0.924373,0.000000,0.000000,0.000000,-1,1.151235,-0.759399,0.397812,-0.392574,0.223153,0.143810
"2019-05-06 15:56:52.180 +0000",1557158212.180013,0.363223,-0.060354,-0.083004,0.354642,0.060317,-0.933055,0.000000,0.000000,0.000000,-1,1.395443,-1.089681,0.496172,-0.373517,0.164445,0.207164
"2019-05-06 15:56:52.200 +0000",1557158212.199997,0.333235,-0.030934,-0.087290,0.326946,0.030929,-0.944537,0.000000,0.000000,0.000000,-1,1.439448,-1.752495,0.081211,-0.426265,0.088669,0.254138
"2019-05-06 15:56:52.220 +0000",1557158212.219962,0.291430,-0.010267,-0.105890,0.287307,0.010267,-0.957784,0.000000,0.000000,0.000000,-1,1.140458,-2.235960,-1.017841,-0.391555,0.110704,0.120030
"2019-05-06 15:56:52.240 +0000",1557158212.239957,0.249924,-0.000050,-0.144809,0.247330,0.000050,-0.968931,0.000000,0.000000,0.000000,-1,1.062699,-1.752340,-2.086760,-0.393280,0.221263,0.166823
"2019-05-06 15:56:52.260 +0000",1557158212.259942,0.231724,0.017351,-0.194152,0.229621,-0.017350,-0.973126,0.000000,0.000000,0.000000,-1,1.634227,-0.440661,-2.152802,-0.412101,0.217561,0.233700
"2019-05-06 15:56:52.280 +0000",1557158212.279922,0.234644,0.039845,-0.237087,0.232313,-0.039835,-0.971825,0.000000,0.000000,0.000000,-1,1.415082,0.242429,-1.610837,-0.291105,0.221368,0.253899
"2019-05-06 15:56:52.300 +0000",1557158212.299875,0.236884,0.050130,-0.267381,0.234380,-0.050109,-0.970853,0.000000,0.000000,0.000000,-1,0.516880,-0.175879,-1.237662,-0.061681,0.096664,0.198682
"2019-05-06 15:56:52.320 +0000",1557158212.319885,0.222804,0.048274,-0.288832,0.220707,-0.048255,-0.974146,0.000000,0.000000,0.000000,-1,0.024544,-1.144221,-0.960428,0.081905,-0.087655,0.123667
"2019-05-06 15:56:52.340 +0000",1557158212.339866,0.187135,0.046098,-0.304656,0.185847,-0.046082,-0.981497,0.000000,0.000000,0.000000,-1,0.127783,-2.232029,-0.705851,0.070775,-0.188766,0.003302
"2019-05-06 15:56:52.360 +0000",1557158212.359848,0.134595,0.050038,-0.319146,0.134021,-0.050017,-0.989715,0.000000,0.000000,0.000000,-1,0.429614,-2.749041,-0.738064,0.062756,-0.154969,-0.101380
"2019-05-06 15:56:52.380 +0000",1557158212.379807,0.087888,0.060470,-0.338785,0.087614,-0.060433,-0.994320,0.000000,0.000000,0.000000,-1,0.709522,-2.105118,-1.040362,0.083315,-0.111213,-0.181217
"2019-05-06 15:56:52.400 +0000",1557158212.399813,0.056422,0.070118,-0.364360,0.056254,-0.070060,-0.995955,0.000000,0.000000,0.000000,-1,0.396768,-1.461782,-1.318241,0.105230,-0.128243,-0.275178
"2019-05-06 15:56:52.420 +0000",1557158212.419777,0.037655,0.070109,-0.390483,0.037553,-0.070052,-0.996836,0.000000,0.000000,0.000000,-1,-0.086486,-0.716082,-1.218902,0.188246,-0.118394,-0.266942
"2019-05-06 15:56:52.440 +0000",1557158212.439768,0.032044,0.065042,-0.407149,0.031971,-0.064996,-0.997373,0.000000,0.000000,0.000000,-1,-0.304229,-0.084143,-0.625448,0.279079,-0.063117,-0.115527
"2019-05-06 15:56:52.460 +0000",1557158212.459756,0.038575,0.056133,-0.414305,0.038505,-0.056103,-0.997682,0.000000,0.000000,0.000000,-1,-0.518784,0.441088,-0.228662,0.308953,-0.188282,-0.063521
"2019-05-06 15:56:52.480 +0000",1557158212.479708,0.045543,0.042132,-0.414066,0.045487,-0.042119,-0.998077,0.000000,0.000000,0.000000,-1,-0.794456,0.269888,0.073197,0.300475,-0.202677,-0.016267
"2019-05-06 15:56:52.500 +0000",1557158212.499720,0.047761,0.025480,-0.410061,0.047727,-0.025478,-0.998535,0.000000,0.000000,0.000000,-1,-0.831743,0.037993,0.208445,0.208712,-0.163609,0.057068
"2019-05-06 15:56:52.520 +0000",1557158212.519700,0.048528,0.012491,-0.403920,0.048505,-0.012491,-0.998745,0.000000,0.000000,0.000000,-1,-0.640266,-0.075395,0.303957,0.156680,-0.112998,0.077801
"2019-05-06 15:56:52.540 +0000",1557158212.539683,0.046086,0.002747,-0.396895,0.046070,-0.002747,-0.998934,0.000000,0.000000,0.000000,-1,-0.424518,-0.111152,0.341718,0.124600,-0.040313,0.034548
"2019-05-06 15:56:52.560 +0000",1557158212.559664,0.046825,-0.002799,-0.388534,0.046808,0.002799,-0.998900,0.000000,0.000000,0.000000,-1,-0.209148,0.150282,0.465277,0.119803,0.036614,-0.017106
"2019-05-06 15:56:52.580 +0000",1557158212.579626,0.054296,-0.001178,-0.375900,0.054269,0.001178,-0.998526,0.000000,0.000000,0.000000,-1,0.259145,0.506154,0.748927,0.119986,0.071530,0.008413
"2019-05-06 15:56:52.600 +0000",1557158212.599627,0.066668,0.014286,-0.358392,0.066611,-0.014286,-0.997677,0.000000,0.000000,0.000000,-1,0.970227,0.628815,1.000276,0.136544,-0.013592,0.125912
"2019-05-06 15:56:52.620 +0000",1557158212.619610,0.074862,0.038422,-0.339778,0.074737,-0.038413,-0.996463,0.000000,0.000000,0.000000,-1,1.142208,0.264017,0.984990,0.141648,-0.085946,0.226703
"2019-05-06 15:56:52.640 +0000",1557158212.639567,0.072191,0.057628,-0.323956,0.072008,-0.057596,-0.995740,0.000000,0.000000,0.000000,-1,0.706707,-0.292941,0.773200,0.120527,-0.081366,0.203732
"2019-05-06 15:56:52.660 +0000",1557158212.659570,0.063545,0.065833,-0.312951,0.063365,-0.065785,-0.995820,0.000000,0.000000,0.000000,-1,0.212884,-0.375681,0.458069,0.091420,-0.033366,0.201951
"2019-05-06 15:56:52.680 +0000",1557158212.679554,0.059416,0.067186,-0.307133,0.059247,-0.067135,-0.995983,0.000000,0.000000,0.000000,-1,-0.039177,-0.035383,0.216662,0.024280,0.132916,0.182598
"2019-05-06 15:56:52.700 +0000",1557158212.699516,0.065859,0.062805,-0.302943,0.065682,-0.062764,-0.995865,0.000000,0.000000,0.000000,-1,-0.377645,0.570017,0.210657,0.028038,0.182134,0.195206
"2019-05-06 15:56:52.720 +0000",1557158212.719516,0.084531,0.048662,-0.295074,0.084331,-0.048643,-0.995250,0.000000,0.000000,0.000000,-1,-0.967198,1.169009,0.440814,0.029317,0.168928,0.188899
"2019-05-06 15:56:52.739 +0000",1557158212.739499,0.112362,0.025237,-0.279597,0.112090,-0.025234,-0.993378,0.000000,0.000000,0.000000,-1,-1.354050,1.522783,0.781202,0.023072,0.146115,0.225769
"2019-05-06 15:56:52.759 +0000",1557158212.759480,0.142431,0.000742,-0.258375,0.141950,-0.000742,-0.989874,0.000000,0.000000,0.000000,-1,-1.293201,1.450973,0.935837,0.016894,0.107584,0.240652
"2019-05-06 15:56:52.779 +0000",1557158212.779460,0.165815,-0.016096,-0.236877,0.165035,0.016095,-0.986156,0.000000,0.000000,0.000000,-1,-0.773263,0.942849,0.930500,0.015416,0.063281,0.242763
"2019-05-06 15:56:52.799 +0000",1557158212.799441,0.176741,-0.020159,-0.216711,0.175786,0.020158,-0.984222,0.000000,0.000000,0.000000,-1,-0.172341,0.296213,0.987607,0.006999,-0.018235,0.247787
"2019-05-06 15:56:52.819 +0000",1557158212.819425,0.177673,-0.017751,-0.196063,0.176712,0.017751,-0.984102,0.000000,0.000000,0.000000,-1,-0.058972,-0.080378,1.060258,-0.010101,-0.030598,0.220644
"2019-05-06 15:56:52.839 +0000",1557158212.839404,0.176690,-0.016523,-0.174182,0.175748,0.016522,-0.984297,0.000000,0.000000,0.000000,-1,-0.172366,-0.007988,1.111934,-0.078901,-0.054456,0.097944
"2019-05-06 15:56:52.859 +0000",1557158212.859370,0.180674,-0.016129,-0.150721,0.179669,0.016128,-0.983595,0.000000,0.000000,0.000000,-1,-0.194768,0.284043,1.167659,-0.067883,-0.066040,-0.035845
"2019-05-06 15:56:52.879 +0000",1557158212.879371,0.188775,-0.016093,-0.128933,0.187631,0.016093,-0.982108,0.000000,0.000000,0.000000,-1,-0.192322,0.422680,0.988820,-0.063898,-0.083948,-0.175271
"2019-05-06 15:56:52.899 +0000",1557158212.899352,0.198380,-0.016201,-0.112885,0.197056,0.016200,-0.980258,0.000000,0.000000,0.000000,-1,-0.146319,0.484199,0.628524,-0.059971,-0.092571,-0.298016
"2019-05-06 15:56:52.919 +0000",1557158212.919335,0.206175,-0.019192,-0.108621,0.204680,0.019191,-0.978641,0.000000,0.000000,0.000000,-1,-0.233644,0.286994,-0.122126,-0.066267,-0.009074,-0.411801
"2019-05-06 15:56:52.939 +0000",1557158212.939316,0.209335,-0.028186,-0.115615,0.207727,0.028182,-0.977781,0.000000,0.000000,0.000000,-1,-0.473340,0.127343,-0.508864,-0.112374,0.111161,-0.496233
"2019-05-06 15:56:52.959 +0000",1557158212.959300,0.208467,-0.042189,-0.117185,0.206776,0.042176,-0.977479,0.000000,0.000000,0.000000,-1,-0.748547,-0.122055,0.006724,-0.112813,0.238906,-0.536865
"2019-05-06 15:56:52.979 +0000",1557158212.979280,0.210625,-0.053893,-0.108735,0.208767,0.053867,-0.976481,0.000000,0.000000,0.000000,-1,-0.562911,0.270332,0.412908,-0.076138,0.243802,-0.524221
"2019-05-06 15:56:52.999 +0000",1557158212.999246,0.218895,-0.056937,-0.097229,0.216799,0.056906,-0.974556,0.000000,0.000000,0.000000,-1,-0.069491,0.303525,0.585577,-0.224276,0.202432,-0.522682
"2019-05-06 15:56:53.019 +0000",1557158213.019243,0.217778,-0.048088,-0.090482,0.215811,0.048069,-0.975251,0.000000,0.000000,0.000000,-1,0.613460,-0.344382,0.287398,-0.227789,0.104976,-0.424178
"2019-05-06 15:56:53.039 +0000",1557158213.039227,0.203483,-0.031390,-0.093548,0.201982,0.031385,-0.978886,0.000000,0.000000,0.000000,-1,0.903829,-0.858097,-0.121417,-0.220567,0.026553,-0.207897
"2019-05-06 15:56:53.059 +0000",1557158213.059203,0.185094,-0.019821,-0.101316,0.184003,0.019820,-0.982726,0.000000,0.000000,0.000000,-1,0.394000,-0.864541,-0.342405,-0.265332,-0.009444,-0.065934
"2019-05-06 15:56:53.079 +0000",1557158213.079187,0.171160,-0.023795,-0.109860,0.170277,0.023793,-0.985109,0.000000,0.000000,0.000000,-1,-0.384060,-0.559104,-0.527542,-0.274281,0.025188,-0.054762
"2019-05-06 15:56:53.099 +0000",1557158213.099170,0.164383,-0.036205,-0.120312,0.163536,0.036197,-0.985873,0.000000,0.000000,0.000000,-1,-0.505206,-0.191859,-0.664214,-0.292519,0.110379,-0.090085
"2019-05-06 15:56:53.119 +0000",1557158213.119152,0.164906,-0.041745,-0.133544,0.164016,0.041733,-0.985574,0.000000,0.000000,0.000000,-1,0.082057,0.185911,-0.702514,-0.229095,0.159271,-0.008475
"2019-05-06 15:56:53.139 +0000",1557158213.139133,0.170239,-0.035350,-0.147862,0.169312,0.035342,-0.984929,0.000000,0.000000,0.000000,-1,0.583273,0.331982,-0.626365,-0.194656,0.108441,0.055440
"2019-05-06 15:56:53.159 +0000",1557158213.159117,0.176068,-0.026177,-0.162189,0.175100,0.026174,-0.984203,0.000000,0.000000,0.000000,-1,0.512961,0.279087,-0.636442,-0.152639,-0.003087,0.169353
"2019-05-06 15:56:53.179 +0000",1557158213.179085,0.178262,-0.021848,-0.176219,0.177277,0.021846,-0.983918,0.000000,0.000000,0.000000,-1,0.246327,0.008998,-0.662403,-0.113618,-0.052806,0.218141
"2019-05-06 15:56:53.199 +0000",1557158213.199052,0.173989,-0.019271,-0.190365,0.173081,0.019270,-0.984719,0.000000,0.000000,0.000000,-1,0.301197,-0.314053,-0.677074,-0.119232,-0.035246,0.231255
"2019-05-06 15:56:53.219 +0000",1557158213.219063,0.164302,-0.012395,-0.205632,0.163551,0.012395,-0.986457,0.000000,0.000000,0.000000,-1,0.566430,-0.571727,-0.719657,-0.088783,-0.051000,0.263846
"2019-05-06 15:56:53.239 +0000",1557158213.239043,0.149053,-0.001840,-0.223383,0.148502,0.001840,-0.988910,0.000000,0.000000,0.000000,-1,0.688688,-0.872328,-0.841423,-0.048313,-0.058511,0.273273
"2019-05-06 15:56:53.259 +0000",1557158213.259020,0.127845,0.009151,-0.243181,0.127491,-0.009151,-0.991797,0.000000,0.000000,0.000000,-1,0.676432,-1.170508,-0.940153,0.022899,-0.103687,0.254462
"2019-05-06 15:56:53.279 +0000",1557158213.278995,0.102311,0.019813,-0.263950,0.102113,-0.019812,-0.994576,0.000000,0.000000,0.000000,-1,0.627423,-1.343438,-0.971726,0.069335,-0.128870,0.214668
"2019-05-06 15:56:53.299 +0000",1557158213.298987,0.075939,0.028820,-0.284177,0.075835,-0.028816,-0.996704,0.000000,0.000000,0.000000,-1,0.464618,-1.319587,-0.984311,0.117799,-0.122338,0.120025
"2019-05-06 15:56:53.319 +0000",1557158213.318969,0.051921,0.034454,-0.304833,0.051867,-0.034447,-0.998060,0.000000,0.000000,0.000000,-1,0.294730,-1.163966,-1.004103,0.155057,-0.090263,-0.010317
"2019-05-06 15:56:53.339 +0000",1557158213.338951,0.032677,0.038856,-0.323350,0.032647,-0.038847,-0.998712,0.000000,0.000000,0.000000,-1,0.247708,-0.881722,-0.851547,0.185615,-0.084689,-0.155478
"2019-05-06 15:56:53.359 +0000",1557158213.358933,0.019264,0.042901,-0.338434,0.019245,-0.042888,-0.998895,0.000000,0.000000,0.000000,-1,0.196173,-0.609085,-0.679792,0.212398,-0.089345,-0.268760
"2019-05-06 15:56:53.379 +0000",1557158213.378914,0.010487,0.045522,-0.348153,0.010476,-0.045506,-0.998909,0.000000,0.000000,0.000000,-1,0.097758,-0.378268,-0.337688,0.216163,-0.097392,-0.332161
"2019-05-06 15:56:53.399 +0000",1557158213.398896,0.003660,0.044984,-0.349812,0.003656,-0.044969,-0.998982,0.000000,0.000000,0.000000,-1,-0.109297,-0.356578,0.052372,0.205023,-0.116881,-0.372799
"2019-05-06 15:56:53.419 +0000",1557158213.418876,-0.005821,0.041254,-0.345473,-0.005816,-0.041242,-0.999132,0.000000,0.000000,0.000000,-1,-0.189528,-0.551548,0.310652,0.127581,-0.088473,-0.372816
"2019-05-06 15:56:53.439 +0000",1557158213.438845,-0.020627,0.040973,-0.335687,-0.020608,-0.040961,-0.998948,0.000000,0.000000,0.000000,-1,0.161119,-0.823226,0.606084,0.114557,-0.097985,-0.346846
"2019-05-06 15:56:53.459 +0000",1557158213.458829,-0.040658,0.051857,-0.319561,-0.040592,-0.051833,-0.997830,0.000000,0.000000,0.000000,-1,0.819939,-1.042586,0.888615,0.060535,-0.116135,-0.254443
"2019-05-06 15:56:53.479 +0000",1557158213.478809,-0.063420,0.073421,-0.298932,-0.063207,-0.073355,-0.995301,0.000000,0.000000,0.000000,-1,1.280983,-1.062227,0.997234,0.015187,-0.197245,-0.043960
"2019-05-06 15:56:53.499 +0000",1557158213.498789,-0.085565,0.100034,-0.276215,-0.085034,-0.099867,-0.991361,0.000000,0.000000,0.000000,-1,1.445672,-0.974663,1.050814,0.044384,-0.225710,0.016614
"2019-05-06 15:56:53.519 +0000",1557158213.518758,-0.107643,0.124117,-0.252050,-0.106609,-0.123798,-0.986564,0.000000,0.000000,0.000000,-1,1.186472,-0.971913,1.076746,0.066784,-0.250622,0.082420
"2019-05-06 15:56:53.539 +0000",1557158213.538768,-0.127712,0.139591,-0.231353,-0.126126,-0.139138,-0.982208,0.000000,0.000000,0.000000,-1,0.703242,-0.758390,0.810040,0.018582,-0.110862,0.099274
"2019-05-06 15:56:53.559 +0000",1557158213.558722,-0.138114,0.146322,-0.218123,-0.136204,-0.145801,-0.979893,0.000000,0.000000,0.000000,-1,0.280105,-0.184724,0.484411,0.006596,0.003848,0.086934
"2019-05-06 15:56:53.579 +0000",1557158213.578731,-0.133406,0.148843,-0.211363,-0.131540,-0.148294,-0.980156,0.000000,0.000000,0.000000,-1,0.133550,0.573888,0.227983,0.004037,0.154611,0.098885
"2019-05-06 15:56:53.599 +0000",1557158213.598714,-0.113998,0.149595,-0.207732,-0.112481,-0.149038,-0.982413,0.000000,0.000000,0.000000,-1,-0.011341,1.194875,0.163229,0.107476,0.176992,0.212668
"2019-05-06 15:56:53.619 +0000",1557158213.618690,-0.088617,0.145132,-0.204680,-0.087571,-0.144623,-0.985604,0.000000,0.000000,0.000000,-1,-0.328876,1.298715,0.185827,0.118851,0.150467,0.266396
"2019-05-06 15:56:53.639 +0000",1557158213.638667,-0.065676,0.135363,-0.200746,-0.065028,-0.134950,-0.988716,0.000000,0.000000,0.000000,-1,-0.533806,1.086561,0.266869,0.142649,0.107560,0.363732
"2019-05-06 15:56:53.659 +0000",1557158213.658645,-0.046520,0.124174,-0.194268,-0.046145,-0.123855,-0.991227,0.000000,0.000000,0.000000,-1,-0.537935,0.959721,0.410431,0.120089,0.049041,0.386643
"2019-05-06 15:56:53.679 +0000",1557158213.678628,-0.030550,0.112871,-0.185176,-0.030351,-0.112632,-0.993173,0.000000,0.000000,0.000000,-1,-0.551138,0.769260,0.509600,0.096971,0.014442,0.388666
"2019-05-06 15:56:53.699 +0000",1557158213.698623,-0.019520,0.101778,-0.172691,-0.019418,-0.101602,-0.994636,0.000000,0.000000,0.000000,-1,-0.545558,0.541290,0.713550,0.069833,-0.075949,0.356956
"2019-05-06 15:56:53.719 +0000",1557158213.718606,-0.011005,0.090077,-0.156856,-0.010960,-0.089956,-0.995885,0.000000,0.000000,0.000000,-1,-0.594773,0.507127,0.813446,0.040868,-0.071345,0.260152
"2019-05-06 15:56:53.739 +0000",1557158213.738586,-0.001233,0.077144,-0.142405,-0.001230,-0.077068,-0.997025,0.000000,0.000000,0.000000,-1,-0.671487,0.579009,0.649038,-0.014228,-0.042134,0.107667
"2019-05-06 15:56:53.759 +0000",1557158213.758569,0.008612,0.062304,-0.131602,0.008595,-0.062264,-0.998023,0.000000,0.000000,0.000000,-1,-0.821565,0.438511,0.522326,-0.070729,-0.128013,-0.134912
"2019-05-06 15:56:53.779 +0000",1557158213.778550,0.017468,0.044125,-0.120079,0.017451,-0.044111,-0.998874,0.000000,0.000000,0.000000,-1,-0.943236,0.585307,0.567100,-0.045450,0.013746,-0.163006
"2019-05-06 15:56:53.799 +0000",1557158213.798533,0.034903,0.026983,-0.109456,0.034883,-0.026979,-0.999027,0.000000,0.000000,0.000000,-1,-0.800259,1.077095,0.461434,-0.014665,0.015398,-0.282559
"2019-05-06 15:56:53.819 +0000",1557158213.818514,0.056948,0.012856,-0.100469,0.056913,-0.012855,-0.998296,0.000000,0.000000,0.000000,-1,-0.725927,1.070729,0.391900,-0.034589,0.008003,-0.439478
"2019-05-06 15:56:53.838 +0000",1557158213.838475,0.075733,-0.002838,-0.092453,0.075660,0.002838,-0.997130,0.000000,0.000000,0.000000,-1,-0.866327,0.849267,0.331863,-0.091102,0.110230,-0.527788
"2019-05-06 15:56:53.858 +0000",1557158213.858438,0.088485,-0.020239,-0.083435,0.088351,0.020237,-0.995884,0.000000,0.000000,0.000000,-1,-0.923072,0.446414,0.459313,-0.144854,0.043590,-0.579861
"2019-05-06 15:56:53.878 +0000",1557158213.878421,0.093641,-0.037813,-0.069664,0.093437,0.037804,-0.994907,0.000000,0.000000,0.000000,-1,-0.933511,0.178132,0.659045,-0.132347,0.132362,-0.474362
"2019-05-06 15:56:53.898 +0000",1557158213.898378,0.099516,-0.052505,-0.056535,0.099215,0.052481,-0.993681,0.000000,0.000000,0.000000,-1,-0.667357,0.302121,0.520510,-0.170107,0.097132,-0.353243
"2019-05-06 15:56:53.918 +0000",1557158213.918383,0.104942,-0.058902,-0.047756,0.104568,0.058868,-0.992774,0.000000,0.000000,0.000000,-1,-0.151508,0.205751,0.309154,-0.165237,0.129502,-0.269067
"2019-05-06 15:56:53.938 +0000",1557158213.938364,0.106005,-0.053438,-0.045797,0.105655,0.053413,-0.992967,0.000000,0.000000,0.000000,-1,0.499052,-0.088350,0.022522,-0.150455,0.069512,-0.172407
"2019-05-06 15:56:53.958 +0000",1557158213.958347,0.098477,-0.037341,-0.048970,0.098249,0.037333,-0.994461,0.000000,0.000000,0.000000,-1,0.981227,-0.515261,-0.106322,-0.159361,-0.021586,-0.044250
"2019-05-06 15:56:53.978 +0000",1557158213.978328,0.085526,-0.015991,-0.055128,0.085410,0.015991,-0.996218,0.000000,0.000000,0.000000,-1,1.099302,-0.705141,-0.303400,-0.160316,-0.028167,-0.031248
"2019-05-06 15:56:53.998 +0000",1557158213.998311,0.068311,0.003760,-0.067829,0.068257,-0.003760,-0.997661,0.000000,0.000000,0.000000,-1,0.999494,-0.936227,-0.729797,-0.167516,-0.082284,0.007823
"2019-05-06 15:56:54.018 +0000",1557158214.018291,0.052430,0.018777,-0.085749,0.052397,-0.018776,-0.998450,0.000000,0.000000,0.000000,-1,0.655895,-0.548163,-0.880758,-0.269026,0.074363,0.015296
"2019-05-06 15:56:54.038 +0000",1557158214.038258,0.049467,0.026588,-0.104677,0.049430,-0.026585,-0.998424,0.000000,0.000000,0.000000,-1,0.318327,0.054276,-0.962455,-0.270819,0.137852,0.044246
"2019-05-06 15:56:54.058 +0000",1557158214.058236,0.058675,0.027974,-0.124320,0.058618,-0.027971,-0.997889,0.000000,0.000000,0.000000,-1,0.023275,0.652059,-0.947679,-0.193872,0.256578,0.073114
"2019-05-06 15:56:54.078 +0000",1557158214.078238,0.077017,0.026334,-0.138624,0.076914,-0.026331,-0.996690,0.000000,0.000000,0.000000,-1,-0.040456,0.980342,-0.548145,-0.118739,0.251963,0.155473
"2019-05-06 15:56:54.098 +0000",1557158214.098200,0.092947,0.026325,-0.144212,0.092781,-0.026322,-0.995339,0.000000,0.000000,0.000000,-1,0.077470,0.584687,-0.147937,-0.101311,0.138962,0.243202
"2019-05-06 15:56:54.118 +0000",1557158214.118202,0.093842,0.030057,-0.146648,0.093662,-0.030052,-0.995150,0.000000,0.000000,0.000000,-1,0.267121,-0.299728,-0.132423,-0.103443,-0.013191,0.320941
"2019-05-06 15:56:54.138 +0000",1557158214.138183,0.079580,0.035730,-0.152375,0.079446,-0.035723,-0.996199,0.000000,0.000000,0.000000,-1,0.297067,-0.890898,-0.338910,-0.126748,-0.114927,0.379271
"2019-05-06 15:56:54.158 +0000",1557158214.158164,0.061650,0.038513,-0.161160,0.061565,-0.038504,-0.997360,0.000000,0.000000,0.000000,-1,0.074925,-0.870781,-0.468369,-0.145733,-0.131098,0.379806
"2019-05-06 15:56:54.178 +0000",1557158214.178147,0.048741,0.036107,-0.171401,0.048690,-0.036099,-0.998161,0.000000,0.000000,0.000000,-1,-0.193947,-0.527732,-0.551074,-0.129028,-0.124164,0.340172
"2019-05-06 15:56:54.198 +0000",1557158214.198128,0.041765,0.028617,-0.183916,0.041736,-0.028613,-0.998719,0.000000,0.000000,0.000000,-1,-0.419609,-0.292947,-0.703091,-0.078692,-0.076047,0.260697
"2019-05-06 15:56:54.218 +0000",1557158214.218110,0.037923,0.019487,-0.199280,0.037907,-0.019486,-0.999091,0.000000,0.000000,0.000000,-1,-0.393336,-0.175780,-0.829293,-0.042912,-0.049225,0.192893
"2019-05-06 15:56:54.238 +0000",1557158214.238078,0.033640,0.013511,-0.216576,0.033631,-0.013511,-0.999343,0.000000,0.000000,0.000000,-1,-0.188164,-0.294035,-0.902102,0.021362,-0.083382,0.142226
"2019-05-06 15:56:54.258 +0000",1557158214.258050,0.025357,0.009947,-0.235562,0.025353,-0.009947,-0.999629,0.000000,0.000000,0.000000,-1,-0.157818,-0.511643,-0.984813,0.111671,-0.114839,0.001201
"2019-05-06 15:56:54.278 +0000",1557158214.278043,0.011990,0.005895,-0.255158,0.011990,-0.005895,-0.999911,0.000000,0.000000,0.000000,-1,-0.181809,-0.780336,-0.987853,0.142734,-0.112284,-0.067579
"2019-05-06 15:56:54.298 +0000",1557158214.298024,-0.005915,0.003407,-0.274127,-0.005915,-0.003407,-0.999977,0.000000,0.000000,0.000000,-1,-0.066265,-0.944575,-0.880096,0.141322,-0.051556,-0.226769
"2019-05-06 15:56:54.318 +0000",1557158214.318015,-0.024476,0.004374,-0.286154,-0.024473,-0.004374,-0.999691,0.000000,0.000000,0.000000,-1,0.088053,-0.895419,-0.412633,0.072752,-0.055929,-0.389408
"2019-05-06 15:56:54.338 +0000",1557158214.337974,-0.039052,0.005780,-0.288829,-0.039041,-0.005780,-0.999221,0.000000,0.000000,0.000000,-1,0.018799,-0.597961,-0.002325,0.068094,-0.093585,-0.430650
"2019-05-06 15:56:54.358 +0000",1557158214.357954,-0.044652,0.002894,-0.286458,-0.044637,-0.002894,-0.998999,0.000000,0.000000,0.000000,-1,-0.242293,-0.078349,0.187090,0.048452,-0.153265,-0.463586
"2019-05-06 15:56:54.378 +0000",1557158214.377964,-0.041082,-0.004254,-0.280849,-0.041070,0.004254,-0.999147,0.000000,0.000000,0.000000,-1,-0.357672,0.294285,0.370387,0.040231,-0.141400,-0.435332
"2019-05-06 15:56:54.398 +0000",1557158214.397940,-0.033672,-0.008691,-0.270890,-0.033665,0.008691,-0.999395,0.000000,0.000000,0.000000,-1,-0.065968,0.379962,0.582141,0.047443,-0.149926,-0.397333
"2019-05-06 15:56:54.418 +0000",1557158214.417913,-0.027718,-0.004110,-0.256813,-0.027714,0.004110,-0.999607,0.000000,0.000000,0.000000,-1,0.458818,0.213313,0.767993,0.043904,-0.145116,-0.225383
"2019-05-06 15:56:54.438 +0000",1557158214.437896,-0.027266,0.011503,-0.239058,-0.027261,-0.011503,-0.999562,0.000000,0.000000,0.000000,-1,0.991187,-0.101968,0.916360,0.056360,-0.211871,-0.121547
"2019-05-06 15:56:54.458 +0000",1557158214.457875,-0.035441,0.033118,-0.219440,-0.035415,-0.033112,-0.998824,0.000000,0.000000,0.000000,-1,1.128441,-0.557080,0.937452,0.067687,-0.212478,-0.085328
"2019-05-06 15:56:54.478 +0000",1557158214.477872,-0.048955,0.053518,-0.202400,-0.048865,-0.053492,-0.997372,0.000000,0.000000,0.000000,-1,1.000026,-0.621894,0.706047,0.031668,-0.136739,-0.010730
"2019-05-06 15:56:54.498 +0000",1557158214.497854,-0.058690,0.070747,-0.191073,-0.058509,-0.070688,-0.995781,0.000000,0.000000,0.000000,-1,0.806008,-0.335773,0.412255,0.041084,0.030298,0.111977
"2019-05-06 15:56:54.518 +0000",1557158214.517823,-0.061667,0.084403,-0.184961,-0.061409,-0.084303,-0.994546,0.000000,0.000000,0.000000,-1,0.656014,-0.004300,0.186949,0.050514,0.138151,0.274575
"2019-05-06 15:56:54.538 +0000",1557158214.537805,-0.058795,0.095239,-0.181972,-0.058495,-0.095095,-0.993748,0.000000,0.000000,0.000000,-1,0.448984,0.233482,0.080978,0.108666,0.174624,0.420109
"2019-05-06 15:56:54.558 +0000",1557158214.557801,-0.052670,0.099054,-0.180726,-0.052388,-0.098892,-0.993718,0.000000,0.000000,0.000000,-1,0.037236,0.330299,0.051391,0.193974,0.191879,0.546559
"2019-05-06 15:56:54.578 +0000",1557158214.577760,-0.050039,0.095287,-0.177623,-0.049791,-0.095142,-0.994218,0.000000,0.000000,0.000000,-1,-0.298565,-0.026390,0.269367,0.200029,0.141361,0.570374
"2019-05-06 15:56:54.598 +0000",1557158214.597740,-0.059167,0.083737,-0.168504,-0.058926,-0.083640,-0.994752,0.000000,0.000000,0.000000,-1,-0.745913,-0.642296,0.591000,0.173199,0.084891,0.486360
"2019-05-06 15:56:54.618 +0000",1557158214.617721,-0.075728,0.061569,-0.158139,-0.075512,-0.061531,-0.995245,0.000000,0.000000,0.000000,-1,-1.211470,-0.792853,0.561126,0.141614,0.032203,0.337972
"2019-05-06 15:56:54.638 +0000",1557158214.637721,-0.089157,0.037317,-0.149130,-0.088977,-0.037308,-0.995335,0.000000,0.000000,0.000000,-1,-1.080024,-0.562713,0.569826,0.071246,0.040986,0.160801
"2019-05-06 15:56:54.658 +0000",1557158214.657698,-0.097474,0.019979,-0.137245,-0.097301,-0.019978,-0.995054,0.000000,0.000000,0.000000,-1,-0.642418,-0.282880,0.733051,-0.025929,0.050907,0.066954
"2019-05-06 15:56:54.678 +0000",1557158214.677686,-0.096192,0.009287,-0.123075,-0.096040,-0.009287,-0.995334,0.000000,0.000000,0.000000,-1,-0.389707,0.347427,0.741933,-0.065627,-0.054769,-0.029477
"2019-05-06 15:56:54.698 +0000",1557158214.697660,-0.080862,0.000703,-0.110077,-0.080774,-0.000703,-0.996732,0.000000,0.000000,0.000000,-1,-0.383898,0.982935,0.649034,-0.050345,-0.090209,-0.043887
"2019-05-06 15:56:54.718 +0000",1557158214.717638,-0.056596,-0.007729,-0.099037,-0.056564,0.007729,-0.998369,0.000000,0.000000,0.000000,-1,-0.382995,1.305136,0.543813,0.034789,-0.152031,-0.068953
"2019-05-06 15:56:54.738 +0000",1557158214.737633,-0.032092,-0.014639,-0.089316,-0.032083,0.014639,-0.999378,0.000000,0.000000,0.000000,-1,-0.278288,1.108505,0.483132,0.072518,-0.148489,-0.189190
"2019-05-06 15:56:54.758 +0000",1557158214.757601,-0.014947,-0.018247,-0.080478,-0.014944,0.018246,-0.999722,0.000000,0.000000,0.000000,-1,-0.097154,0.706681,0.408430,0.046835,-0.123348,-0.258045
"2019-05-06 15:56:54.778 +0000",1557158214.777578,-0.006809,-0.016115,-0.074346,-0.006808,0.016115,-0.999847,0.000000,0.000000,0.000000,-1,0.257275,0.170784,0.251059,0.045718,-0.076646,-0.413971
"2019-05-06 15:56:54.798 +0000",1557158214.797584,-0.010681,-0.006279,-0.070318,-0.010681,0.006279,-0.999923,0.000000,0.000000,0.000000,-1,0.607522,-0.360042,0.176796,-0.002533,-0.037101,-0.517518
"2019-05-06 15:56:54.818 +0000",1557158214.817534,-0.019381,0.006006,-0.067045,-0.019379,-0.006006,-0.999794,0.000000,0.000000,0.000000,-1,0.557633,-0.439490,0.146828,-0.040222,-0.029227,-0.537071
"2019-05-06 15:56:54.838 +0000",1557158214.837545,-0.026046,0.011648,-0.064542,-0.026042,-0.011648,-0.999593,0.000000,0.000000,0.000000,-1,0.103693,-0.219289,0.104362,-0.151143,0.001272,-0.592143
"2019-05-06 15:56:54.858 +0000",1557158214.857528,-0.025690,0.010342,-0.062308,-0.025686,-0.010342,-0.999617,0.000000,0.000000,0.000000,-1,-0.095065,0.148731,0.132134,-0.113398,0.052472,-0.597872
"2019-05-06 15:56:54.878 +0000",1557158214.877508,-0.020859,0.010179,-0.059365,-0.020856,-0.010179,-0.999731,0.000000,0.000000,0.000000,-1,0.094550,0.243765,0.151820,-0.109759,0.097489,-0.592280
"2019-05-06 15:56:54.897 +0000",1557158214.897487,-0.021676,0.022418,-0.054655,-0.021669,-0.022416,-0.999514,0.000000,0.000000,0.000000,-1,1.007028,-0.258413,0.286201,-0.113646,0.075974,-0.311796
"2019-05-06 15:56:54.917 +0000",1557158214.917474,-0.035115,0.051611,-0.047782,-0.035061,-0.051588,-0.998053,0.000000,0.000000,0.000000,-1,1.623754,-0.901683,0.269878,-0.132084,0.021254,-0.143915
"2019-05-06 15:56:54.937 +0000",1557158214.937436,-0.058347,0.082468,-0.044111,-0.058116,-0.082374,-0.994906,0.000000,0.000000,0.000000,-1,1.461932,-1.238306,0.020415,-0.253423,0.016167,0.026690
"2019-05-06 15:56:54.957 +0000",1557158214.957439,-0.083077,0.106576,-0.044765,-0.082510,-0.106374,-0.990897,0.000000,0.000000,0.000000,-1,1.009724,-0.917627,-0.236944,-0.307642,0.057073,0.105780
"2019-05-06 15:56:54.977 +0000",1557158214.977419,-0.093742,0.120331,-0.052168,-0.092928,-0.120041,-0.988410,0.000000,0.000000,0.000000,-1,0.457317,-0.384045,-0.540309,-0.316328,0.137253,0.130714
"2019-05-06 15:56:54.997 +0000",1557158214.997384,-0.098336,0.125363,-0.065192,-0.097408,-0.125035,-0.987359,0.000000,0.000000,0.000000,-1,0.214882,0.012474,-0.775521,-0.262761,0.200231,0.169061
"2019-05-06 15:56:55.017 +0000",1557158215.017380,-0.095283,0.130293,-0.081105,-0.094332,-0.129925,-0.987026,0.000000,0.000000,0.000000,-1,0.136483,0.017045,-0.811601,-0.201963,0.227383,0.222805
"2019-05-06 15:56:55.037 +0000",1557158215.037358,-0.095966,0.132651,-0.096601,-0.094977,-0.132262,-0.986654,0.000000,0.000000,0.000000,-1,-0.016202,-0.231339,-0.740449,-0.130197,0.183455,0.300863
"2019-05-06 15:56:55.057 +0000",1557158215.057317,-0.101767,0.131684,-0.109309,-0.100712,-0.131304,-0.986213,0.000000,0.000000,0.000000,-1,-0.158548,-0.439755,-0.546764,-0.120983,0.166185,0.317100
"2019-05-06 15:56:55.077 +0000",1557158215.077313,-0.109922,0.128511,-0.119003,-0.108797,-0.128158,-0.985768,0.000000,0.000000,0.000000,-1,-0.232571,-0.473927,-0.421547,-0.090209,0.108474,0.342458
"2019-05-06 15:56:55.097 +0000",1557158215.097291,-0.117841,0.123986,-0.127348,-0.116666,-0.123669,-0.985442,0.000000,0.000000,0.000000,-1,-0.293836,-0.420810,-0.367058,-0.062640,0.011684,0.359984
"2019-05-06 15:56:55.117 +0000",1557158215.117271,-0.123921,0.117852,-0.134926,-0.122746,-0.117579,-0.985448,0.000000,0.000000,0.000000,-1,-0.395177,-0.301652,-0.334705,-0.039973,-0.046453,0.359579
"2019-05-06 15:56:55.137 +0000",1557158215.137249,-0.126194,0.108822,-0.144610,-0.125115,-0.108608,-0.986180,0.000000,0.000000,0.000000,-1,-0.577070,-0.076520,-0.495785,-0.012382,-0.142094,0.362721
"2019-05-06 15:56:55.157 +0000",1557158215.157255,-0.123950,0.097194,-0.158850,-0.123049,-0.097041,-0.987645,0.000000,0.000000,0.000000,-1,-0.711478,0.080686,-0.719955,0.019396,-0.167135,0.319844
"2019-05-06 15:56:55.177 +0000",1557158215.177238,-0.120934,0.084558,-0.177992,-0.120208,-0.084457,-0.989150,0.000000,0.000000,0.000000,-1,-0.746122,0.033671,-0.949362,0.037918,-0.156586,0.301329
"2019-05-06 15:56:55.197 +0000",1557158215.197190,-0.120632,0.074200,-0.198818,-0.120008,-0.074132,-0.990001,0.000000,0.000000,0.000000,-1,-0.539924,-0.127336,-0.937673,0.087797,-0.138683,0.221584
"2019-05-06 15:56:55.217 +0000",1557158215.217203,-0.124630,0.070235,-0.215544,-0.124002,-0.070178,-0.989797,0.000000,0.000000,0.000000,-1,-0.143470,-0.368080,-0.725093,0.094491,-0.174909,0.057760
"2019-05-06 15:56:55.237 +0000",1557158215.237173,-0.134621,0.072931,-0.228447,-0.133858,-0.072867,-0.988318,0.000000,0.000000,0.000000,-1,0.133010,-0.621926,-0.638533,0.077050,-0.229150,-0.004617
"2019-05-06 15:56:55.257 +0000",1557158215.257162,-0.144940,0.077503,-0.241198,-0.143999,-0.077426,-0.986544,0.000000,0.000000,0.000000,-1,0.093414,-0.484630,-0.687719,0.068697,-0.283277,-0.066877
"2019-05-06 15:56:55.277 +0000",1557158215.277146,-0.150652,0.077479,-0.256942,-0.149632,-0.077401,-0.985708,0.000000,0.000000,0.000000,-1,-0.254800,-0.281372,-0.843040,0.059773,-0.184180,-0.292353
"2019-05-06 15:56:55.297 +0000",1557158215.297120,-0.155133,0.072849,-0.274560,-0.154102,-0.072785,-0.985371,0.000000,0.000000,0.000000,-1,-0.367647,-0.302547,-0.765244,0.020359,-0.119705,-0.421475
"2019-05-06 15:56:55.317 +0000",1557158215.317084,-0.157138,0.071099,-0.285978,-0.156096,-0.071039,-0.985184,0.000000,0.000000,0.000000,-1,-0.029865,0.042928,-0.439246,-0.045365,0.007959,-0.558838
"2019-05-06 15:56:55.337 +0000",1557158215.337091,-0.147870,0.075779,-0.291990,-0.146909,-0.075706,-0.986249,0.000000,0.000000,0.000000,-1,0.287966,0.673614,-0.263284,-0.040698,0.061470,-0.499164
"2019-05-06 15:56:55.357 +0000",1557158215.357058,-0.128705,0.083749,-0.292859,-0.127900,-0.083651,-0.988253,0.000000,0.000000,0.000000,-1,0.450640,1.102552,0.020869,0.037202,0.047671,-0.378446
"2019-05-06 15:56:55.377 +0000",1557158215.377058,-0.103989,0.094466,-0.286373,-0.103339,-0.094325,-0.990164,0.000000,0.000000,0.000000,-1,0.634131,1.318693,0.396012,0.089545,-0.016423,-0.233958
"2019-05-06 15:56:55.397 +0000",1557158215.397038,-0.081884,0.107755,-0.273295,-0.081318,-0.107547,-0.990869,0.000000,0.000000,0.000000,-1,0.785289,1.034751,0.710650,0.082096,-0.069913,-0.162619
"2019-05-06 15:56:55.417 +0000",1557158215.417018,-0.069785,0.123573,-0.253832,-0.069197,-0.123259,-0.989959,0.000000,0.000000,0.000000,-1,0.865059,0.495124,0.978996,0.102431,-0.109529,-0.059083
"2019-05-06 15:56:55.437 +0000",1557158215.437002,-0.072178,0.137093,-0.234176,-0.071439,-0.136664,-0.988038,0.000000,0.000000,0.000000,-1,0.647314,-0.307059,0.865871,0.113309,-0.153803,-0.039748
"2019-05-06 15:56:55.457 +0000",1557158215.456964,-0.090895,0.144858,-0.220274,-0.089819,-0.144352,-0.985442,0.000000,0.000000,0.000000,-1,0.303665,-1.142113,0.495597,0.027335,0.016025,-0.124559
"2019-05-06 15:56:55.477 +0000",1557158215.476964,-0.120259,0.149702,-0.216357,-0.118628,-0.149144,-0.981674,0.000000,0.000000,0.000000,-1,0.309927,-1.562326,-0.014970,0.012136,0.102849,-0.127274
"2019-05-06 15:56:55.497 +0000",1557158215.496947,-0.150633,0.161107,-0.217849,-0.148121,-0.160411,-0.975873,0.000000,0.000000,0.000000,-1,0.705248,-1.437562,-0.174486,-0.011516,0.195491,-0.054568
"2019-05-06 15:56:55.517 +0000",1557158215.516898,-0.171474,0.176087,-0.216838,-0.167996,-0.175178,-0.970098,0.000000,0.000000,0.000000,-1,0.673674,-0.714606,0.014190,-0.003467,0.151131,0.092473
"2019-05-06 15:56:55.537 +0000",1557158215.536912,-0.173724,0.181734,-0.212273,-0.170005,-0.180735,-0.968728,0.000000,0.000000,0.000000,-1,0.083711,0.293322,0.264473,0.008170,0.144190,0.161126
"2019-05-06 15:56:55.557 +0000",1557158215.556893,-0.159417,0.176148,-0.205996,-0.156286,-0.175239,-0.972042,0.000000,0.000000,0.000000,-1,-0.366703,0.997478,0.371868,0.082998,0.082648,0.289471
"2019-05-06 15:56:55.577 +0000",1557158215.576865,-0.137902,0.165598,-0.201230,-0.135585,-0.164843,-0.976956,0.000000,0.000000,0.000000,-1,-0.534587,1.099182,0.263881,0.174113,0.005281,0.402310
"2019-05-06 15:56:55.597 +0000",1557158215.596839,-0.121421,0.154212,-0.197723,-0.119686,-0.153601,-0.980858,0.000000,0.000000,0.000000,-1,-0.538606,0.677476,0.255509,0.170543,-0.014337,0.445396
"2019-05-06 15:56:55.617 +0000",1557158215.616840,-0.114764,0.143129,-0.192784,-0.113341,-0.142640,-0.983264,0.000000,0.000000,0.000000,-1,-0.521514,0.207616,0.343616,0.218627,-0.062758,0.471377
"2019-05-06 15:56:55.637 +0000",1557158215.636820,-0.116243,0.130270,-0.187032,-0.114999,-0.129902,-0.984835,0.000000,0.000000,0.000000,-1,-0.674563,-0.177555,0.331271,0.196710,-0.068676,0.440326
"2019-05-06 15:56:55.657 +0000",1557158215.656778,-0.124790,0.114241,-0.185878,-0.123655,-0.113992,-0.985756,0.000000,0.000000,0.000000,-1,-0.847420,-0.568124,0.014800,0.197248,-0.087347,0.425957
"2019-05-06 15:56:55.677 +0000",1557158215.676757,-0.137984,0.097409,-0.192436,-0.136894,-0.097255,-0.985800,0.000000,0.000000,0.000000,-1,-0.857461,-0.692419,-0.325887,0.168465,-0.063298,0.350576
"2019-05-06 15:56:55.697 +0000",1557158215.696764,-0.137075,0.088259,-0.199826,-0.136115,-0.088145,-0.986764,0.000000,0.000000,0.000000,-1,-0.227671,0.356231,-0.234130,0.127585,-0.047765,0.193780
"2019-05-06 15:56:55.717 +0000",1557158215.716739,-0.113153,0.092958,-0.205698,-0.112424,-0.092824,-0.989315,0.000000,0.000000,0.000000,-1,0.316816,0.516487,-0.289694,0.120969,-0.000086,0.078716
"2019-05-06 15:56:55.737 +0000",1557158215.736721,-0.105693,0.103462,-0.211934,-0.104932,-0.103277,-0.989102,0.000000,0.000000,0.000000,-1,0.549606,0.210209,-0.389952,0.064039,-0.012400,-0.094287
"2019-05-06 15:56:55.757 +0000",1557158215.756710,-0.103737,0.114388,-0.217897,-0.102874,-0.114139,-0.988124,0.000000,0.000000,0.000000,-1,0.455781,0.098695,-0.315713,0.036132,-0.013638,-0.117024
"2019-05-06 15:56:55.777 +0000",1557158215.776679,-0.092378,0.121853,-0.221124,-0.091563,-0.121552,-0.988353,0.000000,0.000000,0.000000,-1,0.319558,0.771974,-0.116181,0.018229,-0.043441,-0.231984
"2019-05-06 15:56:55.797 +0000",1557158215.796657,-0.074575,0.128469,-0.222790,-0.073892,-0.128116,-0.989003,0.000000,0.000000,0.000000,-1,0.364303,0.968543,-0.169034,0.025506,0.005633,-0.351390
"2019-05-06 15:56:55.817 +0000",1557158215.816657,-0.049361,0.139716,-0.228464,-0.048860,-0.139262,-0.989049,0.000000,0.000000,0.000000,-1,0.668429,1.467663,-0.384948,-0.150466,0.025203,-0.432932
"2019-05-06 15:56:55.837 +0000",1557158215.836614,-0.009701,0.157036,-0.235944,-0.009581,-0.156391,-0.987649,0.000000,0.000000,0.000000,-1,0.938179,2.169058,-0.362409,-0.232545,0.033283,-0.461845
"2019-05-06 15:56:55.857 +0000",1557158215.856606,0.039302,0.175323,-0.240870,0.038689,-0.174427,-0.983910,0.000000,0.000000,0.000000,-1,0.865978,2.485175,-0.147397,-0.130242,0.013950,-0.420707
"2019-05-06 15:56:55.877 +0000",1557158215.876603,0.084823,0.191410,-0.241274,0.083174,-0.190243,-0.978207,0.000000,0.000000,0.000000,-1,0.807131,2.062686,0.151837,-0.078169,0.038052,-0.446048
"2019-05-06 15:56:55.897 +0000",1557158215.896583,0.114755,0.211573,-0.237219,0.111950,-0.209998,-0.971271,0.000000,0.000000,0.000000,-1,1.131786,1.205955,0.375573,-0.008038,0.012687,-0.507565
"2019-05-06 15:56:55.917 +0000",1557158215.916566,0.125877,0.241677,-0.230884,0.121897,-0.239331,-0.963256,0.000000,0.000000,0.000000,-1,1.660200,0.252121,0.559427,-0.123987,-0.019107,-0.475145
"2019-05-06 15:56:55.937 +0000",1557158215.936523,0.110719,0.276941,-0.220401,0.106283,-0.273414,-0.956007,0.000000,0.000000,0.000000,-1,1.512313,-1.196187,0.811110,-0.158651,-0.167717,-0.401980
"2019-05-06 15:56:55.957 +0000",1557158215.956530,0.076384,0.299728,-0.206849,0.072907,-0.295261,-0.952631,0.000000,0.000000,0.000000,-1,0.843614,-1.500848,0.634820,-0.160615,-0.151990,-0.268026
"2019-05-06 15:56:55.977 +0000",1557158215.976512,0.049708,0.309804,-0.201032,0.047322,-0.304872,-0.951217,0.000000,0.000000,0.000000,-1,0.315976,-1.048482,0.116754,-0.180836,-0.116911,-0.261567
"2019-05-06 15:56:55.996 +0000",1557158215.996471,0.038119,0.313320,-0.203739,0.036254,-0.308218,-0.950625,0.000000,0.000000,0.000000,-1,0.139505,-0.372356,-0.236594,-0.270858,-0.001993,-0.066801
"2019-05-06 15:56:56.016 +0000",1557158216.016474,0.038820,0.316996,-0.210654,0.036876,-0.311713,-0.949460,0.000000,0.000000,0.000000,-1,0.254473,0.049355,-0.329382,-0.271526,0.012428,0.025892
"2019-05-06 15:56:56.036 +0000",1557158216.036458,0.044771,0.322244,-0.215757,0.042452,-0.316695,-0.947577,0.000000,0.000000,0.000000,-1,0.213348,0.372865,-0.127934,-0.233721,0.018172,0.259756
"2019-05-06 15:56:56.056 +0000",1557158216.056440,0.047093,0.321970,-0.211192,0.044657,-0.316436,-0.947562,0.000000,0.000000,0.000000,-1,-0.150072,-0.031522,0.430202,-0.133921,0.062851,0.265708
"2019-05-06 15:56:56.076 +0000",1557158216.076420,0.028396,0.320150,-0.196986,0.026949,-0.314709,-0.948806,0.000000,0.000000,0.000000,-1,-0.034233,-1.270447,0.761473,-0.148577,0.126156,0.228454
"2019-05-06 15:56:56.096 +0000",1557158216.096403,-0.018408,0.324868,-0.182587,-0.017445,-0.319183,-0.947532,0.000000,0.000000,0.000000,-1,0.409667,-2.402496,0.585992,-0.047451,0.184937,0.180305
"2019-05-06 15:56:56.116 +0000",1557158216.116384,-0.066977,0.334670,-0.173647,-0.063214,-0.328458,-0.942401,0.000000,0.000000,0.000000,-1,0.463771,-2.142561,0.297204,-0.080158,0.129590,0.266925
"2019-05-06 15:56:56.136 +0000",1557158216.136347,-0.096140,0.337509,-0.173667,-0.090577,-0.331138,-0.939225,0.000000,0.000000,0.000000,-1,-0.012254,-0.959472,-0.215812,-0.059219,0.128593,0.310456
"2019-05-06 15:56:56.156 +0000",1557158216.156329,-0.095118,0.337261,-0.182479,-0.089624,-0.330903,-0.939399,0.000000,0.000000,0.000000,-1,-0.051262,0.380933,-0.449754,-0.047171,0.104570,0.281074
"2019-05-06 15:56:56.176 +0000",1557158216.176330,-0.072314,0.338314,-0.188279,-0.068156,-0.331897,-0.940850,0.000000,0.000000,0.000000,-1,0.088801,1.407899,-0.125437,-0.047704,0.133472,0.281259
"2019-05-06 15:56:56.196 +0000",1557158216.196284,-0.039942,0.341208,-0.184757,-0.037629,-0.334625,-0.941600,0.000000,0.000000,0.000000,-1,0.172675,1.721856,0.312056,-0.045180,0.119690,0.286738
"2019-05-06 15:56:56.216 +0000",1557158216.216294,-0.013622,0.345603,-0.175154,-0.012816,-0.338764,-0.940784,0.000000,0.000000,0.000000,-1,0.302493,1.237565,0.503861,0.137663,-0.068233,0.218067
"2019-05-06 15:56:56.236 +0000",1557158216.236276,-0.004000,0.357946,-0.162494,-0.003747,-0.350351,-0.936611,0.000000,0.000000,0.000000,-1,0.878359,0.399476,0.660934,0.086755,-0.176047,0.163555
"2019-05-06 15:56:56.256 +0000",1557158216.256233,-0.010153,0.383053,-0.146900,-0.009417,-0.373754,-0.927480,0.000000,0.000000,0.000000,-1,1.424179,-0.214021,0.699123,0.100557,-0.104975,0.109823
"2019-05-06 15:56:56.276 +0000",1557158216.276216,-0.019464,0.411726,-0.132286,-0.017836,-0.400192,-0.916258,0.000000,0.000000,0.000000,-1,1.390869,-0.118176,0.651302,0.001418,-0.048264,0.209700
"2019-05-06 15:56:56.296 +0000",1557158216.296221,-0.027143,0.434255,-0.116784,-0.024621,-0.420734,-0.906850,0.000000,0.000000,0.000000,-1,0.964414,-0.073561,0.683696,0.032891,-0.161617,0.194768
"2019-05-06 15:56:56.316 +0000",1557158216.316186,-0.038203,0.447653,-0.103152,-0.034430,-0.432851,-0.900808,0.000000,0.000000,0.000000,-1,0.557518,-0.417228,0.524362,0.093970,-0.186031,0.101614
"2019-05-06 15:56:56.336 +0000",1557158216.336187,-0.054513,0.456121,-0.093971,-0.048916,-0.440469,-0.896434,0.000000,0.000000,0.000000,-1,0.392074,-0.637158,0.331801,0.099789,-0.197440,-0.066044
"2019-05-06 15:56:56.356 +0000",1557158216.356143,-0.061886,0.460390,-0.085664,-0.055407,-0.444297,-0.894164,0.000000,0.000000,0.000000,-1,0.064925,0.204877,0.402460,0.042269,-0.158486,-0.188508
"2019-05-06 15:56:56.376 +0000",1557158216.376149,-0.052773,0.456567,-0.074732,-0.047346,-0.440869,-0.896322,0.000000,0.000000,0.000000,-1,-0.242363,0.905282,0.567970,0.035123,-0.163364,-0.205012
"2019-05-06 15:56:56.396 +0000",1557158216.396132,-0.040392,0.450459,-0.060595,-0.036353,-0.435379,-0.899513,0.000000,0.000000,0.000000,-1,-0.253612,0.870917,0.700277,0.039252,-0.142090,-0.284035
"2019-05-06 15:56:56.416 +0000",1557158216.416098,-0.035503,0.447083,-0.043035,-0.032007,-0.432337,-0.901144,0.000000,0.000000,0.000000,-1,-0.056089,0.468344,0.858246,0.018930,-0.154104,-0.355738
"2019-05-06 15:56:56.436 +0000",1557158216.436093,-0.036231,0.450553,-0.021276,-0.032608,-0.435464,-0.899616,0.000000,0.000000,0.000000,-1,0.406197,0.502623,1.050830,0.014725,-0.165367,-0.338574
"2019-05-06 15:56:56.456 +0000",1557158216.456078,-0.034465,0.462883,0.004327,-0.030832,-0.446529,-0.894238,0.000000,0.000000,0.000000,-1,0.744350,0.710703,1.142974,-0.053854,-0.131275,-0.317570
"2019-05-06 15:56:56.476 +0000",1557158216.476057,-0.030423,0.477351,0.029383,-0.027018,-0.459428,-0.887804,0.000000,0.000000,0.000000,-1,0.731824,0.792826,1.047467,-0.093344,-0.094741,-0.255125
"2019-05-06 15:56:56.496 +0000",1557158216.496039,-0.027043,0.487438,0.050528,-0.023890,-0.468364,-0.883213,0.000000,0.000000,0.000000,-1,0.403634,0.543675,0.827686,-0.071141,-0.103596,-0.267743
"2019-05-06 15:56:56.516 +0000",1557158216.516009,-0.027301,0.494294,0.064718,-0.024030,-0.474410,-0.879976,0.000000,0.000000,0.000000,-1,0.401586,0.213247,0.493561,-0.011309,-0.045396,-0.302717
"2019-05-06 15:56:56.536 +0000",1557158216.536005,-0.027161,0.505323,0.073766,-0.023764,-0.484090,-0.874695,0.000000,0.000000,0.000000,-1,0.647530,0.288459,0.343344,0.005484,0.105672,-0.265212
"2019-05-06 15:56:56.556 +0000",1557158216.555957,-0.020794,0.518969,0.082089,-0.018055,-0.495985,-0.868143,0.000000,0.000000,0.000000,-1,0.687683,0.666514,0.351288,-0.001293,0.159651,-0.152532
"2019-05-06 15:56:56.576 +0000",1557158216.575966,-0.007875,0.531289,0.089785,-0.006790,-0.506645,-0.862128,0.000000,0.000000,0.000000,-1,0.575966,0.921941,0.296390,-0.011673,0.200447,-0.028299
"2019-05-06 15:56:56.596 +0000",1557158216.595950,0.007884,0.541648,0.095370,0.006755,-0.515549,-0.856833,0.000000,0.000000,0.000000,-1,0.499172,0.899039,0.210357,-0.006297,0.207932,0.065269
"2019-05-06 15:56:56.616 +0000",1557158216.615920,0.021411,0.551824,0.099355,0.018231,-0.524241,-0.851375,0.000000,0.000000,0.000000,-1,0.524935,0.697288,0.157369,-0.007642,0.214457,0.092830
"2019-05-06 15:56:56.636 +0000",1557158216.635901,0.031217,0.563190,0.101610,0.026392,-0.533886,-0.845144,0.000000,0.000000,0.000000,-1,0.584950,0.477435,0.087794,0.025305,0.207638,0.145147
"2019-05-06 15:56:56.656 +0000",1557158216.655895,0.039324,0.574964,0.103224,0.032992,-0.543804,-0.838563,0.000000,0.000000,0.000000,-1,0.579428,0.464660,0.101668,0.036176,0.221844,0.164155
"2019-05-06 15:56:56.676 +0000",1557158216.675857,0.049090,0.585778,0.106230,0.040890,-0.552848,-0.832278,0.000000,0.000000,0.000000,-1,0.494742,0.643131,0.177600,0.024296,0.219168,0.187366
"2019-05-06 15:56:56.696 +0000",1557158216.695859,0.060726,0.594241,0.111101,0.050285,-0.559880,-0.827047,0.000000,0.000000,0.000000,-1,0.360894,0.739942,0.251311,-0.016761,0.227849,0.211187
