timestamp,timeIntervalSince1970,attitude.roll,attitude.pitch,attitude.yaw,gravity.x,gravity.y,gravity.z,magneticField.x,magneticField.y,magneticField.z,magneticField.accuracy,rotationRate.x,rotationRate.y,rotationRate.z,userAcceleration.x,userAcceleration.y,userAcceleration.z
"2019-05-06 15:54:49.901 +0000",1557158089.900585,0.441449,0.411236,-0.103488,0.391629,-0.399743,-0.828753,0.000000,0.000000,0.000000,-1,-0.063297,-2.733407,-1.403834,-0.105603,0.181969,-0.180722
"2019-05-06 15:54:49.921 +0000",1557158089.920622,0.397232,0.397932,-0.131282,0.356639,-0.387513,-0.850084,0.000000,0.000000,0.000000,-1,-0.186344,-2.909775,-1.398451,-0.137630,0.157105,-0.141844
"2019-05-06 15:54:49.941 +0000",1557158089.940628,0.346137,0.377010,-0.147081,0.315440,-0.368142,-0.874625,0.000000,0.000000,0.000000,-1,-1.056095,-2.667686,-0.788768,-0.316035,0.124352,-0.164758
"2019-05-06 15:54:49.961 +0000",1557158089.960606,0.300386,0.344795,-0.142223,0.278474,-0.338003,-0.899003,0.000000,0.000000,0.000000,-1,-1.912676,-1.914210,0.013972,-0.297884,0.198828,-0.152557
"2019-05-06 15:54:49.981 +0000",1557158089.980645,0.264745,0.300582,-0.117545,0.249931,-0.296076,-0.921886,0.000000,0.000000,0.000000,-1,-2.741451,-1.101495,0.781141,-0.225929,0.237147,-0.135625
"2019-05-06 15:54:50.001 +0000",1557158090.000636,0.242246,0.247477,-0.079028,0.232575,-0.244959,-0.941225,0.000000,0.000000,0.000000,-1,-3.116427,-0.343761,1.319999,-0.240769,0.132822,-0.059798
"2019-05-06 15:54:50.021 +0000",1557158090.020656,0.226515,0.198001,-0.034743,0.220195,-0.196710,-0.955416,0.000000,0.000000,0.000000,-1,-2.674652,-0.396445,1.610612,-0.245128,0.089746,0.070604
"2019-05-06 15:54:50.041 +0000",1557158090.040663,0.215882,0.167720,0.007692,0.211203,-0.166935,-0.963082,0.000000,0.000000,0.000000,-1,-1.381657,0.259719,1.730409,-0.227499,0.125660,0.120110
"2019-05-06 15:54:50.061 +0000",1557158090.060670,0.217122,0.168449,0.041982,0.212371,-0.167653,-0.962700,0.000000,0.000000,0.000000,-1,0.310358,0.233913,1.591753,-0.222290,0.244924,0.084434
"2019-05-06 15:54:50.081 +0000",1557158090.080671,0.211313,0.200534,0.066561,0.205541,-0.199192,-0.958162,0.000000,0.000000,0.000000,-1,1.886114,-0.304272,1.495199,-0.451131,0.313496,0.106325
"2019-05-06 15:54:50.101 +0000",1557158090.100688,0.185627,0.260889,0.091173,0.178317,-0.257940,-0.949563,0.000000,0.000000,0.000000,-1,3.119355,-1.457647,2.190238,-0.518238,0.391226,0.108163
"2019-05-06 15:54:50.121 +0000",1557158090.120669,0.136296,0.327833,0.118266,0.128638,-0.321992,-0.937962,0.000000,0.000000,0.000000,-1,2.846426,-2.227188,1.237719,0.153039,0.383912,-0.129207
"2019-05-06 15:54:50.141 +0000",1557158090.140697,0.095946,0.370214,0.121826,0.089308,-0.361815,-0.927962,0.000000,0.000000,0.000000,-1,1.559678,-1.804443,0.088055,-0.240065,-0.009492,-0.099702
"2019-05-06 15:54:50.161 +0000",1557158090.160685,0.057974,0.388496,0.122964,0.053623,-0.378797,-0.923925,0.000000,0.000000,0.000000,-1,0.700958,-2.075625,0.287886,-0.324558,0.088269,-0.049708
"2019-05-06 15:54:50.181 +0000",1557158090.180712,-0.002164,0.409004,0.139066,-0.001986,-0.397696,-0.917515,0.000000,0.000000,0.000000,-1,1.365399,-2.999517,1.054854,-0.234251,0.247321,-0.007229
"2019-05-06 15:54:50.201 +0000",1557158090.200696,-0.080997,0.453419,0.172219,-0.072733,-0.438042,-0.896007,0.000000,0.000000,0.000000,-1,2.917284,-3.636910,1.552451,-0.162024,0.323402,0.164455
"2019-05-06 15:54:50.221 +0000",1557158090.220728,-0.193495,0.529894,0.217877,-0.165919,-0.505442,-0.846758,0.000000,0.000000,0.000000,-1,4.720981,-5.151439,1.332660,-0.024633,0.391566,0.273928
"2019-05-06 15:54:50.241 +0000",1557158090.240702,-0.353593,0.633075,0.279165,-0.279168,-0.591627,-0.756335,0.000000,0.000000,0.000000,-1,6.140969,-6.963410,0.962488,0.007668,0.412641,0.144595
"2019-05-06 15:54:50.261 +0000",1557158090.260712,-0.568146,0.743320,0.380236,-0.396141,-0.676736,-0.620565,0.000000,0.000000,0.000000,-1,6.836535,-7.462828,1.216038,0.007988,0.377862,-0.003687
"2019-05-06 15:54:50.281 +0000",1557158090.280749,-0.802263,0.807222,0.514844,-0.497146,-0.722369,-0.480654,0.000000,0.000000,0.000000,-1,4.441032,-6.370466,2.090511,0.076446,0.462466,-0.307935
"2019-05-06 15:54:50.301 +0000",1557158090.300755,-0.977963,0.808276,0.637115,-0.572878,-0.723097,-0.385929,0.000000,0.000000,0.000000,-1,2.884606,-3.356795,2.825046,0.089510,0.533843,0.023288
"2019-05-06 15:54:50.321 +0000",1557158090.320764,-1.118372,0.783167,0.749626,-0.637382,-0.705528,-0.309799,0.000000,0.000000,0.000000,-1,2.904993,-3.042243,3.151365,0.072669,0.398597,-0.225373
"2019-05-06 15:54:50.341 +0000",1557158090.340765,-1.270374,0.749105,0.866825,-0.699500,-0.680983,-0.216704,0.000000,0.000000,0.000000,-1,3.485468,-3.781349,3.099850,0.085761,0.320052,-0.297776
"2019-05-06 15:54:50.361 +0000",1557158090.360757,-1.413011,0.702667,0.974992,-0.753642,-0.646255,-0.119910,0.000000,0.000000,0.000000,-1,3.271493,-3.245441,3.245318,-0.092474,0.264465,-0.235955
"2019-05-06 15:54:50.381 +0000",1557158090.380753,-1.523805,0.641660,1.062491,-0.800219,-0.598526,-0.037631,0.000000,0.000000,0.000000,-1,3.089713,-2.669560,3.468469,-0.055677,0.211258,-0.215024
"2019-05-06 15:54:50.401 +0000",1557158090.400771,-1.626489,0.570618,1.144219,-0.840262,-0.540153,0.046845,0.000000,0.000000,0.000000,-1,3.580687,-2.978644,3.529488,-0.066629,0.173423,-0.264420
"2019-05-06 15:54:50.421 +0000",1557158090.420787,-1.734410,0.496628,1.224219,-0.867453,-0.476464,0.143207,0.000000,0.000000,0.000000,-1,3.887847,-3.582517,3.046697,-0.432077,-0.014762,-0.030017
"2019-05-06 15:54:50.441 +0000",1557158090.440807,-1.823358,0.432111,1.291278,-0.879275,-0.418788,0.226917,0.000000,0.000000,0.000000,-1,3.329565,-2.411733,2.302909,-0.422803,0.042232,-0.040836
"2019-05-06 15:54:50.461 +0000",1557158090.460794,-1.898279,0.379456,1.342538,-0.879502,-0.370415,0.298780,0.000000,0.000000,0.000000,-1,2.904885,-2.971938,1.528136,-0.474502,-0.142280,0.294161
"2019-05-06 15:54:50.481 +0000",1557158090.480810,-1.981396,0.350151,1.380223,-0.861246,-0.343040,0.374939,0.000000,0.000000,0.000000,-1,1.325071,-3.680455,0.062916,-0.905249,-0.290749,0.786194
"2019-05-06 15:54:50.501 +0000",1557158090.500827,-2.022625,0.352579,1.389540,-0.844308,-0.345319,0.409753,0.000000,0.000000,0.000000,-1,-0.064777,-0.620116,-0.562367,-0.276907,0.150220,0.003272
"2019-05-06 15:54:50.521 +0000",1557158090.520814,-2.018094,0.362892,1.389440,-0.842901,-0.354979,0.404362,0.000000,0.000000,0.000000,-1,-0.011005,0.372570,-0.328869,-0.177058,0.261595,-0.174839
"2019-05-06 15:54:50.541 +0000",1557158090.540812,-2.035674,0.360172,1.409958,-0.836522,-0.352435,0.419548,0.000000,0.000000,0.000000,-1,1.468941,-1.140021,-0.270253,-0.056056,0.213061,-0.172981
"2019-05-06 15:54:50.561 +0000",1557158090.560818,-2.083864,0.344499,1.447357,-0.820053,-0.337725,0.462012,0.000000,0.000000,0.000000,-1,2.071987,-1.982173,-0.043757,0.015030,0.108324,-0.172813
"2019-05-06 15:54:50.581 +0000",1557158090.580837,-2.138778,0.322039,1.481046,-0.799652,-0.316502,0.510278,0.000000,0.000000,0.000000,-1,1.830735,-2.277349,0.231508,0.021149,0.121952,-0.129021
"2019-05-06 15:54:50.601 +0000",1557158090.600833,-2.194161,0.299037,1.507174,-0.775887,-0.294600,0.557863,0.000000,0.000000,0.000000,-1,1.535088,-2.410685,0.252068,-0.018425,0.145903,0.014739
"2019-05-06 15:54:50.621 +0000",1557158090.620839,-2.240831,0.280469,1.524659,-0.753173,-0.276807,0.596748,0.000000,0.000000,0.000000,-1,1.019230,-1.828581,0.252877,-0.265305,0.154797,-0.152137
"2019-05-06 15:54:50.641 +0000",1557158090.640877,-2.271012,0.267722,1.532104,-0.737462,-0.264535,0.621427,0.000000,0.000000,0.000000,-1,0.650872,-0.980050,0.080218,-0.120281,0.280755,0.052539
"2019-05-06 15:54:50.661 +0000",1557158090.660884,-2.282594,0.261005,1.546874,-0.731544,-0.258052,0.631073,0.000000,0.000000,0.000000,-1,0.768487,-0.121432,-0.295502,-0.174157,0.234614,-0.107147
"2019-05-06 15:54:50.681 +0000",1557158090.680860,-2.281439,0.256390,1.562822,-0.733167,-0.253591,0.630998,0.000000,0.000000,0.000000,-1,0.740980,0.493162,-0.365463,-0.148212,0.178945,-0.152742
"2019-05-06 15:54:50.701 +0000",1557158090.700898,-2.276609,0.253652,1.577451,-0.736732,-0.250940,0.627897,0.000000,0.000000,0.000000,-1,0.551783,0.301838,-0.381212,-0.168664,0.184137,-0.128142
"2019-05-06 15:54:50.721 +0000",1557158090.720897,-2.280627,0.251761,1.598533,-0.734561,-0.249110,0.631161,0.000000,0.000000,0.000000,-1,1.258617,-0.003751,-0.736087,0.073658,-0.011068,-0.163601
"2019-05-06 15:54:50.741 +0000",1557158090.740884,-2.299986,0.244945,1.625543,-0.723456,-0.242503,0.646378,0.000000,0.000000,0.000000,-1,0.875640,-0.743291,-0.436045,0.087484,-0.007162,-0.006989
"2019-05-06 15:54:50.761 +0000",1557158090.760920,-2.312941,0.241729,1.631927,-0.715592,-0.239382,0.656219,0.000000,0.000000,0.000000,-1,0.163377,-0.579026,0.068958,0.105988,0.012530,-0.146774
"2019-05-06 15:54:50.781 +0000",1557158090.780896,-2.329082,0.235039,1.632635,-0.706054,-0.232881,0.668770,0.000000,0.000000,0.000000,-1,0.306882,-0.920157,0.285810,0.000503,-0.059432,-0.134072
"2019-05-06 15:54:50.801 +0000",1557158090.800929,-2.349312,0.226075,1.630061,-0.693840,-0.224154,0.684354,0.000000,0.000000,0.000000,-1,0.115800,-1.154198,0.503018,0.036034,-0.131269,0.012683
"2019-05-06 15:54:50.821 +0000",1557158090.820942,-2.374559,0.218882,1.614991,-0.677444,-0.217138,0.702795,0.000000,0.000000,0.000000,-1,-0.574406,-1.626190,1.032183,0.019531,-0.236078,-0.039037
"2019-05-06 15:54:50.841 +0000",1557158090.840947,-2.403862,0.207594,1.572888,-0.658169,-0.206106,0.724109,0.000000,0.000000,0.000000,-1,-1.151296,-2.037169,2.381855,-0.056446,0.375159,0.030148
"2019-05-06 15:54:50.861 +0000",1557158090.860929,-2.425772,0.189038,1.510398,-0.644547,-0.187914,0.741113,0.000000,0.000000,0.000000,-1,-1.502237,-1.257311,3.276099,-0.004837,0.055621,0.144553
"2019-05-06 15:54:50.881 +0000",1557158090.880963,-2.406996,0.164190,1.426020,-0.661274,-0.163453,0.732121,0.000000,0.000000,0.000000,-1,-1.942301,1.139296,4.168632,0.017459,0.268449,-0.207584
"2019-05-06 15:54:50.901 +0000",1557158090.900965,-2.377574,0.137381,1.354430,-0.685310,-0.136950,0.715259,0.000000,0.000000,0.000000,-1,-0.871242,0.384378,2.743956,-0.345421,-0.140577,-0.253726
"2019-05-06 15:54:50.921 +0000",1557158090.920954,-2.384321,0.107624,1.292575,-0.682967,-0.107416,0.722508,0.000000,0.000000,0.000000,-1,-1.339823,-1.027877,3.256569,-0.094041,0.495127,-0.153676
"2019-05-06 15:54:50.941 +0000",1557158090.940985,-2.394971,0.092034,1.229942,-0.676288,-0.091904,0.730882,0.000000,0.000000,0.000000,-1,-1.807620,-0.568099,2.774138,-0.032620,0.247681,-0.152238
"2019-05-06 15:54:50.961 +0000",1557158090.960990,-2.382194,0.081532,1.153351,-0.686198,-0.081442,0.722841,0.000000,0.000000,0.000000,-1,-2.439428,1.243221,3.251243,0.279002,-0.192942,0.065199
"2019-05-06 15:54:50.981 +0000",1557158090.980982,-2.325219,0.087424,1.082397,-0.725884,-0.087312,0.682252,0.000000,0.000000,0.000000,-1,-2.121843,2.316339,1.486040,0.276025,0.188844,0.252852
"2019-05-06 15:54:51.001 +0000",1557158091.001006,-2.307939,0.078425,1.055836,-0.738116,-0.078345,0.670109,0.000000,0.000000,0.000000,-1,-0.219766,0.422074,1.312555,0.179782,0.129599,0.260021
"2019-05-06 15:54:51.021 +0000",1557158091.021011,-2.293910,0.055203,1.038091,-0.748607,-0.055175,0.660715,0.000000,0.000000,0.000000,-1,0.280159,0.671919,1.524787,-0.082875,0.063338,0.041129
"2019-05-06 15:54:51.041 +0000",1557158091.041015,-2.275034,0.027495,1.020440,-0.761817,-0.027491,0.647209,0.000000,0.000000,0.000000,-1,0.161650,1.015672,1.622834,-0.156899,0.073603,-0.161003
"2019-05-06 15:54:51.061 +0000",1557158091.061007,-2.254765,0.004411,1.000799,-0.775064,-0.004411,0.631868,0.000000,0.000000,0.000000,-1,-0.131996,0.962483,1.431622,-0.137427,0.063447,-0.157350
"2019-05-06 15:54:51.081 +0000",1557158091.081013,-2.240912,-0.011080,0.982222,-0.783702,0.011079,0.621038,0.000000,0.000000,0.000000,-1,-0.318911,0.624126,1.020411,-0.163182,0.528487,-0.063315
"2019-05-06 15:54:51.101 +0000",1557158091.101035,-2.229831,-0.019202,0.968150,-0.790438,0.019201,0.612241,0.000000,0.000000,0.000000,-1,-0.234420,0.522681,0.623469,-0.159880,0.734461,-0.051466
"2019-05-06 15:54:51.121 +0000",1557158091.121049,-2.219752,-0.024690,0.961073,-0.796472,0.024687,0.604171,0.000000,0.000000,0.000000,-1,-0.249042,0.372368,0.339104,-0.182730,1.323869,-0.384444
"2019-05-06 15:54:51.141 +0000",1557158091.141041,-2.213773,-0.018402,0.949118,-0.800179,0.018401,0.599479,0.000000,0.000000,0.000000,-1,-0.710125,0.391874,0.021996,-0.032692,0.414552,-0.175468
"2019-05-06 15:54:51.161 +0000",1557158091.161057,-2.211486,-0.004685,0.938257,-0.801675,0.004685,0.597742,0.000000,0.000000,0.000000,-1,-0.953078,-0.206063,-0.391111,-0.039481,0.255202,-0.222071
"2019-05-06 15:54:51.181 +0000",1557158091.181045,-2.228797,0.013569,0.925075,-0.791143,-0.013569,0.611480,0.000000,0.000000,0.000000,-1,-1.165958,-1.157937,-0.116165,0.109655,-0.050289,0.097947
"2019-05-06 15:54:51.201 +0000",1557158091.201065,-2.245562,0.022808,0.906720,-0.780650,-0.022806,0.624552,0.000000,0.000000,0.000000,-1,-0.746290,-0.693360,0.299234,0.142360,0.307398,0.375585
"2019-05-06 15:54:51.221 +0000",1557158091.221084,-2.248313,0.020936,0.905422,-0.778961,-0.020934,0.626723,0.000000,0.000000,0.000000,-1,0.303224,0.028500,0.077679,0.049042,0.249481,0.131837
"2019-05-06 15:54:51.241 +0000",1557158091.241093,-2.250017,0.016702,0.908358,-0.777954,-0.016701,0.628099,0.000000,0.000000,0.000000,-1,0.138736,-0.086187,0.068998,-0.001816,0.266457,-0.077303
"2019-05-06 15:54:51.261 +0000",1557158091.261098,-2.252027,0.014864,0.908163,-0.776712,-0.014863,0.629680,0.000000,0.000000,0.000000,-1,0.008643,-0.089083,0.073608,0.004770,0.284333,-0.019161
"2019-05-06 15:54:51.281 +0000",1557158091.281106,-2.253028,0.014166,0.906832,-0.776089,-0.014165,0.630464,0.000000,0.000000,0.000000,-1,-0.046649,-0.012431,0.063792,0.014722,0.271215,-0.036607
"2019-05-06 15:54:51.301 +0000",1557158091.301115,-2.252898,0.014172,0.905181,-0.776171,-0.014172,0.630363,0.000000,0.000000,0.000000,-1,-0.057258,0.020462,0.049790,0.033083,0.236218,-0.028602
"2019-05-06 15:54:51.321 +0000",1557158091.321088,-2.252823,0.013576,0.904004,-0.776225,-0.013576,0.630310,0.000000,0.000000,0.000000,-1,-0.005052,-0.005101,0.059384,0.049220,0.255260,-0.046661
"2019-05-06 15:54:51.341 +0000",1557158091.341110,-2.252938,0.013336,0.904171,-0.776155,-0.013335,0.630401,0.000000,0.000000,0.000000,-1,0.020443,-0.000447,-0.013305,0.024370,0.247649,-0.059325
"2019-05-06 15:54:51.361 +0000",1557158091.361137,-2.252957,0.013351,0.904285,-0.776143,-0.013351,0.630415,0.000000,0.000000,0.000000,-1,-0.016857,-0.004457,0.007093,0.019689,0.243499,-0.071776
"2019-05-06 15:54:51.381 +0000",1557158091.381140,-2.252837,0.013937,0.903481,-0.776212,-0.013936,0.630318,0.000000,0.000000,0.000000,-1,-0.069097,0.010419,-0.007791,-0.002276,0.225500,-0.034904
"2019-05-06 15:54:51.401 +0000",1557158091.401134,-2.252659,0.014424,0.902680,-0.776320,-0.014424,0.630175,0.000000,0.000000,0.000000,-1,-0.026436,-0.000127,0.013504,0.015562,0.235081,-0.014498
"2019-05-06 15:54:51.421 +0000",1557158091.421128,-2.252430,0.014024,0.902767,-0.776468,-0.014023,0.630000,0.000000,0.000000,0.000000,-1,0.030127,0.019989,0.014339,0.014002,0.229325,-0.043376
"2019-05-06 15:54:51.441 +0000",1557158091.441131,-2.246908,-0.024456,0.902591,-0.779779,0.024454,0.625578,0.000000,0.000000,0.000000,-1,-0.025344,-0.011744,0.013932,0.012338,0.190009,-0.046324
"2019-05-06 15:54:51.461 +0000",1557158091.461161,-2.247020,-0.024600,0.902147,-0.779706,0.024598,0.625663,0.000000,0.000000,0.000000,-1,0.006681,-0.001103,0.021278,0.009625,0.176056,-0.054298
"2019-05-06 15:54:51.481 +0000",1557158091.481179,-2.247457,-0.024580,0.901205,-0.779433,0.024577,0.626004,0.000000,0.000000,0.000000,-1,-0.136269,-0.054747,0.062451,-0.020799,0.097966,-0.123410
"2019-05-06 15:54:51.501 +0000",1557158091.501154,-2.249533,-0.023989,0.895446,-0.778142,0.023987,0.627630,0.000000,0.000000,0.000000,-1,-0.215048,-0.081172,0.190892,-0.003199,0.176162,0.024058
"2019-05-06 15:54:51.521 +0000",1557158091.521188,-2.249698,-0.025818,0.891871,-0.778004,0.025815,0.627729,0.000000,0.000000,0.000000,-1,-0.032467,0.030132,0.181392,0.001728,0.202975,-0.038893
"2019-05-06 15:54:51.541 +0000",1557158091.541201,-2.249318,-0.028076,0.888919,-0.778195,0.028072,0.627396,0.000000,0.000000,0.000000,-1,-0.065568,0.015236,0.174068,0.000164,0.210026,-0.048813
"2019-05-06 15:54:51.561 +0000",1557158091.561205,-2.245280,-0.055697,0.884471,-0.779819,0.055669,0.623525,0.000000,0.000000,0.000000,-1,-0.157030,0.052269,0.244877,0.010867,0.152049,-0.025625
"2019-05-06 15:54:51.581 +0000",1557158091.581199,-2.243353,-0.057573,0.878846,-0.780935,0.057541,0.621956,0.000000,0.000000,0.000000,-1,-0.151500,0.135329,0.251963,0.000036,0.064514,-0.032738
"2019-05-06 15:54:51.601 +0000",1557158091.601222,-2.242741,-0.061693,0.871997,-0.781124,0.061654,0.621325,0.000000,0.000000,0.000000,-1,-0.128138,-0.047022,0.465198,-0.018513,-0.005807,-0.039522
"2019-05-06 15:54:51.621 +0000",1557158091.621226,-2.247298,-0.069013,0.862900,-0.777911,0.068959,0.624579,0.000000,0.000000,0.000000,-1,-0.121034,-0.277063,0.572986,0.054843,-0.134114,-0.043677
"2019-05-06 15:54:51.641 +0000",1557158091.641209,-2.254439,-0.076635,0.854213,-0.773001,0.076560,0.629768,0.000000,0.000000,0.000000,-1,-0.064717,-0.372854,0.585021,0.009467,-0.053260,-0.011832
"2019-05-06 15:54:51.661 +0000",1557158091.661243,-2.264695,-0.086249,0.841147,-0.765901,0.086142,0.637162,0.000000,0.000000,0.000000,-1,-0.264926,-0.492849,0.945879,-0.010802,-0.034705,-0.018448
"2019-05-06 15:54:51.681 +0000",1557158091.681219,-2.276096,-0.099559,0.820750,-0.757647,0.099395,0.645052,0.000000,0.000000,0.000000,-1,-0.379431,-0.418492,1.278956,-0.035520,0.066346,-0.042910
"2019-05-06 15:54:51.701 +0000",1557158091.701256,-2.287741,-0.114318,0.796398,-0.748896,0.114069,0.652796,0.000000,0.000000,0.000000,-1,-0.469109,-0.535534,1.386478,-0.011419,0.720739,-0.103022
"2019-05-06 15:54:51.721 +0000",1557158091.721264,-2.300028,-0.129646,0.764769,-0.739428,0.129283,0.660706,0.000000,0.000000,0.000000,-1,-0.705630,-0.195865,1.728276,0.158755,0.458760,0.072098
"2019-05-06 15:54:51.741 +0000",1557158091.741270,-2.306253,-0.147716,0.737250,-0.733449,0.147179,0.663620,0.000000,0.000000,0.000000,-1,-0.199234,-0.063023,1.447738,0.051930,0.124137,0.058808
"2019-05-06 15:54:51.761 +0000",1557158091.761247,-2.310254,-0.166118,0.717387,-0.728663,0.165355,0.664611,0.000000,0.000000,0.000000,-1,-0.145013,-0.053540,1.323705,0.047572,0.151737,-0.095321
"2019-05-06 15:54:51.781 +0000",1557158091.781271,-2.318698,-0.182702,0.695953,-0.720916,0.181688,0.668782,0.000000,0.000000,0.000000,-1,-0.215148,-0.372204,1.253779,0.097396,0.123076,0.024485
"2019-05-06 15:54:51.801 +0000",1557158091.801272,-2.331467,-0.205401,0.665257,-0.709147,0.203960,0.674915,0.000000,0.000000,0.000000,-1,-0.368252,-0.254047,2.099254,-0.089711,0.335560,-0.075336
"2019-05-06 15:54:51.821 +0000",1557158091.821299,-2.346052,-0.230735,0.628805,-0.695314,0.228693,0.681350,0.000000,0.000000,0.000000,-1,-0.414323,-0.393877,2.165128,-0.062590,0.234061,-0.039032
"2019-05-06 15:54:51.841 +0000",1557158091.841305,-2.366533,-0.258128,0.589602,-0.676575,0.255271,0.690711,0.000000,0.000000,0.000000,-1,-0.342932,-0.627555,2.486313,-0.125732,-0.020606,-0.041618
"2019-05-06 15:54:51.861 +0000",1557158091.861299,-2.396885,-0.294389,0.541177,-0.648600,0.290155,0.703654,0.000000,0.000000,0.000000,-1,-0.286266,-0.998736,3.155157,0.003473,0.173437,0.014944
"2019-05-06 15:54:51.881 +0000",1557158091.881321,-2.432448,-0.336686,0.483842,-0.614624,0.330361,0.716309,0.000000,0.000000,0.000000,-1,-0.155175,-0.851498,3.605805,0.087540,0.049308,-0.111252
"2019-05-06 15:54:51.901 +0000",1557158091.901326,-2.478933,-0.377540,0.419120,-0.571889,0.368635,0.732838,0.000000,0.000000,0.000000,-1,-0.673485,-1.686656,3.391982,0.218602,-0.110014,-0.203342
"2019-05-06 15:54:51.921 +0000",1557158091.921325,-2.543171,-0.408102,0.343269,-0.517076,0.396868,0.758372,0.000000,0.000000,0.000000,-1,-0.768593,-1.403924,3.586053,0.463120,0.239103,0.013326
"2019-05-06 15:54:51.941 +0000",1557158091.941311,-2.588659,-0.430303,0.280349,-0.477309,0.417146,0.773411,0.000000,0.000000,0.000000,-1,-0.536399,-0.841715,2.545131,0.549239,0.288100,0.016536
"2019-05-06 15:54:51.961 +0000",1557158091.961320,-2.612795,-0.439703,0.247494,-0.456507,0.425671,0.781285,0.000000,0.000000,0.000000,-1,-0.286067,-0.387435,0.954781,0.363306,0.431385,-0.015904
"2019-05-06 15:54:51.981 +0000",1557158091.981355,-2.623459,-0.439957,0.239933,-0.448096,0.425900,0.786015,0.000000,0.000000,0.000000,-1,-0.098710,-0.400902,0.038280,0.131583,0.209491,-0.011707
"2019-05-06 15:54:52.001 +0000",1557158092.001333,-2.631354,-0.436960,0.241791,-0.442498,0.423187,0.790638,0.000000,0.000000,0.000000,-1,-0.090622,-0.432844,-0.212507,0.098534,0.167435,0.000820
"2019-05-06 15:54:52.021 +0000",1557158092.021356,-2.639301,-0.434267,0.245370,-0.436748,0.420745,0.795125,0.000000,0.000000,0.000000,-1,-0.016135,-0.521077,-0.183469,0.075603,0.127122,-0.007528
"2019-05-06 15:54:52.041 +0000",1557158092.041377,-2.650332,-0.432901,0.248190,-0.428221,0.419506,0.800401,0.000000,0.000000,0.000000,-1,0.000620,-0.687792,-0.135782,0.100172,0.165653,-0.048265
"2019-05-06 15:54:52.061 +0000",1557158092.061362,-2.662330,-0.431680,0.252074,-0.418823,0.418398,0.805935,0.000000,0.000000,0.000000,-1,0.080650,-0.589932,-0.248532,0.108063,0.298720,0.072850
"2019-05-06 15:54:52.081 +0000",1557158092.081393,-2.666081,-0.431312,0.261597,-0.415867,0.418063,0.807637,0.000000,0.000000,0.000000,-1,0.221603,-0.314884,-0.536268,0.147999,0.257154,-0.009129
"2019-05-06 15:54:52.101 +0000",1557158092.101398,-2.665331,-0.429082,0.278405,-0.416900,0.416036,0.808151,0.000000,0.000000,0.000000,-1,0.258435,-0.351349,-0.811664,0.122466,0.164225,-0.045731
"2019-05-06 15:54:52.121 +0000",1557158092.121390,-2.667153,-0.425223,0.297714,-0.416157,0.412524,0.810332,0.000000,0.000000,0.000000,-1,0.168304,-0.585475,-0.831739,-0.114071,-0.185244,-0.044005
"2019-05-06 15:54:52.141 +0000",1557158092.141415,-2.674551,-0.420663,0.308034,-0.410993,0.408366,0.815060,0.000000,0.000000,0.000000,-1,-0.043037,-0.560222,-0.287861,-0.113940,-0.198466,-0.033611
"2019-05-06 15:54:52.161 +0000",1557158092.161400,-2.685264,-0.418885,0.310356,-0.402557,0.406742,0.820066,0.000000,0.000000,0.000000,-1,0.021100,-0.625647,-0.081660,-0.013855,0.137020,0.000017
"2019-05-06 15:54:52.181 +0000",1557158092.181401,-2.695361,-0.419450,0.315308,-0.394158,0.407258,0.823881,0.000000,0.000000,0.000000,-1,0.158552,-0.579237,-0.224218,0.011635,0.083052,0.009722
"2019-05-06 15:54:52.201 +0000",1557158092.201437,-2.703855,-0.419535,0.321296,-0.387131,0.407336,0.827168,0.000000,0.000000,0.000000,-1,0.063646,-0.580112,-0.223976,0.069367,0.148206,0.050868
"2019-05-06 15:54:52.221 +0000",1557158092.221442,-2.710601,-0.417814,0.326855,-0.381835,0.405764,0.830396,0.000000,0.000000,0.000000,-1,0.014983,-0.376095,-0.272819,0.029173,0.115370,-0.012769
"2019-05-06 15:54:52.241 +0000",1557158092.241451,-2.714347,-0.415943,0.332993,-0.379035,0.404053,0.832511,0.000000,0.000000,0.000000,-1,0.058812,-0.305170,-0.307414,0.134711,0.170029,-0.005591
"2019-05-06 15:54:52.261 +0000",1557158092.261428,-2.714651,-0.415169,0.341224,-0.378911,0.403344,0.832910,0.000000,0.000000,0.000000,-1,0.133653,-0.188629,-0.351902,0.049596,0.108710,-0.084665
"2019-05-06 15:54:52.281 +0000",1557158092.281462,-2.717053,-0.414535,0.348940,-0.377015,0.402764,0.834051,0.000000,0.000000,0.000000,-1,0.094988,-0.322496,-0.334120,0.120728,0.182868,-0.090658
"2019-05-06 15:54:52.301 +0000",1557158092.301472,-2.721673,-0.412888,0.355997,-0.373427,0.401256,0.836389,0.000000,0.000000,0.000000,-1,0.035088,-0.413780,-0.319679,0.133040,0.231740,-0.204614
"2019-05-06 15:54:52.321 +0000",1557158092.321480,-2.730519,-0.410324,0.361904,-0.366424,0.398906,0.840599,0.000000,0.000000,0.000000,-1,-0.034608,-0.619644,-0.265193,0.140579,0.208027,-0.188667
"2019-05-06 15:54:52.341 +0000",1557158092.341479,-2.741339,-0.407682,0.366840,-0.357717,0.396483,0.845482,0.000000,0.000000,0.000000,-1,-0.025049,-0.631432,-0.272638,0.205969,0.158922,-0.128166
"2019-05-06 15:54:52.361 +0000",1557158092.361493,-2.753540,-0.404139,0.370069,-0.347904,0.393227,0.851079,0.000000,0.000000,0.000000,-1,-0.175386,-0.712989,-0.136295,0.118854,0.062095,-0.068364
"2019-05-06 15:54:52.381 +0000",1557158092.381483,-2.768453,-0.399650,0.370308,-0.335814,0.389096,0.857807,0.000000,0.000000,0.000000,-1,-0.165908,-0.779872,-0.114664,0.048003,0.096118,-0.186359
"2019-05-06 15:54:52.402 +0000",1557158092.401505,-2.782538,-0.393673,0.368390,-0.324510,0.383583,0.864614,0.000000,0.000000,0.000000,-1,-0.274214,-0.624712,-0.040351,0.158266,0.146920,0.043040
"2019-05-06 15:54:52.422 +0000",1557158092.421514,-2.794015,-0.388699,0.368482,-0.315212,0.378985,0.870064,0.000000,0.000000,0.000000,-1,-0.194317,-0.605349,-0.122852,0.155071,0.147718,0.000267
"2019-05-06 15:54:52.442 +0000",1557158092.441510,-2.806152,-0.385930,0.372571,-0.304973,0.376421,0.874814,0.000000,0.000000,0.000000,-1,-0.010229,-0.662541,-0.298160,0.147197,0.175245,0.039997
"2019-05-06 15:54:52.462 +0000",1557158092.461528,-2.815596,-0.384073,0.380025,-0.296922,0.374700,0.878315,0.000000,0.000000,0.000000,-1,0.036772,-0.567608,-0.387324,0.074067,0.055811,-0.003452
"2019-05-06 15:54:52.482 +0000",1557158092.481537,-2.822315,-0.381815,0.386927,-0.291278,0.372606,0.881091,0.000000,0.000000,0.000000,-1,-0.043830,-0.425229,-0.307685,0.064060,0.071944,-0.020251
"2019-05-06 15:54:52.502 +0000",1557158092.501536,-2.827038,-0.378715,0.392764,-0.287470,0.369727,0.883551,0.000000,0.000000,0.000000,-1,-0.077627,-0.284632,-0.301827,0.116877,0.162301,-0.034156
"2019-05-06 15:54:52.522 +0000",1557158092.521549,-2.847996,-0.403047,0.391984,-0.266207,0.392223,0.880508,0.000000,0.000000,0.000000,-1,-0.071043,-0.266767,-0.317656,0.117694,0.121785,-0.069733
"2019-05-06 15:54:52.542 +0000",1557158092.541558,-2.852092,-0.400818,0.397556,-0.262847,0.390171,0.882427,0.000000,0.000000,0.000000,-1,-0.011416,-0.345130,-0.257662,0.104827,0.154705,-0.112667
"2019-05-06 15:54:52.562 +0000",1557158092.561536,-2.857778,-0.399873,0.402122,-0.257929,0.389301,0.884261,0.000000,0.000000,0.000000,-1,0.025976,-0.364763,-0.179725,0.084925,0.190899,-0.090453
"2019-05-06 15:54:52.582 +0000",1557158092.581571,-2.871593,-0.430310,0.403483,-0.242415,0.417152,0.875910,0.000000,0.000000,0.000000,-1,0.096366,-0.436171,-0.179338,0.115126,0.065865,-0.071772
"2019-05-06 15:54:52.602 +0000",1557158092.601579,-2.879370,-0.431433,0.407126,-0.235474,0.418173,0.877316,0.000000,0.000000,0.000000,-1,0.092107,-0.458185,-0.140791,0.070344,0.163034,-0.072461
"2019-05-06 15:54:52.622 +0000",1557158092.621557,-2.885962,-0.432697,0.412022,-0.229552,0.419321,0.878337,0.000000,0.000000,0.000000,-1,0.132623,-0.422572,-0.198709,0.115263,0.109106,-0.051082
"2019-05-06 15:54:52.642 +0000",1557158092.641562,-2.902763,-0.447025,0.413428,-0.213320,0.432285,0.876142,0.000000,0.000000,0.000000,-1,0.172139,-0.393438,-0.259653,0.106814,0.068341,-0.009275
"2019-05-06 15:54:52.662 +0000",1557158092.661587,-2.907415,-0.449634,0.420090,-0.208980,0.434636,0.876025,0.000000,0.000000,0.000000,-1,0.204175,-0.353316,-0.289809,0.065868,0.115428,0.014600
"2019-05-06 15:54:52.682 +0000",1557158092.681609,-2.918488,-0.459040,0.424002,-0.198353,0.443088,0.874259,0.000000,0.000000,0.000000,-1,0.229867,-0.341569,-0.271688,0.061482,0.040860,-0.020164
"2019-05-06 15:54:52.702 +0000",1557158092.701615,-2.924523,-0.462670,0.429124,-0.192726,0.446339,0.873864,0.000000,0.000000,0.000000,-1,0.235205,-0.441357,-0.115367,0.033576,-0.050297,-0.080819
"2019-05-06 15:54:52.722 +0000",1557158092.721594,-2.929660,-0.469538,0.432725,-0.187585,0.452474,0.871825,0.000000,0.000000,0.000000,-1,0.329239,-0.418378,-0.022820,-0.022467,-0.007146,-0.064040
"2019-05-06 15:54:52.742 +0000",1557158092.741631,-2.936112,-0.478010,0.435263,-0.181168,0.460013,0.869233,0.000000,0.000000,0.000000,-1,0.482839,-0.392143,-0.030797,-0.022354,0.022958,-0.022721
"2019-05-06 15:54:52.762 +0000",1557158092.761635,-2.943423,-0.487866,0.438064,-0.173907,0.468742,0.866047,0.000000,0.000000,0.000000,-1,0.492434,-0.386940,-0.041515,0.011721,0.012719,0.035045
"2019-05-06 15:54:52.782 +0000",1557158092.781620,-2.949423,-0.496390,0.440653,-0.167938,0.476255,0.863121,0.000000,0.000000,0.000000,-1,0.409321,-0.368565,-0.027509,0.048035,0.065585,0.022011
"2019-05-06 15:54:52.802 +0000",1557158092.801652,-2.959431,-0.506221,0.441333,-0.158435,0.484875,0.860113,0.000000,0.000000,0.000000,-1,0.342131,-0.374954,-0.040086,0.045658,0.057635,0.021967
"2019-05-06 15:54:52.822 +0000",1557158092.821657,-2.964638,-0.512517,0.443884,-0.153414,0.490373,0.857904,0.000000,0.000000,0.000000,-1,0.329512,-0.282524,-0.061824,0.054232,0.056670,-0.002954
"2019-05-06 15:54:52.842 +0000",1557158092.841666,-2.974783,-0.528306,0.443093,-0.143400,0.504071,0.851674,0.000000,0.000000,0.000000,-1,0.310540,-0.233377,-0.038405,0.069349,0.062518,-0.079289
"2019-05-06 15:54:52.862 +0000",1557158092.861673,-2.979542,-0.534406,0.444326,-0.138847,0.509330,0.849296,0.000000,0.000000,0.000000,-1,0.316890,-0.295653,0.023786,0.066138,0.038704,-0.099006
"2019-05-06 15:54:52.882 +0000",1557158092.881680,-2.988236,-0.544825,0.443052,-0.130640,0.518269,0.845181,0.000000,0.000000,0.000000,-1,0.358498,-0.349368,0.100832,0.030710,-0.000050,-0.082119
"2019-05-06 15:54:52.902 +0000",1557158092.901656,-2.995155,-0.552291,0.440859,-0.124221,0.524639,0.842213,0.000000,0.000000,0.000000,-1,0.346059,-0.242252,0.179391,0.030731,0.036610,-0.055897
"2019-05-06 15:54:52.922 +0000",1557158092.921693,-3.004346,-0.567367,0.435213,-0.115379,0.537413,0.835389,0.000000,0.000000,0.000000,-1,0.302524,-0.255176,0.276785,0.027077,0.065828,-0.063218
"2019-05-06 15:54:52.942 +0000",1557158092.941683,-3.014029,-0.573545,0.428288,-0.106861,0.542614,0.833157,0.000000,0.000000,0.000000,-1,0.248955,-0.317113,0.358997,0.046406,0.121022,-0.042310
"2019-05-06 15:54:52.962 +0000",1557158092.961709,-3.027714,-0.582222,0.418690,-0.094911,0.549882,0.829833,0.000000,0.000000,0.000000,-1,0.183908,-0.344444,0.384933,0.073442,0.175094,0.012712
"2019-05-06 15:54:52.982 +0000",1557158092.981717,-3.037667,-0.585970,0.410844,-0.086433,0.553008,0.828680,0.000000,0.000000,0.000000,-1,0.132875,-0.236327,0.321580,0.079948,0.166306,0.009775
"2019-05-06 15:54:53.002 +0000",1557158093.001709,-3.045298,-0.588552,0.404310,-0.079969,0.555157,0.827892,0.000000,0.000000,0.000000,-1,0.085997,-0.179265,0.262717,0.040250,0.121601,-0.039242
"2019-05-06 15:54:53.022 +0000",1557158093.021730,-3.052016,-0.598511,0.398107,-0.073907,0.563413,0.822863,0.000000,0.000000,0.000000,-1,0.075526,-0.099654,0.234663,0.006081,0.083896,-0.055621
"2019-05-06 15:54:53.042 +0000",1557158093.041714,-3.056635,-0.600551,0.392875,-0.070008,0.565097,0.822049,0.000000,0.000000,0.000000,-1,0.087277,-0.079594,0.218528,0.012727,0.083936,-0.057370
"2019-05-06 15:54:53.062 +0000",1557158093.061736,-3.064448,-0.610390,0.386027,-0.063151,0.573187,0.816988,0.000000,0.000000,0.000000,-1,0.069137,-0.110416,0.219827,0.035121,0.071116,-0.062456
"2019-05-06 15:54:53.082 +0000",1557158093.081751,-3.070064,-0.611821,0.380814,-0.058503,0.574359,0.816510,0.000000,0.000000,0.000000,-1,0.043482,-0.139089,0.221088,0.039186,0.069913,-0.056516
"2019-05-06 15:54:53.102 +0000",1557158093.101739,-3.076139,-0.612695,0.375166,-0.053509,0.575074,0.816349,0.000000,0.000000,0.000000,-1,0.017935,-0.132481,0.241408,0.035138,0.080428,-0.054142
"2019-05-06 15:54:53.122 +0000",1557158093.121763,-3.085529,-0.620597,0.366962,-0.045586,0.581521,0.812253,0.000000,0.000000,0.000000,-1,-0.015016,-0.120590,0.256432,0.031502,0.094550,-0.033765
"2019-05-06 15:54:53.142 +0000",1557158093.141774,-3.091123,-0.620159,0.361131,-0.041054,0.581165,0.812750,0.000000,0.000000,0.000000,-1,-0.045960,-0.102781,0.215857,0.025765,0.096417,-0.024328
"2019-05-06 15:54:53.162 +0000",1557158093.161782,-3.099232,-0.625163,0.354210,-0.034338,0.585229,0.810140,0.000000,0.000000,0.000000,-1,-0.069381,-0.093341,0.195627,0.038641,0.091162,-0.020879
"2019-05-06 15:54:53.182 +0000",1557158093.181786,-3.104534,-0.623754,0.349163,-0.030073,0.584086,0.811134,0.000000,0.000000,0.000000,-1,-0.087577,-0.130461,0.206517,0.039732,0.050374,-0.015343
"2019-05-06 15:54:53.202 +0000",1557158093.201795,-3.112932,-0.624369,0.342507,-0.023250,0.584586,0.810999,0.000000,0.000000,0.000000,-1,-0.107885,-0.164441,0.212080,0.024105,0.029107,-0.022486
"2019-05-06 15:54:53.222 +0000",1557158093.221803,-3.118638,-0.622543,0.337821,-0.018646,0.583103,0.812184,0.000000,0.000000,0.000000,-1,-0.084403,-0.126539,0.169142,-0.015167,0.004376,-0.022634
"2019-05-06 15:54:53.242 +0000",1557158093.241796,-3.122293,-0.621418,0.334186,-0.015691,0.582189,0.812902,0.000000,0.000000,0.000000,-1,-0.049080,-0.047047,0.138801,0.018849,0.016856,0.008814
"2019-05-06 15:54:53.262 +0000",1557158093.261802,-3.127525,-0.620907,0.329153,-0.011442,0.581773,0.813271,0.000000,0.000000,0.000000,-1,-0.041533,-0.006709,0.131144,0.047803,0.017714,0.012871
"2019-05-06 15:54:53.282 +0000",1557158093.281807,-3.129215,-0.620326,0.326188,-0.010071,0.581301,0.813627,0.000000,0.000000,0.000000,-1,-0.022342,0.003741,0.112898,0.053696,0.017286,0.007113
"2019-05-06 15:54:53.302 +0000",1557158093.301830,-3.130440,-0.620024,0.323802,-0.009077,0.581055,0.813814,0.000000,0.000000,0.000000,-1,-0.012768,0.008844,0.089362,0.031004,-0.002228,-0.009477
"2019-05-06 15:54:53.322 +0000",1557158093.321831,-3.133075,-0.620006,0.320734,-0.006932,0.581040,0.813846,0.000000,0.000000,0.000000,-1,-0.015968,0.007774,0.089384,0.009938,-0.010331,-0.024356
"2019-05-06 15:54:53.342 +0000",1557158093.341814,-3.134079,-0.619679,0.318619,-0.006116,0.580774,0.814042,0.000000,0.000000,0.000000,-1,-0.017022,0.017300,0.082938,0.002576,-0.004663,-0.023286
"2019-05-06 15:54:53.362 +0000",1557158093.361850,-3.134561,-0.619253,0.316774,-0.005726,0.580427,0.814292,0.000000,0.000000,0.000000,-1,-0.025532,0.035300,0.070065,0.013264,0.017030,-0.012198
"2019-05-06 15:54:53.382 +0000",1557158093.381828,-3.135899,-0.620067,0.314505,-0.004634,0.581090,0.813826,0.000000,0.000000,0.000000,-1,-0.045779,0.039528,0.062635,0.004924,0.037471,-0.004973
"2019-05-06 15:54:53.402 +0000",1557158093.401868,-3.135764,-0.619109,0.313195,-0.004747,0.580310,0.814382,0.000000,0.000000,0.000000,-1,-0.045784,0.046850,0.047654,0.005037,0.038251,-0.005529
"2019-05-06 15:54:53.422 +0000",1557158093.421870,-3.135944,-0.618106,0.312067,-0.004604,0.579493,0.814964,0.000000,0.000000,0.000000,-1,-0.053323,0.015976,0.044608,-0.008336,0.010824,-0.016426
"2019-05-06 15:54:53.442 +0000",1557158093.441880,-3.136345,-0.619156,0.311163,-0.004274,0.580348,0.814357,0.000000,0.000000,0.000000,-1,-0.036330,-0.019215,0.039389,-0.005644,0.005239,-0.028957
"2019-05-06 15:54:53.462 +0000",1557158093.461887,-3.137359,-0.618928,0.310339,-0.003449,0.580162,0.814494,0.000000,0.000000,0.000000,-1,0.002045,-0.019364,0.030752,-0.006470,0.005425,-0.029093
"2019-05-06 15:54:53.482 +0000",1557158093.481865,-3.138042,-0.620704,0.309360,-0.002889,0.581608,0.813464,0.000000,0.000000,0.000000,-1,0.012805,0.013651,0.035921,0.004811,0.013638,-0.007373
"2019-05-06 15:54:53.502 +0000",1557158093.501904,-3.139312,-0.622314,0.307812,-0.001853,0.582917,0.812530,0.000000,0.000000,0.000000,-1,0.002139,-0.007442,0.056336,0.005179,0.011260,-0.005111
"2019-05-06 15:54:53.522 +0000",1557158093.521910,-3.140776,-0.622332,0.306166,-0.000664,0.582932,0.812521,0.000000,0.000000,0.000000,-1,-0.000036,-0.033943,0.068206,0.003990,0.011246,-0.005102
"2019-05-06 15:54:53.542 +0000",1557158093.541885,3.141371,-0.623896,0.305081,0.000180,0.584202,0.811608,0.000000,0.000000,0.000000,-1,0.011668,-0.037333,0.046838,-0.003903,0.013790,-0.002115
"2019-05-06 15:54:53.562 +0000",1557158093.561893,3.140308,-0.624603,0.304310,0.001042,0.584775,0.811195,0.000000,0.000000,0.000000,-1,0.031913,-0.033269,0.028617,-0.000828,-0.005384,-0.005729
"2019-05-06 15:54:53.582 +0000",1557158093.581932,3.139241,-0.625259,0.303588,0.001907,0.585307,0.810809,0.000000,0.000000,0.000000,-1,0.044732,-0.017397,0.021041,0.004731,-0.007137,-0.003101
"2019-05-06 15:54:53.602 +0000",1557158093.601937,3.137304,-0.626492,0.302260,0.003474,0.586306,0.810082,0.000000,0.000000,0.000000,-1,0.033017,-0.012072,0.019988,0.016408,0.007779,-0.001275
"2019-05-06 15:54:53.622 +0000",1557158093.621946,3.134690,-0.628055,0.300538,0.005585,0.587572,0.809153,0.000000,0.000000,0.000000,-1,0.014911,-0.006749,0.017890,0.011276,0.004622,-0.009745
"2019-05-06 15:54:53.642 +0000",1557158093.641954,3.134089,-0.628678,0.299916,0.006069,0.588076,0.808783,0.000000,0.000000,0.000000,-1,0.009596,-0.002465,0.020022,0.004963,0.005308,-0.012106
"2019-05-06 15:54:53.662 +0000",1557158093.661941,3.134669,-0.630802,0.299967,0.005591,0.589793,0.807535,0.000000,0.000000,0.000000,-1,0.016019,-0.000347,0.018927,-0.010032,0.013341,-0.012720
"2019-05-06 15:54:53.682 +0000",1557158093.681934,3.134765,-0.631733,0.299657,0.005510,0.590545,0.806986,0.000000,0.000000,0.000000,-1,0.012852,0.011359,0.017814,-0.005495,0.017045,-0.009303
"2019-05-06 15:54:53.702 +0000",1557158093.701974,3.134409,-0.632530,0.298993,0.005794,0.591187,0.806513,0.000000,0.000000,0.000000,-1,0.009651,0.003961,0.023196,0.005742,0.015258,-0.008341
"2019-05-06 15:54:53.722 +0000",1557158093.721965,3.133130,-0.633756,0.297845,0.006819,0.592175,0.805780,0.000000,0.000000,0.000000,-1,0.011777,-0.005609,0.025377,0.010087,0.014957,-0.008524
"2019-05-06 15:54:53.742 +0000",1557158093.741959,3.132301,-0.634598,0.297043,0.007482,0.592854,0.805275,0.000000,0.000000,0.000000,-1,0.014974,-0.008819,0.024319,0.007487,0.013622,-0.010948
"2019-05-06 15:54:53.762 +0000",1557158093.761970,3.131607,-0.635340,0.296384,0.008037,0.593451,0.804830,0.000000,0.000000,0.000000,-1,0.016036,-0.013078,0.024337,0.002019,0.007990,-0.011205
"2019-05-06 15:54:53.782 +0000",1557158093.781994,3.130820,-0.636693,0.295651,0.008661,0.594540,0.804020,0.000000,0.000000,0.000000,-1,0.010723,-0.014086,0.029696,-0.000361,0.008747,-0.009342
"2019-05-06 15:54:53.802 +0000",1557158093.802013,3.130216,-0.637326,0.294879,0.009143,0.595048,0.803638,0.000000,0.000000,0.000000,-1,0.008613,-0.008732,0.032880,-0.002276,0.013335,-0.008548
"2019-05-06 15:54:53.822 +0000",1557158093.822020,3.129518,-0.637951,0.294117,0.009699,0.595550,0.803259,0.000000,0.000000,0.000000,-1,0.009662,-0.017274,0.029713,-0.001139,0.015015,-0.006033
"2019-05-06 15:54:53.842 +0000",1557158093.841994,3.128349,-0.638640,0.293198,0.010633,0.596104,0.802837,0.000000,0.000000,0.000000,-1,0.010722,-0.021553,0.027598,0.003741,-0.000279,-0.002422
"2019-05-06 15:54:53.862 +0000",1557158093.862033,3.127437,-0.638740,0.292476,0.011365,0.596185,0.802767,0.000000,0.000000,0.000000,-1,0.009661,-0.016259,0.024374,0.004184,-0.004754,0.000288
"2019-05-06 15:54:53.882 +0000",1557158093.882020,3.126813,-0.638744,0.291824,0.011865,0.596188,0.802758,0.000000,0.000000,0.000000,-1,0.004353,-0.005598,0.025408,0.002112,-0.004223,0.002601
"2019-05-06 15:54:53.902 +0000",1557158093.902025,3.126359,-0.638598,0.291135,0.012231,0.596070,0.802839,0.000000,0.000000,0.000000,-1,0.003308,0.005045,0.025363,-0.001367,-0.001771,0.001955
"2019-05-06 15:54:53.922 +0000",1557158093.922054,3.126403,-0.638774,0.290593,0.012195,0.596212,0.802735,0.000000,0.000000,0.000000,-1,0.005467,0.016748,0.025304,-0.004214,0.002681,-0.000580
"2019-05-06 15:54:53.942 +0000",1557158093.942050,3.126543,-0.639271,0.290052,0.012077,0.596611,0.802440,0.000000,0.000000,0.000000,-1,0.009510,0.016786,0.024994,-0.000206,0.010903,0.000188
"2019-05-06 15:54:53.962 +0000",1557158093.962041,3.126261,-0.639849,0.289302,0.012299,0.597074,0.802092,0.000000,0.000000,0.000000,-1,0.006307,0.011489,0.027162,0.002670,0.009112,-0.003157
"2019-05-06 15:54:53.982 +0000",1557158093.982052,3.125978,-0.640301,0.288686,0.012521,0.597437,0.801818,0.000000,0.000000,0.000000,-1,0.011621,0.011359,0.013270,0.007269,0.008444,-0.002868
"2019-05-06 15:54:54.002 +0000",1557158094.002076,3.125674,-0.640804,0.288250,0.012760,0.597840,0.801513,0.000000,0.000000,0.000000,-1,0.018014,0.015509,0.002562,0.008541,0.000319,-0.002487
"2019-05-06 15:54:54.022 +0000",1557158094.022069,3.125595,-0.641195,0.287969,0.012820,0.598154,0.801279,0.000000,0.000000,0.000000,-1,0.018016,0.013414,0.006844,0.003599,-0.000925,-0.001566
"2019-05-06 15:54:54.042 +0000",1557158094.042084,3.125852,-0.641580,0.287765,0.012610,0.598462,0.801052,0.000000,0.000000,0.000000,-1,0.013765,0.012451,0.017534,-0.003653,0.004001,0.001743
"2019-05-06 15:54:54.062 +0000",1557158094.062092,3.125901,-0.641994,0.287304,0.012567,0.598794,0.800805,0.000000,0.000000,0.000000,-1,0.012704,0.010372,0.022884,-0.005197,0.006004,-0.003167
"2019-05-06 15:54:54.082 +0000",1557158094.082095,3.126283,-0.642845,0.287143,0.012253,0.599475,0.800300,0.000000,0.000000,0.000000,-1,0.019082,0.003915,0.015420,-0.006577,0.005322,-0.003211
"2019-05-06 15:54:54.102 +0000",1557158094.102118,3.126331,-0.643427,0.286998,0.012209,0.599941,0.799952,0.000000,0.000000,0.000000,-1,0.023332,0.001707,0.006877,-0.005205,0.002339,-0.005762
"2019-05-06 15:54:54.122 +0000",1557158094.122126,3.126406,-0.644044,0.286904,0.012144,0.600434,0.799582,0.000000,0.000000,0.000000,-1,0.019069,0.000671,0.009026,-0.000578,0.001433,-0.003729
"2019-05-06 15:54:54.142 +0000",1557158094.142133,3.126374,-0.644573,0.286653,0.012165,0.600857,0.799264,0.000000,0.000000,0.000000,-1,0.011623,0.003925,0.014368,-0.002826,0.005955,-0.003976
"2019-05-06 15:54:54.162 +0000",1557158094.162057,3.126187,-0.645335,0.286236,0.012307,0.601466,0.798803,0.000000,0.000000,0.000000,-1,0.007375,0.009236,0.012221,0.002845,0.012105,0.002603
"2019-05-06 15:54:54.182 +0000",1557158094.182038,3.126120,-0.645532,0.285956,0.012359,0.601623,0.798684,0.000000,0.000000,0.000000,-1,0.004165,0.009178,0.004756,0.004944,0.007904,0.003623
"2019-05-06 15:54:54.202 +0000",1557158094.202040,3.125988,-0.645771,0.285745,0.012462,0.601814,0.798539,0.000000,0.000000,0.000000,-1,0.003095,0.009142,0.000490,0.005101,0.003822,0.001663
"2019-05-06 15:54:54.222 +0000",1557158094.222079,3.125980,-0.646088,0.285673,0.012465,0.602067,0.798348,0.000000,0.000000,0.000000,-1,0.009490,0.011201,-0.005940,0.004381,0.008742,0.000160
"2019-05-06 15:54:54.242 +0000",1557158094.242073,3.126330,-0.646444,0.285994,0.012182,0.602351,0.798138,0.000000,0.000000,0.000000,-1,0.011601,0.010014,-0.019819,0.004984,0.008992,0.002552
"2019-05-06 15:54:54.262 +0000",1557158094.262089,3.126554,-0.646661,0.286434,0.012002,0.602525,0.798010,0.000000,0.000000,0.000000,-1,0.005159,-0.013340,-0.014359,-0.010751,0.000746,-0.007589
"2019-05-06 15:54:54.282 +0000",1557158094.282099,3.126681,-0.646927,0.286985,0.011898,0.602737,0.797851,0.000000,0.000000,0.000000,-1,0.010477,-0.022889,-0.010061,-0.015560,0.003205,-0.004928
"2019-05-06 15:54:54.302 +0000",1557158094.302093,3.127162,-0.647102,0.287553,0.011513,0.602876,0.797751,0.000000,0.000000,0.000000,-1,0.009449,-0.011102,-0.001575,-0.011635,-0.000261,0.003121
"2019-05-06 15:54:54.322 +0000",1557158094.322086,3.127095,-0.647150,0.287499,0.011566,0.602915,0.797721,0.000000,0.000000,0.000000,-1,-0.000116,-0.004596,0.010163,-0.004364,0.000570,0.001274
"2019-05-06 15:54:54.342 +0000",1557158094.342091,3.126881,-0.647037,0.287186,0.011738,0.602825,0.797787,0.000000,0.000000,0.000000,-1,-0.002242,-0.006647,0.018719,-0.001301,-0.001018,0.002567
"2019-05-06 15:54:54.362 +0000",1557158094.362121,3.126494,-0.646944,0.286671,0.012047,0.602750,0.797839,0.000000,0.000000,0.000000,-1,-0.006498,-0.004483,0.021922,-0.000283,0.002550,-0.001788
"2019-05-06 15:54:54.382 +0000",1557158094.382127,3.126070,-0.646815,0.286095,0.012386,0.602648,0.797911,0.000000,0.000000,0.000000,-1,-0.005423,-0.002338,0.024046,0.002308,-0.000582,-0.000075
"2019-05-06 15:54:54.402 +0000",1557158094.402142,3.125441,-0.646664,0.285352,0.012890,0.602527,0.797994,0.000000,0.000000,0.000000,-1,-0.007557,-0.003391,0.025125,0.006809,-0.001453,-0.001165
"2019-05-06 15:54:54.422 +0000",1557158094.422146,3.124519,-0.646398,0.284424,0.013628,0.602315,0.798142,0.000000,0.000000,0.000000,-1,-0.007560,-0.003404,0.024060,0.008421,-0.002050,0.000579
"2019-05-06 15:54:54.442 +0000",1557158094.442155,3.123627,-0.646041,0.283552,0.014344,0.602030,0.798344,0.000000,0.000000,0.000000,-1,-0.010763,-0.004465,0.024076,0.004439,0.000021,0.004634
"2019-05-06 15:54:54.462 +0000",1557158094.462163,3.123172,-0.645731,0.282873,0.014711,0.601782,0.798525,0.000000,0.000000,0.000000,-1,-0.011816,0.001921,0.024050,0.003111,-0.001684,0.001844
"2019-05-06 15:54:54.482 +0000",1557158094.482172,3.122951,-0.645540,0.282331,0.014890,0.601630,0.798636,0.000000,0.000000,0.000000,-1,-0.009692,-0.002329,0.025131,-0.002835,0.000543,0.000055
"2019-05-06 15:54:54.502 +0000",1557158094.502178,3.122719,-0.645409,0.281812,0.015076,0.601525,0.798712,0.000000,0.000000,0.000000,-1,-0.004356,-0.000210,0.025106,-0.002900,-0.000085,0.002604
"2019-05-06 15:54:54.522 +0000",1557158094.522187,3.122325,-0.645228,0.281029,0.015393,0.601381,0.798814,0.000000,0.000000,0.000000,-1,-0.005390,0.010488,0.031468,0.002536,-0.001756,0.003493
"2019-05-06 15:54:54.542 +0000",1557158094.542169,3.121954,-0.645038,0.280060,0.015691,0.601229,0.798923,0.000000,0.000000,0.000000,-1,-0.012833,0.015877,0.037869,0.003046,0.002195,-0.001056
"2019-05-06 15:54:54.562 +0000",1557158094.562200,3.121642,-0.645125,0.279119,0.015940,0.601298,0.798866,0.000000,0.000000,0.000000,-1,-0.014977,0.007377,0.038980,-0.002512,0.010686,-0.002586
"2019-05-06 15:54:54.582 +0000",1557158094.582209,3.121612,-0.645262,0.278476,0.015962,0.601408,0.798783,0.000000,0.000000,0.000000,-1,-0.012863,-0.002218,0.036879,-0.011842,0.012362,-0.001160
"2019-05-06 15:54:54.602 +0000",1557158094.602216,3.121573,-0.645431,0.277995,0.015991,0.601543,0.798681,0.000000,0.000000,0.000000,-1,-0.010747,-0.009693,0.033700,-0.010163,0.008626,-0.000188
"2019-05-06 15:54:54.622 +0000",1557158094.622221,3.121225,-0.645353,0.277389,0.016271,0.601481,0.798722,0.000000,0.000000,0.000000,-1,-0.013956,-0.017114,0.035873,-0.005864,0.003286,-0.000672
"2019-05-06 15:54:54.642 +0000",1557158094.642226,3.120144,-0.644707,0.276361,0.017142,0.600964,0.799092,0.000000,0.000000,0.000000,-1,-0.016088,-0.016028,0.038010,0.004510,-0.008999,-0.000432
"2019-05-06 15:54:54.662 +0000",1557158094.662238,3.119147,-0.644298,0.275307,0.017945,0.600638,0.799320,0.000000,0.000000,0.000000,-1,-0.017166,-0.022394,0.040177,0.001266,-0.000098,-0.000171
"2019-05-06 15:54:54.682 +0000",1557158094.682236,3.117993,-0.643752,0.274168,0.018875,0.600201,0.799627,0.000000,0.000000,0.000000,-1,-0.015010,-0.009639,0.039049,0.006089,-0.003536,0.005259
"2019-05-06 15:54:54.702 +0000",1557158094.702251,3.116848,-0.643304,0.272961,0.019797,0.599843,0.799873,0.000000,0.000000,0.000000,-1,-0.018209,-0.007527,0.036915,0.004846,-0.000111,0.002648
"2019-05-06 15:54:54.722 +0000",1557158094.722260,3.116124,-0.642855,0.272031,0.020383,0.599483,0.800128,0.000000,0.000000,0.000000,-1,-0.019279,-0.009644,0.037995,-0.000378,-0.003291,-0.001514
"2019-05-06 15:54:54.742 +0000",1557158094.742264,3.115251,-0.642473,0.271013,0.021087,0.599177,0.800339,0.000000,0.000000,0.000000,-1,-0.020349,-0.012817,0.040148,-0.001327,0.000600,-0.001877
"2019-05-06 15:54:54.762 +0000",1557158094.762257,3.114419,-0.642371,0.270037,0.021755,0.599095,0.800382,0.000000,0.000000,0.000000,-1,-0.013942,-0.008600,0.036910,0.003483,0.005366,-0.001066
"2019-05-06 15:54:54.782 +0000",1557158094.782280,3.113605,-0.642189,0.269099,0.022409,0.598950,0.800473,0.000000,0.000000,0.000000,-1,-0.011813,-0.008632,0.033702,0.004049,0.004794,0.000766
"2019-05-06 15:54:54.802 +0000",1557158094.802286,3.112712,-0.641834,0.268055,0.023130,0.598666,0.800665,0.000000,0.000000,0.000000,-1,-0.013947,-0.010732,0.036922,0.003817,0.002897,-0.003836
"2019-05-06 15:54:54.822 +0000",1557158094.822280,3.111797,-0.641525,0.267096,0.023868,0.598418,0.800828,0.000000,0.000000,0.000000,-1,-0.012890,-0.016038,0.039079,0.001080,-0.002639,-0.000185
"2019-05-06 15:54:54.842 +0000",1557158094.842295,3.110846,-0.641195,0.266024,0.024636,0.598154,0.801003,0.000000,0.000000,0.000000,-1,-0.012871,-0.008571,0.041182,0.003562,-0.003015,-0.000099
"2019-05-06 15:54:54.862 +0000",1557158094.862290,3.109755,-0.641009,0.264834,0.025513,0.598005,0.801086,0.000000,0.000000,0.000000,-1,-0.011799,-0.000146,0.031536,0.006316,0.002123,0.000473
"2019-05-06 15:54:54.882 +0000",1557158094.882298,3.109254,-0.640807,0.264196,0.025919,0.597842,0.801195,0.000000,0.000000,0.000000,-1,-0.004363,-0.005573,0.020865,0.002692,-0.002826,0.001189
"2019-05-06 15:54:54.902 +0000",1557158094.902296,3.108981,-0.640452,0.263745,0.026144,0.597558,0.801400,0.000000,0.000000,0.000000,-1,-0.003297,-0.007647,0.027276,-0.003439,-0.003655,0.005058
"2019-05-06 15:54:54.922 +0000",1557158094.922319,3.108440,-0.640342,0.263042,0.026580,0.597470,0.801451,0.000000,0.000000,0.000000,-1,0.001889,-0.005492,0.028127,-0.000853,-0.000729,0.007219
"2019-05-06 15:54:54.942 +0000",1557158094.942337,3.108056,-0.640136,0.262343,0.026892,0.597305,0.801563,0.000000,0.000000,0.000000,-1,-0.002370,-0.000182,0.025979,0.002893,-0.005828,0.008785
"2019-05-06 15:54:54.962 +0000",1557158094.962322,3.107802,-0.640154,0.261910,0.027095,0.597319,0.801546,0.000000,0.000000,0.000000,-1,0.000809,-0.005553,0.020655,-0.004909,0.001970,-0.000841
"2019-05-06 15:54:54.982 +0000",1557158094.982351,3.107768,-0.640265,0.261648,0.027120,0.597408,0.801479,0.000000,0.000000,0.000000,-1,0.002949,0.001840,0.014209,-0.005178,0.002155,-0.000423
"2019-05-06 15:54:55.002 +0000",1557158095.002360,3.107781,-0.640380,0.261344,0.027107,0.597500,0.801410,0.000000,0.000000,0.000000,-1,0.004040,0.014581,0.010946,0.001472,0.000919,0.001095
"2019-05-06 15:54:55.022 +0000",1557158095.022367,3.107750,-0.640388,0.260925,0.027132,0.597507,0.801405,0.000000,0.000000,0.000000,-1,-0.002360,0.011428,0.014180,0.006010,0.000089,-0.006300
"2019-05-06 15:54:55.042 +0000",1557158095.042373,3.107256,-0.640469,0.260337,0.027526,0.597572,0.801343,0.000000,0.000000,0.000000,-1,-0.000249,0.001834,0.013152,0.006928,0.002068,-0.002973
"2019-05-06 15:54:55.062 +0000",1557158095.062381,3.107082,-0.640484,0.260064,0.027665,0.597583,0.801329,0.000000,0.000000,0.000000,-1,0.001876,0.002839,0.006737,0.003447,0.000317,0.000795
"2019-05-06 15:54:55.082 +0000",1557158095.082389,3.106823,-0.640496,0.259766,0.027873,0.597593,0.801315,0.000000,0.000000,0.000000,-1,-0.000252,0.006015,0.004594,0.005895,0.002871,-0.000030
"2019-05-06 15:54:55.102 +0000",1557158095.102394,3.106657,-0.640508,0.259587,0.028005,0.597603,0.801303,0.000000,0.000000,0.000000,-1,-0.001330,0.002796,0.001409,0.003184,-0.000984,-0.000018
"2019-05-06 15:54:55.122 +0000",1557158095.122403,3.106751,-0.640457,0.259608,0.027931,0.597562,0.801336,0.000000,0.000000,0.000000,-1,-0.001329,0.005962,-0.001808,0.000709,-0.001477,0.000635
"2019-05-06 15:54:55.142 +0000",1557158095.142378,3.106944,-0.640476,0.259732,0.027776,0.597577,0.801330,0.000000,0.000000,0.000000,-1,0.001860,0.004846,-0.007149,0.000864,-0.001493,0.000641
"2019-05-06 15:54:55.162 +0000",1557158095.162385,3.107104,-0.640597,0.259952,0.027645,0.597674,0.801262,0.000000,0.000000,0.000000,-1,0.002919,0.005853,-0.013562,0.001942,0.001737,0.001091
"2019-05-06 15:54:55.182 +0000",1557158095.182412,3.107508,-0.640623,0.260358,0.027321,0.597695,0.801258,0.000000,0.000000,0.000000,-1,0.003981,0.004778,-0.014628,-0.002266,-0.000832,0.003033
"2019-05-06 15:54:55.202 +0000",1557158095.202433,3.107891,-0.640648,0.260745,0.027014,0.597715,0.801253,0.000000,0.000000,0.000000,-1,0.003984,0.005852,-0.013566,-0.002737,-0.001066,0.002504
"2019-05-06 15:54:55.222 +0000",1557158095.222438,3.108197,-0.640691,0.261107,0.026768,0.597750,0.801236,0.000000,0.000000,0.000000,-1,0.007174,0.003699,-0.015700,-0.001225,-0.001940,0.002033
"2019-05-06 15:54:55.242 +0000",1557158095.242423,3.108564,-0.640660,0.261511,0.026474,0.597724,0.801264,0.000000,0.000000,0.000000,-1,0.007179,0.006892,-0.015714,0.000213,-0.002983,0.003270
"2019-05-06 15:54:55.262 +0000",1557158095.262453,3.108964,-0.640639,0.261893,0.026154,0.597708,0.801287,0.000000,0.000000,0.000000,-1,0.007178,0.004800,-0.011434,-0.002366,-0.002249,0.003568
"2019-05-06 15:54:55.282 +0000",1557158095.282459,3.109352,-0.640680,0.262205,0.025843,0.597741,0.801273,0.000000,0.000000,0.000000,-1,0.007182,0.004829,-0.008232,-0.003305,0.000617,0.004666
"2019-05-06 15:54:55.302 +0000",1557158095.302466,3.109892,-0.641081,0.262604,0.025402,0.598063,0.801047,0.000000,0.000000,0.000000,-1,0.005048,0.001662,-0.006080,-0.005062,0.005743,0.000208
"2019-05-06 15:54:55.322 +0000",1557158095.322447,3.110160,-0.641355,0.262863,0.025182,0.598282,0.800890,0.000000,0.000000,0.000000,-1,0.006109,0.000569,-0.009281,-0.004079,0.005722,-0.003359
"2019-05-06 15:54:55.342 +0000",1557158095.342480,3.110235,-0.641665,0.263099,0.025116,0.598530,0.800707,0.000000,0.000000,0.000000,-1,0.008230,-0.004765,-0.010330,0.000930,0.003109,-0.003862
"2019-05-06 15:54:55.362 +0000",1557158095.362490,3.110249,-0.641886,0.263330,0.025101,0.598707,0.800575,0.000000,0.000000,0.000000,-1,0.005032,-0.003704,-0.011395,0.002029,0.000170,0.001916
"2019-05-06 15:54:55.382 +0000",1557158095.382496,3.110381,-0.642003,0.263617,0.024993,0.598801,0.800508,0.000000,0.000000,0.000000,-1,0.005034,-0.002639,-0.011400,-0.001601,0.001495,0.002257
"2019-05-06 15:54:55.403 +0000",1557158095.402501,3.110447,-0.641935,0.263847,0.024942,0.598746,0.800551,0.000000,0.000000,0.000000,-1,0.000773,-0.001549,-0.009258,0.000372,-0.003302,0.001390
"2019-05-06 15:54:55.423 +0000",1557158095.422510,3.110572,-0.641733,0.264084,0.024845,0.598585,0.800674,0.000000,0.000000,0.000000,-1,-0.001365,-0.002608,-0.009248,0.000728,-0.001676,0.001709
"2019-05-06 15:54:55.443 +0000",1557158095.442505,3.110652,-0.641647,0.264315,0.024783,0.598516,0.800727,0.000000,0.000000,0.000000,-1,-0.002431,-0.000496,-0.011390,0.001553,-0.000799,0.004143
"2019-05-06 15:54:55.462 +0000",1557158095.462496,3.110878,-0.641369,0.264587,0.024607,0.598293,0.800900,0.000000,0.000000,0.000000,-1,-0.004556,0.002719,-0.009264,-0.004771,-0.002544,0.003208
"2019-05-06 15:54:55.483 +0000",1557158095.482532,3.111232,-0.641191,0.264900,0.024326,0.598150,0.801015,0.000000,0.000000,0.000000,-1,0.000767,-0.002574,-0.004985,-0.004765,-0.001547,0.002910
"2019-05-06 15:54:55.503 +0000",1557158095.502532,3.111377,-0.641231,0.265034,0.024210,0.598182,0.800994,0.000000,0.000000,0.000000,-1,0.005042,-0.000426,-0.001803,-0.005472,0.000649,0.003052
"2019-05-06 15:54:55.523 +0000",1557158095.522524,3.111509,-0.641327,0.265160,0.024103,0.598259,0.800940,0.000000,0.000000,0.000000,-1,0.008234,-0.001513,-0.003942,-0.001718,0.002968,0.000177
"2019-05-06 15:54:55.543 +0000",1557158095.542554,3.111558,-0.641578,0.265309,0.024059,0.598461,0.800791,0.000000,0.000000,0.000000,-1,0.009288,-0.006845,-0.004989,-0.003246,0.004628,0.000524
"2019-05-06 15:54:55.563 +0000",1557158095.562558,3.111609,-0.641919,0.265481,0.024012,0.598733,0.800588,0.000000,0.000000,0.000000,-1,0.016756,-0.006840,-0.002873,-0.004984,0.007208,0.003352
"2019-05-06 15:54:55.583 +0000",1557158095.582549,3.111485,-0.642444,0.265594,0.024101,0.599154,0.800271,0.000000,0.000000,0.000000,-1,0.016738,-0.012207,-0.008187,0.002830,0.004392,-0.001031
"2019-05-06 15:54:55.603 +0000",1557158095.602545,3.111332,-0.642734,0.265838,0.024219,0.599386,0.800093,0.000000,0.000000,0.000000,-1,0.014590,-0.017541,-0.010294,-0.001178,-0.001867,-0.001769
"2019-05-06 15:54:55.623 +0000",1557158095.622584,3.111157,-0.642912,0.266063,0.024355,0.599529,0.799983,0.000000,0.000000,0.000000,-1,0.014599,-0.014330,-0.008173,0.001035,-0.003490,-0.001475
"2019-05-06 15:54:55.643 +0000",1557158095.642578,3.110911,-0.643072,0.266183,0.024549,0.599657,0.799881,0.000000,0.000000,0.000000,-1,0.010342,-0.009011,-0.009253,0.002383,-0.003588,-0.000747
"2019-05-06 15:54:55.663 +0000",1557158095.662595,3.110799,-0.643124,0.266365,0.024638,0.599698,0.799847,0.000000,0.000000,0.000000,-1,0.006081,-0.005820,-0.010324,0.003880,-0.004529,0.001590
"2019-05-06 15:54:55.683 +0000",1557158095.682604,3.110649,-0.642966,0.266439,0.024761,0.599571,0.799938,0.000000,0.000000,0.000000,-1,-0.000308,-0.003644,-0.006045,0.003071,-0.004296,0.001850
"2019-05-06 15:54:55.703 +0000",1557158095.702579,3.110611,-0.642832,0.266567,0.024794,0.599464,0.800017,0.000000,0.000000,0.000000,-1,0.001815,-0.006841,-0.006036,-0.001677,-0.001320,0.001252
"2019-05-06 15:54:55.723 +0000",1557158095.722619,3.110571,-0.642917,0.266770,0.024824,0.599533,0.799965,0.000000,0.000000,0.000000,-1,0.005008,-0.007929,-0.008175,-0.000151,-0.000732,-0.000649
"2019-05-06 15:54:55.743 +0000",1557158095.742596,3.110596,-0.642978,0.266997,0.024803,0.599581,0.799929,0.000000,0.000000,0.000000,-1,0.006075,-0.005821,-0.010322,0.002388,0.000058,0.001905
"2019-05-06 15:54:55.763 +0000",1557158095.762610,3.110559,-0.642987,0.267233,0.024833,0.599589,0.799923,0.000000,0.000000,0.000000,-1,0.005005,-0.005838,-0.012454,-0.000983,-0.000956,-0.000057
"2019-05-06 15:54:55.783 +0000",1557158095.782626,3.110682,-0.643048,0.267566,0.024733,0.599637,0.799890,0.000000,0.000000,0.000000,-1,0.008210,-0.001597,-0.013549,0.000505,-0.003537,0.000891
"2019-05-06 15:54:55.803 +0000",1557158095.802649,3.110795,-0.643147,0.267789,0.024641,0.599717,0.799833,0.000000,0.000000,0.000000,-1,0.012488,0.002678,-0.010375,0.002611,-0.001450,0.003604
"2019-05-06 15:54:55.823 +0000",1557158095.822653,3.110974,-0.643278,0.268010,0.024495,0.599821,0.799759,0.000000,0.000000,0.000000,-1,0.012494,0.007971,-0.013601,0.001918,-0.002943,0.000625
"2019-05-06 15:54:55.843 +0000",1557158095.842643,3.111374,-0.643400,0.268352,0.024173,0.599919,0.799695,0.000000,0.000000,0.000000,-1,0.011435,0.011175,-0.012545,0.000103,-0.002919,0.003604
"2019-05-06 15:54:55.863 +0000",1557158095.862670,3.111838,-0.643510,0.268640,0.023800,0.600007,0.799641,0.000000,0.000000,0.000000,-1,0.012414,0.012315,-0.006296,-0.003903,-0.002518,0.004375
"2019-05-06 15:54:55.883 +0000",1557158095.882657,3.112332,-0.643498,0.268800,0.023405,0.599998,0.799659,0.000000,0.000000,0.000000,-1,0.007090,0.010280,0.003334,-0.006788,0.003396,0.002312
"2019-05-06 15:54:55.903 +0000",1557158095.902682,3.112531,-0.643719,0.268721,0.023242,0.600175,0.799531,0.000000,0.000000,0.000000,-1,0.006021,0.006063,0.007626,-0.004794,0.006286,0.000640
"2019-05-06 15:54:55.923 +0000",1557158095.922687,3.112637,-0.643940,0.268603,0.023154,0.600351,0.799402,0.000000,0.000000,0.000000,-1,0.006016,0.003926,0.006567,-0.002921,0.006644,-0.000772
"2019-05-06 15:54:55.943 +0000",1557158095.942678,3.112647,-0.644301,0.268429,0.023140,0.600640,0.799185,0.000000,0.000000,0.000000,-1,0.002821,0.004988,0.005503,0.000115,0.005790,-0.002264
"2019-05-06 15:54:55.963 +0000",1557158095.962703,3.112833,-0.644641,0.268371,0.022985,0.600912,0.798985,0.000000,0.000000,0.000000,-1,-0.000374,0.006051,0.004437,-0.003622,0.006129,0.000560
"2019-05-06 15:54:55.983 +0000",1557158095.982712,3.112893,-0.644671,0.268279,0.022936,0.600936,0.798968,0.000000,0.000000,0.000000,-1,-0.003586,-0.001373,0.006613,-0.005084,0.005464,0.000653
"2019-05-06 15:54:56.003 +0000",1557158096.002702,3.112798,-0.644631,0.268184,0.023013,0.600904,0.798990,0.000000,0.000000,0.000000,-1,-0.003603,-0.009876,0.007719,-0.002490,-0.001981,-0.002588
"2019-05-06 15:54:56.023 +0000",1557158096.022726,3.112455,-0.644320,0.268025,0.023292,0.600655,0.799169,0.000000,0.000000,0.000000,-1,0.000602,-0.010959,0.003325,0.000206,-0.006355,0.003016
"2019-05-06 15:54:56.043 +0000",1557158096.042718,3.112330,-0.644244,0.268088,0.023394,0.600594,0.799212,0.000000,0.000000,0.000000,-1,0.004861,-0.006792,-0.006314,0.000395,-0.005989,0.002485
"2019-05-06 15:54:56.063 +0000",1557158096.062709,3.112248,-0.644009,0.268267,0.023463,0.600406,0.799351,0.000000,0.000000,0.000000,-1,0.012308,-0.007926,-0.012733,0.002110,-0.010868,0.003750
"2019-05-06 15:54:56.083 +0000",1557158096.082747,3.112223,-0.643810,0.268496,0.023487,0.600247,0.799469,0.000000,0.000000,0.000000,-1,0.010187,-0.001529,-0.011688,0.002575,-0.009107,0.004943
"2019-05-06 15:54:56.103 +0000",1557158096.102753,3.112370,-0.643818,0.268725,0.023370,0.600254,0.799468,0.000000,0.000000,0.000000,-1,0.009134,0.003812,-0.009574,0.001762,-0.005634,0.005509
"2019-05-06 15:54:56.123 +0000",1557158096.122748,3.112382,-0.643807,0.268804,0.023360,0.600245,0.799475,0.000000,0.000000,0.000000,-1,0.008069,0.005932,-0.010647,0.001207,-0.000788,-0.001242
"2019-05-06 15:54:56.143 +0000",1557158096.142738,3.112620,-0.643980,0.269039,0.023167,0.600383,0.799377,0.000000,0.000000,0.000000,-1,0.011270,0.006990,-0.010660,0.000683,-0.002513,-0.000854
"2019-05-06 15:54:56.163 +0000",1557158096.162762,3.112882,-0.644254,0.269317,0.022952,0.600602,0.799219,0.000000,0.000000,0.000000,-1,0.015530,0.005899,-0.012801,0.002988,0.001327,-0.002863
"2019-05-06 15:54:56.183 +0000",1557158096.182754,3.113077,-0.644582,0.269567,0.022791,0.600864,0.799026,0.000000,0.000000,0.000000,-1,0.014435,0.012290,-0.016083,0.002737,0.003582,0.000519
"2019-05-06 15:54:56.203 +0000",1557158096.202791,3.113503,-0.644924,0.269878,0.022445,0.601138,0.798830,0.000000,0.000000,0.000000,-1,0.011250,0.016571,-0.013958,0.003785,0.004743,0.000624
"2019-05-06 15:54:56.223 +0000",1557158096.222800,3.113835,-0.645180,0.270098,0.022176,0.601343,0.798684,0.000000,0.000000,0.000000,-1,0.005904,0.008094,-0.010703,-0.000005,0.010123,-0.000328
"2019-05-06 15:54:56.243 +0000",1557158096.242805,3.114037,-0.645525,0.270391,0.022008,0.601618,0.798481,0.000000,0.000000,0.000000,-1,0.004818,0.001666,-0.016010,0.001215,0.004369,0.001660
"2019-05-06 15:54:56.263 +0000",1557158096.262812,3.114416,-0.645642,0.270896,0.021704,0.601711,0.798419,0.000000,0.000000,0.000000,-1,0.008016,0.003761,-0.019231,-0.001868,-0.000546,0.001722
"2019-05-06 15:54:56.283 +0000",1557158096.282822,3.114977,-0.645633,0.271381,0.021256,0.601704,0.798436,0.000000,0.000000,0.000000,-1,-0.000491,0.010218,-0.012833,-0.000717,-0.000081,0.001750
"2019-05-06 15:54:56.303 +0000",1557158096.302824,3.115563,-0.645569,0.271719,0.020789,0.601653,0.798487,0.000000,0.000000,0.000000,-1,-0.006886,0.003948,-0.001046,-0.011954,0.002259,0.001165
"2019-05-06 15:54:56.323 +0000",1557158096.322809,3.115809,-0.645464,0.271778,0.020594,0.601569,0.798555,0.000000,0.000000,0.000000,-1,-0.006884,-0.001290,0.008586,-0.010828,0.003045,0.001005
"2019-05-06 15:54:56.343 +0000",1557158096.342843,3.115998,-0.645278,0.271758,0.020446,0.601420,0.798671,0.000000,0.000000,0.000000,-1,-0.003732,-0.002305,0.009538,-0.008651,-0.003962,0.003194
"2019-05-06 15:54:56.363 +0000",1557158096.362817,3.116002,-0.645043,0.271608,0.020446,0.601233,0.798812,0.000000,0.000000,0.000000,-1,-0.001602,-0.004418,0.011677,-0.002517,-0.004523,0.000931
"2019-05-06 15:54:56.383 +0000",1557158096.382850,3.115756,-0.644827,0.271379,0.020646,0.601060,0.798937,0.000000,0.000000,0.000000,-1,0.000519,-0.006578,0.008478,-0.000245,-0.003480,0.000928
"2019-05-06 15:54:56.403 +0000",1557158096.402833,3.115542,-0.644714,0.271122,0.020819,0.600970,0.799000,0.000000,0.000000,0.000000,-1,0.002668,-0.001225,0.012719,-0.000159,-0.005374,0.004253
"2019-05-06 15:54:56.423 +0000",1557158096.422869,3.115299,-0.644649,0.270650,0.021015,0.600918,0.799035,0.000000,0.000000,0.000000,-1,-0.004776,0.003110,0.020193,0.001309,0.002018,-0.000817
"2019-05-06 15:54:56.443 +0000",1557158096.442877,3.114726,-0.644688,0.269945,0.021472,0.600949,0.798999,0.000000,0.000000,0.000000,-1,-0.009045,-0.000066,0.021286,0.006681,0.004153,-0.002688
"2019-05-06 15:54:56.463 +0000",1557158096.462886,3.114163,-0.644702,0.269440,0.021921,0.600960,0.798978,0.000000,0.000000,0.000000,-1,-0.001613,-0.008678,0.011698,0.007071,0.000907,-0.001523
"2019-05-06 15:54:56.483 +0000",1557158096.482890,3.113606,-0.644690,0.269073,0.022366,0.600951,0.798973,0.000000,0.000000,0.000000,-1,0.007973,-0.010853,0.008482,-0.001843,0.001894,0.001518
"2019-05-06 15:54:56.503 +0000",1557158096.502874,3.113296,-0.644849,0.268930,0.022612,0.601078,0.798871,0.000000,0.000000,0.000000,-1,0.011110,-0.011921,0.003055,-0.001371,-0.000034,0.003024
"2019-05-06 15:54:56.523 +0000",1557158096.522907,3.112994,-0.644743,0.268858,0.022854,0.600993,0.798927,0.000000,0.000000,0.000000,-1,0.002576,-0.011913,0.002008,0.000446,-0.004436,0.004799
"2019-05-06 15:54:56.543 +0000",1557158096.542911,3.112993,-0.644363,0.268893,0.022862,0.600689,0.799156,0.000000,0.000000,0.000000,-1,-0.005942,-0.010758,0.010565,-0.007633,-0.006253,0.001763
"2019-05-06 15:54:56.563 +0000",1557158096.562921,3.113085,-0.644223,0.268919,0.022791,0.600578,0.799241,0.000000,0.000000,0.000000,-1,-0.001686,-0.016066,0.012711,-0.008081,-0.001213,-0.001405
"2019-05-06 15:54:56.583 +0000",1557158096.582896,3.112801,-0.644292,0.268779,0.023016,0.600632,0.799194,0.000000,0.000000,0.000000,-1,0.003647,-0.011864,0.007340,-0.006338,-0.000474,-0.001281
"2019-05-06 15:54:56.603 +0000",1557158096.602934,3.112755,-0.644259,0.268746,0.023054,0.600606,0.799212,0.000000,0.000000,0.000000,-1,0.003661,-0.002322,0.003026,-0.001279,-0.005285,0.002103
"2019-05-06 15:54:56.623 +0000",1557158096.622942,3.112501,-0.644020,0.268595,0.023261,0.600415,0.799350,0.000000,0.000000,0.000000,-1,0.000465,0.002968,-0.001260,0.004404,-0.004544,0.001645
"2019-05-06 15:54:56.643 +0000",1557158096.642935,3.112507,-0.643914,0.268551,0.023258,0.600330,0.799414,0.000000,0.000000,0.000000,-1,0.001545,0.011451,-0.004503,0.007733,-0.004230,0.004465
"2019-05-06 15:54:56.663 +0000",1557158096.662935,3.112089,-0.643943,0.268247,0.023592,0.600354,0.799387,0.000000,0.000000,0.000000,-1,0.001500,0.016773,-0.008857,0.010466,0.006031,-0.006769
"2019-05-06 15:54:56.683 +0000",1557158096.682963,3.112428,-0.644046,0.268477,0.023319,0.600436,0.799333,0.000000,0.000000,0.000000,-1,-0.005979,0.014595,-0.016302,0.007489,0.003659,-0.007203
"2019-05-06 15:54:56.703 +0000",1557158096.702970,3.112765,-0.644020,0.268895,0.023050,0.600415,0.799356,0.000000,0.000000,0.000000,-1,-0.004939,0.006034,-0.021604,0.005683,0.001513,-0.005243
"2019-05-06 15:54:56.723 +0000",1557158096.722959,3.113354,-0.644031,0.269556,0.022579,0.600424,0.799363,0.000000,0.000000,0.000000,-1,0.001451,0.002829,-0.021606,-0.006191,-0.001943,-0.003205
"2019-05-06 15:54:56.743 +0000",1557158096.742985,3.113977,-0.644197,0.270222,0.022078,0.600557,0.799277,0.000000,0.000000,0.000000,-1,0.007849,-0.000338,-0.017338,-0.005492,0.000579,-0.001899
"2019-05-06 15:54:56.763 +0000",1557158096.762984,3.114234,-0.644317,0.270605,0.021871,0.600652,0.799211,0.000000,0.000000,0.000000,-1,0.006788,-0.003456,-0.008780,-0.000020,0.002543,0.007765
"2019-05-06 15:54:56.783 +0000",1557158096.782999,3.114166,-0.644280,0.270598,0.021926,0.600623,0.799232,0.000000,0.000000,0.000000,-1,-0.002788,-0.003310,0.006191,-0.001632,0.000528,0.009331
"2019-05-06 15:54:56.803 +0000",1557158096.803005,3.114030,-0.643973,0.270267,0.022039,0.600378,0.799413,0.000000,0.000000,0.000000,-1,-0.009152,0.005307,0.016845,-0.000112,-0.001546,0.007594
"2019-05-06 15:54:56.823 +0000",1557158096.823014,3.113956,-0.643728,0.269826,0.022103,0.600182,0.799558,0.000000,0.000000,0.000000,-1,-0.004935,0.010670,0.017836,-0.000756,-0.003227,0.001147
"2019-05-06 15:54:56.843 +0000",1557158096.843020,3.113849,-0.643509,0.269330,0.022192,0.600007,0.799687,0.000000,0.000000,0.000000,-1,0.001472,0.015969,0.016729,0.002360,-0.003922,0.002193
"2019-05-06 15:54:56.863 +0000",1557158096.863027,3.113874,-0.643488,0.268878,0.022172,0.599989,0.799701,0.000000,0.000000,0.000000,-1,-0.000654,0.020220,0.015648,0.003783,-0.000227,0.002149
"2019-05-06 15:54:56.883 +0000",1557158096.883035,3.113880,-0.643533,0.268327,0.022167,0.600026,0.799673,0.000000,0.000000,0.000000,-1,-0.002779,0.020260,0.019924,0.001225,0.002422,0.000467
"2019-05-06 15:54:56.903 +0000",1557158096.903041,3.113893,-0.643669,0.267816,0.022154,0.600134,0.799592,0.000000,0.000000,0.000000,-1,-0.003861,0.012813,0.019960,-0.001524,0.003030,-0.002779
"2019-05-06 15:54:56.923 +0000",1557158096.923030,3.113871,-0.643660,0.267380,0.022172,0.600127,0.799597,0.000000,0.000000,0.000000,-1,-0.004936,0.009614,0.018910,0.000060,0.000199,-0.002387
"2019-05-06 15:54:56.943 +0000",1557158096.943059,3.113900,-0.643586,0.267016,0.022150,0.600068,0.799642,0.000000,0.000000,0.000000,-1,-0.004941,0.007486,0.018919,-0.003534,0.000472,-0.001302
"2019-05-06 15:54:56.963 +0000",1557158096.963063,3.114152,-0.643562,0.266779,0.021949,0.600048,0.799663,0.000000,0.000000,0.000000,-1,-0.001745,0.005362,0.019986,-0.007483,0.000782,0.002828
"2019-05-06 15:54:56.983 +0000",1557158096.983053,3.114178,-0.643471,0.266411,0.021930,0.599976,0.799717,0.000000,0.000000,0.000000,-1,-0.003945,0.001160,0.022117,-0.000460,-0.001099,0.003276
"2019-05-06 15:54:57.003 +0000",1557158097.003077,3.113848,-0.643337,0.265875,0.022196,0.599869,0.799791,0.000000,0.000000,0.000000,-1,-0.007152,-0.002027,0.022139,-0.000727,-0.000992,0.003203
"2019-05-06 15:54:57.023 +0000",1557158097.023085,3.113518,-0.643089,0.265375,0.022463,0.599670,0.799932,0.000000,0.000000,0.000000,-1,-0.006092,-0.003111,0.020006,0.000425,-0.002258,0.001795
"2019-05-06 15:54:57.043 +0000",1557158097.043073,3.113163,-0.642937,0.264896,0.022750,0.599549,0.800015,0.000000,0.000000,0.000000,-1,-0.003963,-0.004188,0.018938,0.000626,0.000305,0.001972
"2019-05-06 15:54:57.063 +0000",1557158097.063100,3.112865,-0.642803,0.264480,0.022991,0.599441,0.800088,0.000000,0.000000,0.000000,-1,-0.002898,-0.003144,0.016795,-0.001949,0.000351,0.004767
"2019-05-06 15:54:57.083 +0000",1557158097.083107,3.112483,-0.642658,0.264083,0.023299,0.599325,0.800166,0.000000,0.000000,0.000000,-1,-0.005051,-0.009552,0.013626,0.000734,0.002390,0.003346
"2019-05-06 15:54:57.103 +0000",1557158097.103107,3.112161,-0.642551,0.263848,0.023559,0.599240,0.800223,0.000000,0.000000,0.000000,-1,-0.002934,-0.012794,0.008297,-0.000686,0.001773,0.002466
"2019-05-06 15:54:57.123 +0000",1557158097.123122,3.111877,-0.642563,0.263781,0.023786,0.599249,0.800209,0.000000,0.000000,0.000000,-1,0.001319,-0.012875,-0.000256,-0.000546,-0.000738,-0.000603
"2019-05-06 15:54:57.143 +0000",1557158097.143127,3.111528,-0.642616,0.263800,0.024064,0.599291,0.800169,0.000000,0.000000,0.000000,-1,0.005515,-0.011847,-0.006700,0.003463,0.000364,0.003252
"2019-05-06 15:54:57.163 +0000",1557158097.163136,3.111244,-0.642561,0.263903,0.024293,0.599248,0.800195,0.000000,0.000000,0.000000,-1,-0.000887,-0.010797,-0.009891,0.003280,-0.000340,0.004630
"2019-05-06 15:54:57.183 +0000",1557158097.183144,3.111189,-0.642454,0.264171,0.024338,0.599162,0.800258,0.000000,0.000000,0.000000,-1,-0.005155,-0.012908,-0.008803,-0.001557,-0.001247,0.000615
"2019-05-06 15:54:57.203 +0000",1557158097.203136,3.111120,-0.642289,0.264426,0.024396,0.599030,0.800355,0.000000,0.000000,0.000000,-1,-0.005156,-0.012908,-0.008803,-0.001493,-0.001542,-0.000764
"2019-05-06 15:54:57.223 +0000",1557158097.223155,3.110691,-0.642261,0.264509,0.024740,0.599008,0.800361,0.000000,0.000000,0.000000,-1,-0.004090,-0.007663,-0.017370,0.008127,0.000937,-0.001884
"2019-05-06 15:54:57.243 +0000",1557158097.243145,3.110685,-0.642219,0.264959,0.024746,0.598974,0.800386,0.000000,0.000000,0.000000,-1,0.001229,-0.006692,-0.026996,0.008884,-0.002950,-0.001131
"2019-05-06 15:54:57.263 +0000",1557158097.263169,3.110637,-0.642120,0.265474,0.024786,0.598895,0.800444,0.000000,0.000000,0.000000,-1,0.005490,-0.008821,-0.025929,0.002206,-0.002047,0.003526
"2019-05-06 15:54:57.283 +0000",1557158097.283180,3.110839,-0.642261,0.266070,0.024622,0.599007,0.800365,0.000000,0.000000,0.000000,-1,0.006566,-0.006667,-0.022738,-0.001169,0.000617,0.004979
"2019-05-06 15:54:57.303 +0000",1557158097.303173,3.111025,-0.642402,0.266720,0.024471,0.599121,0.800285,0.000000,0.000000,0.000000,-1,0.003288,-0.010935,-0.028072,0.000279,0.003907,0.004159
"2019-05-06 15:54:57.323 +0000",1557158097.323165,3.111196,-0.642479,0.267465,0.024333,0.599182,0.800243,0.000000,0.000000,0.000000,-1,0.003282,-0.010971,-0.032342,-0.002528,-0.001403,0.000828
"2019-05-06 15:54:57.343 +0000",1557158097.343201,3.111688,-0.642537,0.268380,0.023937,0.599229,0.800220,0.000000,0.000000,0.000000,-1,0.004359,-0.004606,-0.034510,-0.005078,-0.000779,0.000348
"2019-05-06 15:54:57.363 +0000",1557158097.363198,3.112368,-0.642667,0.269365,0.023391,0.599333,0.800158,0.000000,0.000000,0.000000,-1,0.005436,0.000705,-0.035604,-0.005919,0.000613,0.000363
"2019-05-06 15:54:57.383 +0000",1557158097.383214,3.113174,-0.642848,0.270330,0.022743,0.599477,0.800068,0.000000,0.000000,0.000000,-1,0.001189,0.006071,-0.031348,-0.002281,0.005640,0.000026
"2019-05-06 15:54:57.403 +0000",1557158097.403221,3.113685,-0.642979,0.271051,0.022332,0.599582,0.800001,0.000000,0.000000,0.000000,-1,-0.012676,0.000824,-0.025951,0.000755,0.006207,-0.000441
"2019-05-06 15:54:57.423 +0000",1557158097.423231,3.113897,-0.642783,0.271609,0.022165,0.599425,0.800124,0.000000,0.000000,0.000000,-1,-0.018017,-0.006579,-0.021633,0.001318,0.005113,-0.002516
"2019-05-06 15:54:57.443 +0000",1557158097.443235,3.113861,-0.642627,0.272049,0.022197,0.599301,0.800216,0.000000,0.000000,0.000000,-1,-0.015885,-0.005538,-0.023778,0.005681,0.002384,-0.002243
"2019-05-06 15:54:57.463 +0000",1557158097.463244,3.113794,-0.642545,0.272465,0.022252,0.599235,0.800264,0.000000,0.000000,0.000000,-1,-0.019140,-0.006585,-0.024841,0.004741,0.005395,-0.003282
"2019-05-06 15:54:57.483 +0000",1557158097.483252,3.113795,-0.642264,0.273070,0.022256,0.599010,0.800432,0.000000,0.000000,0.000000,-1,-0.021319,-0.028911,-0.022600,-0.000344,0.006139,-0.001406
"2019-05-06 15:54:57.503 +0000",1557158097.503244,3.113783,-0.642010,0.273942,0.022269,0.598807,0.800584,0.000000,0.000000,0.000000,-1,-0.010706,-0.053380,-0.019315,-0.012458,-0.001944,-0.000047
"2019-05-06 15:54:57.523 +0000",1557158097.523261,3.113780,-0.641519,0.274882,0.022280,0.598413,0.800878,0.000000,0.000000,0.000000,-1,-0.002167,-0.049128,-0.018290,-0.011691,-0.010370,0.003794
"2019-05-06 15:54:57.543 +0000",1557158097.543275,3.113427,-0.641338,0.275453,0.022566,0.598268,0.800978,0.000000,0.000000,0.000000,-1,0.005321,-0.039546,-0.016217,-0.009581,-0.010484,0.005891
"2019-05-06 15:54:57.563 +0000",1557158097.563278,3.112991,-0.640996,0.275825,0.022921,0.597994,0.801173,0.000000,0.000000,0.000000,-1,0.008533,-0.037360,-0.008761,-0.002840,-0.007601,0.007039
"2019-05-06 15:54:57.583 +0000",1557158097.583288,3.112484,-0.641051,0.276016,0.023326,0.598038,0.801128,0.000000,0.000000,0.000000,-1,-0.002112,-0.031981,-0.004488,-0.002116,0.002594,0.003483
"2019-05-06 15:54:57.603 +0000",1557158097.603296,3.112006,-0.641017,0.276117,0.023710,0.598010,0.801138,0.000000,0.000000,0.000000,-1,-0.002092,-0.022412,-0.005599,-0.002500,0.002621,0.003474
"2019-05-06 15:54:57.623 +0000",1557158097.623300,3.111307,-0.640962,0.276050,0.024271,0.597966,0.801154,0.000000,0.000000,0.000000,-1,-0.000006,-0.017139,-0.012048,0.009665,-0.003225,-0.003577
"2019-05-06 15:54:57.643 +0000",1557158097.643291,3.110735,-0.640719,0.276188,0.024734,0.597772,0.801284,0.000000,0.000000,0.000000,-1,0.002115,-0.017199,-0.018458,0.007935,-0.005228,0.004776
"2019-05-06 15:54:57.663 +0000",1557158097.663315,3.110669,-0.640788,0.276627,0.024785,0.597828,0.801241,0.000000,0.000000,0.000000,-1,0.003182,-0.018247,-0.016321,0.007884,-0.005283,0.004819
"2019-05-06 15:54:57.683 +0000",1557158097.683323,3.110184,-0.640494,0.276769,0.025179,0.597592,0.801405,0.000000,0.000000,0.000000,-1,-0.000014,-0.021371,-0.008824,0.002806,-0.005291,0.003175
"2019-05-06 15:54:57.703 +0000",1557158097.703311,3.109774,-0.640308,0.276943,0.025512,0.597443,0.801506,0.000000,0.000000,0.000000,-1,0.008512,-0.022452,-0.008841,0.002641,-0.010513,0.003594
"2019-05-06 15:54:57.723 +0000",1557158097.723339,3.109429,-0.640345,0.277134,0.025787,0.597472,0.801475,0.000000,0.000000,0.000000,-1,0.022380,-0.017186,-0.012102,0.003235,-0.013763,0.002801
"2019-05-06 15:54:57.743 +0000",1557158097.743343,3.108927,-0.640336,0.277184,0.026190,0.597465,0.801467,0.000000,0.000000,0.000000,-1,0.029855,-0.009771,-0.014288,0.007776,-0.012947,-0.001159
"2019-05-06 15:54:57.763 +0000",1557158097.763336,3.108869,-0.640812,0.277387,0.026227,0.597846,0.801181,0.000000,0.000000,0.000000,-1,0.032006,-0.003364,-0.011119,0.004702,-0.007545,-0.000232
"2019-05-06 15:54:57.783 +0000",1557158097.783360,3.108794,-0.641339,0.277449,0.026277,0.598269,0.800865,0.000000,0.000000,0.000000,-1,0.030912,-0.001171,-0.004757,0.003799,-0.005007,0.000542
"2019-05-06 15:54:57.803 +0000",1557158097.803365,3.108503,-0.642048,0.277314,0.026495,0.598837,0.800432,0.000000,0.000000,0.000000,-1,0.025589,0.000986,-0.002617,0.005304,0.003076,-0.001665
"2019-05-06 15:54:57.823 +0000",1557158097.823364,3.108294,-0.642575,0.277163,0.026652,0.599259,0.800112,0.000000,0.000000,0.000000,-1,0.023467,0.007356,-0.004775,0.004582,-0.000931,-0.000765
"2019-05-06 15:54:57.843 +0000",1557158097.843379,3.108572,-0.643031,0.277257,0.026421,0.599624,0.799846,0.000000,0.000000,0.000000,-1,0.021343,0.011608,-0.005856,0.004814,-0.001296,-0.000499
"2019-05-06 15:54:57.863 +0000",1557158097.863388,3.108699,-0.643368,0.277215,0.026313,0.599894,0.799647,0.000000,0.000000,0.000000,-1,0.014957,0.014840,-0.002651,0.002526,0.000555,-0.002100
"2019-05-06 15:54:57.883 +0000",1557158097.883391,3.108895,-0.643719,0.277099,0.026149,0.600175,0.799442,0.000000,0.000000,0.000000,-1,0.006438,0.013874,0.006984,0.000676,0.005172,-0.003314
"2019-05-06 15:54:57.903 +0000",1557158097.903403,3.108848,-0.643802,0.276759,0.026185,0.600241,0.799391,0.000000,0.000000,0.000000,-1,0.003234,0.004394,0.017711,-0.003786,0.006952,-0.003614
"2019-05-06 15:54:57.923 +0000",1557158097.923408,3.108737,-0.643980,0.276345,0.026270,0.600383,0.799281,0.000000,0.000000,0.000000,-1,-0.004236,-0.004032,0.026309,-0.004450,0.009053,-0.001002
"2019-05-06 15:54:57.943 +0000",1557158097.943417,3.108053,-0.644308,0.275600,0.026811,0.600645,0.799066,0.000000,0.000000,0.000000,-1,-0.008542,-0.005103,0.023105,0.001937,0.008486,-0.000192
"2019-05-06 15:54:57.963 +0000",1557158097.963425,3.107763,-0.644330,0.275209,0.027042,0.600663,0.799045,0.000000,0.000000,0.000000,-1,-0.003215,-0.001993,0.014536,-0.001621,0.007034,0.001095
"2019-05-06 15:54:57.983 +0000",1557158097.983429,3.108174,-0.644936,0.275246,0.026701,0.601147,0.798692,0.000000,0.000000,0.000000,-1,0.001057,0.002229,0.011301,-0.006193,0.012988,0.004119
"2019-05-06 15:54:58.003 +0000",1557158098.003438,3.108220,-0.645222,0.275171,0.026659,0.601376,0.798521,0.000000,0.000000,0.000000,-1,-0.003236,-0.004228,0.001732,-0.003511,0.013477,0.000643
"2019-05-06 15:54:58.023 +0000",1557158098.023445,3.108100,-0.645211,0.275274,0.026755,0.601367,0.798525,0.000000,0.000000,0.000000,-1,-0.006469,-0.018074,-0.000334,-0.003332,0.004071,0.000807
"2019-05-06 15:54:58.043 +0000",1557158098.043422,3.107966,-0.644794,0.275379,0.026870,0.601034,0.798772,0.000000,0.000000,0.000000,-1,-0.005406,-0.024388,0.008233,-0.005386,-0.007559,-0.000142
"2019-05-06 15:54:58.063 +0000",1557158098.063438,3.107926,-0.643849,0.275421,0.026921,0.600278,0.799338,0.000000,0.000000,0.000000,-1,-0.004325,-0.021132,0.015688,-0.005254,-0.011121,0.003732
"2019-05-06 15:54:58.083 +0000",1557158098.083455,3.107417,-0.643477,0.274983,0.027336,0.599981,0.799547,0.000000,0.000000,0.000000,-1,-0.003228,-0.010447,0.020976,-0.002418,-0.009465,0.006483
"2019-05-06 15:54:58.103 +0000",1557158098.103448,3.106767,-0.642586,0.274291,0.027874,0.599267,0.800063,0.000000,0.000000,0.000000,-1,-0.000027,-0.000852,0.021984,0.005040,-0.007196,0.008362
"2019-05-06 15:54:58.123 +0000",1557158098.123481,3.106160,-0.642393,0.273521,0.028364,0.599113,0.800162,0.000000,0.000000,0.000000,-1,0.002121,0.006592,0.021946,0.007128,-0.000678,0.002435
"2019-05-06 15:54:58.143 +0000",1557158098.143483,3.105877,-0.642484,0.272918,0.028588,0.599186,0.800100,0.000000,0.000000,0.000000,-1,0.010662,0.013988,0.017621,0.007438,-0.002765,0.000819
"2019-05-06 15:54:58.163 +0000",1557158098.163474,3.105749,-0.642734,0.272463,0.028685,0.599386,0.799946,0.000000,0.000000,0.000000,-1,0.012785,0.013929,0.011210,0.002015,-0.001349,-0.004261
"2019-05-06 15:54:58.184 +0000",1557158098.183503,3.105765,-0.643028,0.272181,0.028666,0.599621,0.799770,0.000000,0.000000,0.000000,-1,0.010638,0.009649,0.008031,0.001531,-0.000104,-0.005199
"2019-05-06 15:54:58.204 +0000",1557158098.203510,3.105736,-0.643286,0.271945,0.028684,0.599828,0.799615,0.000000,0.000000,0.000000,-1,0.009565,0.008559,0.004836,0.004565,0.002010,-0.000680
"2019-05-06 15:54:58.224 +0000",1557158098.223515,3.105677,-0.643539,0.271728,0.028725,0.600030,0.799462,0.000000,0.000000,0.000000,-1,0.010635,0.011731,0.002684,0.006095,0.002799,0.001915
"2019-05-06 15:54:58.244 +0000",1557158098.243523,3.105740,-0.643645,0.271528,0.028673,0.600115,0.799400,0.000000,0.000000,0.000000,-1,0.007447,0.013902,0.006954,0.003844,0.001463,0.004296
"2019-05-06 15:54:58.264 +0000",1557158098.263532,3.105805,-0.643704,0.271302,0.028620,0.600162,0.799366,0.000000,0.000000,0.000000,-1,0.008487,0.010732,0.008042,-0.001490,-0.000583,0.000133
"2019-05-06 15:54:58.284 +0000",1557158098.283525,3.106077,-0.643689,0.271250,0.028402,0.600150,0.799383,0.000000,0.000000,0.000000,-1,0.011673,0.005405,0.008057,-0.005102,0.000024,0.004770
"2019-05-06 15:54:58.304 +0000",1557158098.303523,3.106125,-0.643955,0.271070,0.028358,0.600363,0.799225,0.000000,0.000000,0.000000,-1,0.014879,0.009637,0.005895,-0.005058,-0.000189,0.004929
"2019-05-06 15:54:58.324 +0000",1557158098.323554,3.106419,-0.644215,0.271027,0.028118,0.600571,0.799077,0.000000,0.000000,0.000000,-1,0.014880,0.011748,0.003750,-0.003750,-0.000137,0.003612
"2019-05-06 15:54:58.344 +0000",1557158098.343560,3.106633,-0.644529,0.270917,0.027940,0.600822,0.798895,0.000000,0.000000,0.000000,-1,0.011687,0.013892,0.004816,-0.000947,0.003594,0.002879
"2019-05-06 15:54:58.364 +0000",1557158098.363548,3.106862,-0.644702,0.270815,0.027754,0.600960,0.798797,0.000000,0.000000,0.000000,-1,0.010620,0.012839,0.005891,-0.001524,0.000007,0.003617
"2019-05-06 15:54:58.384 +0000",1557158098.383562,3.106991,-0.645059,0.270666,0.027643,0.601246,0.798586,0.000000,0.000000,0.000000,-1,0.014875,0.009620,0.003759,0.000464,0.001629,-0.003145
"2019-05-06 15:54:58.404 +0000",1557158098.403579,3.107510,-0.645421,0.270749,0.027222,0.601535,0.798383,0.000000,0.000000,0.000000,-1,0.010620,0.012840,0.005890,-0.002731,0.003537,0.002185
"2019-05-06 15:54:58.424 +0000",1557158098.423567,3.107484,-0.645787,0.270598,0.027235,0.601827,0.798162,0.000000,0.000000,0.000000,-1,0.006302,-0.002000,0.004930,-0.000319,0.008311,-0.002508
"2019-05-06 15:54:58.444 +0000",1557158098.443596,3.107415,-0.645922,0.270504,0.027287,0.601935,0.798079,0.000000,0.000000,0.000000,-1,0.004168,-0.000950,0.002795,-0.000249,0.004800,0.002535
"2019-05-06 15:54:58.464 +0000",1557158098.463596,3.107394,-0.645959,0.270415,0.027303,0.601964,0.798056,0.000000,0.000000,0.000000,-1,0.004177,0.002252,0.003849,-0.000630,-0.000066,0.001947
"2019-05-06 15:54:58.484 +0000",1557158098.483593,3.107338,-0.645950,0.270285,0.027348,0.601957,0.798060,0.000000,0.000000,0.000000,-1,0.007371,-0.000929,0.005990,0.000057,-0.004744,0.000051
"2019-05-06 15:54:58.504 +0000",1557158098.503594,3.107220,-0.646016,0.270150,0.027441,0.602010,0.798017,0.000000,0.000000,0.000000,-1,0.011633,-0.000955,0.003845,0.000849,-0.003255,0.003833
"2019-05-06 15:54:58.524 +0000",1557158098.523602,3.107130,-0.645979,0.270016,0.027513,0.601981,0.798037,0.000000,0.000000,0.000000,-1,0.010578,0.005423,0.002751,0.001357,-0.003409,0.002943
"2019-05-06 15:54:58.544 +0000",1557158098.543632,3.107199,-0.646024,0.269888,0.027458,0.602017,0.798011,0.000000,0.000000,0.000000,-1,0.010584,0.006514,0.005949,-0.000022,-0.004620,0.004128
"2019-05-06 15:54:58.564 +0000",1557158098.563637,3.107204,-0.646213,0.269677,0.027449,0.602168,0.797898,0.000000,0.000000,0.000000,-1,0.013793,0.010764,0.005922,0.001847,-0.002009,0.000168
"2019-05-06 15:54:58.584 +0000",1557158098.583645,3.107337,-0.646552,0.269521,0.027336,0.602438,0.797697,0.000000,0.000000,0.000000,-1,0.011669,0.018173,0.000556,0.001747,0.002466,-0.000883
"2019-05-06 15:54:58.604 +0000",1557158098.603653,3.107217,-0.647033,0.269287,0.027422,0.602822,0.797404,0.000000,0.000000,0.000000,-1,0.006325,0.016008,-0.004759,0.004438,0.003715,-0.000117
"2019-05-06 15:54:58.624 +0000",1557158098.623658,3.107506,-0.647149,0.269354,0.027189,0.602914,0.797343,0.000000,0.000000,0.000000,-1,0.004192,0.014957,-0.003681,0.000505,0.000540,0.004415
"2019-05-06 15:54:58.644 +0000",1557158098.643646,3.108118,-0.647048,0.269550,0.026703,0.602834,0.797420,0.000000,0.000000,0.000000,-1,-0.001125,0.018207,0.001656,-0.005539,0.000376,0.002080
"2019-05-06 15:54:58.664 +0000",1557158098.663674,3.108771,-0.647006,0.269632,0.026183,0.602800,0.797463,0.000000,0.000000,0.000000,-1,-0.005380,0.019326,0.006999,-0.006194,0.001509,0.001213
"2019-05-06 15:54:58.684 +0000",1557158098.683677,3.109238,-0.647170,0.269656,0.025808,0.602931,0.797376,0.000000,0.000000,0.000000,-1,-0.002195,0.017137,0.000595,-0.002630,0.005056,-0.002378
"2019-05-06 15:54:58.704 +0000",1557158098.703681,3.109592,-0.647432,0.269834,0.025520,0.603140,0.797227,0.000000,0.000000,0.000000,-1,0.004171,0.007483,-0.006852,-0.002129,0.004205,0.002028
"2019-05-06 15:54:58.724 +0000",1557158098.723697,3.109960,-0.647592,0.270135,0.025224,0.603268,0.797140,0.000000,0.000000,0.000000,-1,0.008423,0.002145,-0.007907,-0.003694,0.004032,0.005747
"2019-05-06 15:54:58.744 +0000",1557158098.743697,3.110146,-0.647736,0.270363,0.025073,0.603383,0.797058,0.000000,0.000000,0.000000,-1,0.005216,0.000005,-0.010025,0.002469,0.003872,0.002320
"2019-05-06 15:54:58.764 +0000",1557158098.763707,3.110174,-0.647759,0.270599,0.025050,0.603401,0.797044,0.000000,0.000000,0.000000,-1,-0.000124,-0.002131,-0.012137,0.000524,-0.000938,0.001875
"2019-05-06 15:54:58.784 +0000",1557158098.783718,3.110413,-0.647653,0.270951,0.024861,0.603316,0.797115,0.000000,0.000000,0.000000,-1,0.000940,-0.006344,-0.006782,-0.006398,-0.005843,0.001576
"2019-05-06 15:54:58.804 +0000",1557158098.803727,3.110561,-0.647560,0.271163,0.024745,0.603242,0.797174,0.000000,0.000000,0.000000,-1,0.003079,-0.007357,-0.000378,-0.009258,-0.006349,0.001761
"2019-05-06 15:54:58.824 +0000",1557158098.823730,3.110915,-0.647373,0.271333,0.024467,0.603093,0.797296,0.000000,0.000000,0.000000,-1,-0.001156,0.002285,0.005995,-0.006767,-0.001286,0.003013
"2019-05-06 15:54:58.844 +0000",1557158098.843739,3.110939,-0.647335,0.271164,0.024449,0.603063,0.797319,0.000000,0.000000,0.000000,-1,-0.004340,0.007630,0.008114,-0.001912,-0.000539,0.004240
"2019-05-06 15:54:58.864 +0000",1557158098.863747,3.110797,-0.647154,0.270838,0.024565,0.602918,0.797425,0.000000,0.000000,0.000000,-1,-0.009673,0.004484,0.012413,0.002489,0.000491,0.002197
"2019-05-06 15:54:58.884 +0000",1557158098.883722,3.110416,-0.646978,0.270347,0.024872,0.602778,0.797521,0.000000,0.000000,0.000000,-1,-0.010737,0.003449,0.015623,0.001648,0.000616,-0.000814
"2019-05-06 15:54:58.904 +0000",1557158098.903762,3.110231,-0.646790,0.269987,0.025024,0.602628,0.797630,0.000000,0.000000,0.000000,-1,-0.008612,0.001298,0.013492,0.000718,-0.000150,-0.001228
"2019-05-06 15:54:58.924 +0000",1557158098.923770,3.109968,-0.646613,0.269646,0.025236,0.602487,0.797730,0.000000,0.000000,0.000000,-1,-0.011856,-0.002868,0.012508,0.002031,0.000373,-0.003128
"2019-05-06 15:54:58.944 +0000",1557158098.943777,3.109284,-0.646207,0.269113,0.025790,0.602163,0.797957,0.000000,0.000000,0.000000,-1,-0.016135,-0.011338,0.016828,0.003339,-0.003194,0.001161
"2019-05-06 15:54:58.964 +0000",1557158098.963774,3.108927,-0.645862,0.268802,0.026082,0.601887,0.798155,0.000000,0.000000,0.000000,-1,-0.017209,-0.014528,0.016845,-0.005558,0.000088,-0.000609
"2019-05-06 15:54:58.984 +0000",1557158098.983791,3.108406,-0.645635,0.268508,0.026502,0.601705,0.798278,0.000000,0.000000,0.000000,-1,-0.012969,-0.023086,0.012602,-0.003324,0.001246,-0.001907
"2019-05-06 15:54:59.004 +0000",1557158099.003795,3.107772,-0.645551,0.268350,0.027010,0.601639,0.798312,0.000000,0.000000,0.000000,-1,-0.002330,-0.028500,0.004057,0.000670,-0.001007,-0.001009
"2019-05-06 15:54:59.024 +0000",1557158099.023793,3.107054,-0.645360,0.268271,0.027587,0.601486,0.798407,0.000000,0.000000,0.000000,-1,0.001927,-0.027499,-0.002364,0.004976,-0.006424,0.004328
"2019-05-06 15:54:59.044 +0000",1557158099.043781,3.106615,-0.645443,0.268314,0.027936,0.601552,0.798345,0.000000,0.000000,0.000000,-1,0.004077,-0.021100,-0.000262,0.002033,-0.007085,0.006739
"2019-05-06 15:54:59.064 +0000",1557158099.063818,3.106348,-0.645256,0.268342,0.028153,0.601403,0.798450,0.000000,0.000000,0.000000,-1,0.006230,-0.009426,-0.003523,0.000717,-0.003182,0.006818
"2019-05-06 15:54:59.084 +0000",1557158099.083825,3.106415,-0.645309,0.268512,0.028098,0.601445,0.798420,0.000000,0.000000,0.000000,-1,0.009438,-0.005175,-0.003551,-0.004203,-0.002736,0.003231
"2019-05-06 15:54:59.104 +0000",1557158099.103834,3.106415,-0.645457,0.268568,0.028095,0.601563,0.798331,0.000000,0.000000,0.000000,-1,0.005188,0.000173,-0.001429,-0.004749,-0.000260,0.004526
"2019-05-06 15:54:59.124 +0000",1557158099.123809,3.106538,-0.645628,0.268632,0.027993,0.601700,0.798232,0.000000,0.000000,0.000000,-1,-0.001212,-0.005080,0.005017,-0.005120,0.007767,-0.000899
"2019-05-06 15:54:59.144 +0000",1557158099.143847,3.106535,-0.645907,0.268613,0.027990,0.601923,0.798064,0.000000,0.000000,0.000000,-1,-0.005482,-0.010356,0.009321,-0.006918,0.011465,-0.003493
"2019-05-06 15:54:59.164 +0000",1557158099.163855,3.106034,-0.645741,0.268345,0.028393,0.601790,0.798149,0.000000,0.000000,0.000000,-1,-0.008700,-0.020964,0.012580,-0.005704,0.009934,-0.002861
"2019-05-06 15:54:59.184 +0000",1557158099.183788,3.105293,-0.645843,0.267987,0.028982,0.601872,0.798067,0.000000,0.000000,0.000000,-1,-0.009784,-0.032623,0.017974,0.000543,0.008068,-0.001619
"2019-05-06 15:54:59.204 +0000",1557158099.203797,3.104046,-0.646086,0.267433,0.029972,0.602066,0.797884,0.000000,0.000000,0.000000,-1,-0.004476,-0.042230,0.015869,-0.000157,0.001252,0.000105
"2019-05-06 15:54:59.224 +0000",1557158099.223790,3.102955,-0.645887,0.267123,0.030847,0.601907,0.797970,0.000000,0.000000,0.000000,-1,-0.001292,-0.044419,0.009464,0.000097,-0.003519,0.002415
"2019-05-06 15:54:59.244 +0000",1557158099.243786,3.101797,-0.644846,0.266721,0.031796,0.601075,0.798560,0.000000,0.000000,0.000000,-1,-0.003399,-0.030590,0.008340,0.004352,-0.010957,0.009164
"2019-05-06 15:54:59.264 +0000",1557158099.263797,3.100643,-0.643874,0.266089,0.032742,0.600298,0.799106,0.000000,0.000000,0.000000,-1,-0.008692,-0.014582,0.012554,0.009800,-0.009417,0.008984
"2019-05-06 15:54:59.284 +0000",1557158099.283819,3.099937,-0.643422,0.265552,0.033317,0.599937,0.799353,0.000000,0.000000,0.000000,-1,-0.007606,-0.006062,0.013581,0.009560,-0.005500,0.006113
"2019-05-06 15:54:59.304 +0000",1557158099.303813,3.098871,-0.643228,0.264865,0.034174,0.599781,0.799434,0.000000,0.000000,0.000000,-1,0.000913,-0.006144,0.006088,0.005102,-0.001194,-0.001567
"2019-05-06 15:54:59.324 +0000",1557158099.323817,3.098795,-0.643390,0.264865,0.034231,0.599911,0.799334,0.000000,0.000000,0.000000,-1,0.010512,0.000149,-0.002506,0.001643,-0.003399,-0.000186
"2019-05-06 15:54:59.344 +0000",1557158099.343847,3.098862,-0.643549,0.264863,0.034173,0.600038,0.799241,0.000000,0.000000,0.000000,-1,0.010529,0.007608,-0.001472,0.001883,-0.003511,-0.000825
"2019-05-06 15:54:59.364 +0000",1557158099.363839,3.098778,-0.643759,0.264690,0.034235,0.600206,0.799112,0.000000,0.000000,0.000000,-1,0.004140,0.008720,0.002810,0.002951,0.002424,0.001211
"2019-05-06 15:54:59.384 +0000",1557158099.383833,3.098896,-0.643796,0.264605,0.034140,0.600236,0.799094,0.000000,0.000000,0.000000,-1,0.000939,0.007663,0.002823,0.003229,0.001891,-0.002051
"2019-05-06 15:54:59.404 +0000",1557158099.403870,3.098955,-0.643944,0.264521,0.034089,0.600354,0.799008,0.000000,0.000000,0.000000,-1,0.002002,0.006587,0.001757,0.001358,0.003207,-0.001995
"2019-05-06 15:54:59.424 +0000",1557158099.423873,3.099087,-0.643994,0.264501,0.033982,0.600394,0.798982,0.000000,0.000000,0.000000,-1,-0.000134,0.004472,0.002840,-0.000641,0.000024,0.000686
"2019-05-06 15:54:59.444 +0000",1557158099.443854,3.099138,-0.643837,0.264439,0.033945,0.600269,0.799078,0.000000,0.000000,0.000000,-1,-0.002268,0.003422,0.003917,-0.001444,-0.003559,0.001917
"2019-05-06 15:54:59.464 +0000",1557158099.463892,3.099205,-0.643758,0.264330,0.033894,0.600205,0.799127,0.000000,0.000000,0.000000,-1,-0.005448,0.014043,0.000675,0.002651,0.000823,0.000280
"2019-05-06 15:54:59.484 +0000",1557158099.483896,3.099366,-0.643709,0.264363,0.033766,0.600167,0.799162,0.000000,0.000000,0.000000,-1,-0.000135,0.012877,-0.010010,0.002093,-0.001000,0.000780
"2019-05-06 15:54:59.504 +0000",1557158099.503879,3.099717,-0.643725,0.264606,0.033485,0.600179,0.799164,0.000000,0.000000,0.000000,-1,0.001992,0.009689,-0.008933,0.000511,-0.003637,0.002197
"2019-05-06 15:54:59.524 +0000",1557158099.523912,3.100181,-0.643697,0.264816,0.033115,0.600157,0.799196,0.000000,0.000000,0.000000,-1,-0.000129,0.010812,-0.002527,-0.004703,-0.000655,0.002607
"2019-05-06 15:54:59.544 +0000",1557158099.543917,3.100476,-0.643820,0.264936,0.032876,0.600255,0.799133,0.000000,0.000000,0.000000,-1,-0.004408,0.007592,-0.006773,0.000327,0.005672,0.003007
"2019-05-06 15:54:59.564 +0000",1557158099.563905,3.101133,-0.643586,0.265428,0.032357,0.600068,0.799294,0.000000,0.000000,0.000000,-1,-0.004421,0.004373,-0.009962,-0.006493,-0.004258,0.001411
"2019-05-06 15:54:59.584 +0000",1557158099.583934,3.101410,-0.643548,0.265646,0.032136,0.600037,0.799326,0.000000,0.000000,0.000000,-1,-0.000146,0.006521,-0.006780,-0.006272,-0.004228,0.001379
"2019-05-06 15:54:59.604 +0000",1557158099.603939,3.102035,-0.643402,0.265992,0.031640,0.599921,0.799433,0.000000,0.000000,0.000000,-1,-0.000132,0.008705,-0.000384,-0.006173,-0.003333,0.000356
"2019-05-06 15:54:59.624 +0000",1557158099.623929,3.102319,-0.643221,0.265977,0.031417,0.599776,0.799551,0.000000,0.000000,0.000000,-1,-0.003314,0.014068,0.003870,-0.001846,-0.002791,0.003489
"2019-05-06 15:54:59.644 +0000",1557158099.643955,3.102531,-0.643163,0.265896,0.031249,0.599729,0.799592,0.000000,0.000000,0.000000,-1,-0.001190,0.010862,0.002812,0.002000,-0.001005,0.001723
"2019-05-06 15:54:59.664 +0000",1557158099.663960,3.102533,-0.643108,0.265765,0.031249,0.599685,0.799626,0.000000,0.000000,0.000000,-1,0.000927,0.004464,0.001768,0.004838,0.000489,-0.000172
"2019-05-06 15:54:59.684 +0000",1557158099.683959,3.102290,-0.643266,0.265648,0.031439,0.599812,0.799523,0.000000,0.000000,0.000000,-1,0.004108,0.002256,-0.006771,0.002954,0.000759,0.001121
"2019-05-06 15:54:59.704 +0000",1557158099.703977,3.102525,-0.643308,0.265903,0.031251,0.599846,0.799505,0.000000,0.000000,0.000000,-1,-0.000156,0.006476,-0.012118,0.004440,0.000435,-0.000372
"2019-05-06 15:54:59.724 +0000",1557158099.723968,3.102660,-0.643363,0.266146,0.031142,0.599890,0.799477,0.000000,0.000000,0.000000,-1,-0.000164,0.004329,-0.014244,0.004289,0.001047,-0.000664
"2019-05-06 15:54:59.744 +0000",1557158099.743989,3.102828,-0.643358,0.266439,0.031007,0.599886,0.799484,0.000000,0.000000,0.000000,-1,-0.002303,0.000095,-0.012084,0.001280,0.001188,0.001541
"2019-05-06 15:54:59.764 +0000",1557158099.763968,3.103071,-0.643288,0.266852,0.030814,0.599829,0.799535,0.000000,0.000000,0.000000,-1,-0.006578,0.000049,-0.018479,0.001244,0.004434,-0.000706
"2019-05-06 15:54:59.784 +0000",1557158099.784004,3.103382,-0.643509,0.267315,0.030561,0.600006,0.799411,0.000000,0.000000,0.000000,-1,-0.007629,0.010638,-0.024930,0.001254,0.006271,-0.000202
"2019-05-06 15:54:59.804 +0000",1557158099.803983,3.103829,-0.643619,0.267920,0.030201,0.600095,0.799359,0.000000,0.000000,0.000000,-1,-0.007633,0.012712,-0.031345,0.003383,0.004413,0.000019
"2019-05-06 15:54:59.824 +0000",1557158099.823992,3.104451,-0.643507,0.268622,0.029707,0.600004,0.799445,0.000000,0.000000,0.000000,-1,-0.010830,0.012727,-0.030269,0.003313,0.001711,-0.000266
"2019-05-06 15:54:59.844 +0000",1557158099.844007,3.105149,-0.643262,0.269425,0.029154,0.599809,0.799612,0.000000,0.000000,0.000000,-1,-0.007651,0.004207,-0.030239,-0.004602,-0.004365,-0.000372
"2019-05-06 15:54:59.864 +0000",1557158099.864034,3.105807,-0.643054,0.270266,0.028632,0.599642,0.799756,0.000000,0.000000,0.000000,-1,0.004065,-0.004293,-0.025960,-0.006797,-0.008044,0.000171
"2019-05-06 15:54:59.884 +0000",1557158099.884024,3.106329,-0.642847,0.270958,0.028219,0.599477,0.799895,0.000000,0.000000,0.000000,-1,0.014742,-0.002122,-0.018523,-0.006414,-0.012624,0.008089
"2019-05-06 15:54:59.904 +0000",1557158099.904017,3.107067,-0.642390,0.271587,0.027638,0.599111,0.800189,0.000000,0.000000,0.000000,-1,0.020097,0.003272,-0.008952,-0.005360,-0.010259,0.009412
"2019-05-06 15:54:59.924 +0000",1557158099.924055,3.107291,-0.642478,0.271616,0.027457,0.599182,0.800142,0.000000,0.000000,0.000000,-1,0.017973,0.009883,0.007089,-0.002524,-0.008193,0.006773
"2019-05-06 15:54:59.944 +0000",1557158099.944052,3.107377,-0.642661,0.271292,0.027384,0.599328,0.800035,0.000000,0.000000,0.000000,-1,0.013726,0.012101,0.016699,-0.002299,-0.004144,-0.000673
"2019-05-06 15:54:59.964 +0000",1557158099.964044,3.107490,-0.643233,0.270924,0.027282,0.599785,0.799696,0.000000,0.000000,0.000000,-1,0.015864,0.016327,0.013472,-0.000976,0.009101,-0.002912
"2019-05-06 15:54:59.984 +0000",1557158099.984077,3.107638,-0.643840,0.270648,0.027152,0.600271,0.799336,0.000000,0.000000,0.000000,-1,0.014790,0.017330,0.005996,0.001886,0.009638,-0.003590
"2019-05-06 15:55:00.004 +0000",1557158100.004084,3.107781,-0.644294,0.270540,0.027028,0.600634,0.799067,0.000000,0.000000,0.000000,-1,0.009439,0.013020,-0.001445,0.003291,0.007657,-0.002405
"2019-05-06 15:55:00.024 +0000",1557158100.024059,3.107360,-0.644551,0.270177,0.027359,0.600839,0.798901,0.000000,0.000000,0.000000,-1,0.007298,0.009821,-0.002492,0.009369,0.000525,0.002048
"2019-05-06 15:55:00.044 +0000",1557158100.044098,3.107172,-0.644752,0.269953,0.027505,0.601001,0.798775,0.000000,0.000000,0.000000,-1,0.006244,0.011996,0.002840,0.008918,0.001233,0.000953
"2019-05-06 15:55:00.064 +0000",1557158100.064106,3.107016,-0.644855,0.269592,0.027628,0.601083,0.798709,0.000000,0.000000,0.000000,-1,-0.014002,0.019466,0.000723,0.013311,0.006553,-0.008090
"2019-05-06 15:55:00.084 +0000",1557158100.084112,3.107434,-0.644895,0.269803,0.027293,0.601114,0.798697,0.000000,0.000000,0.000000,-1,-0.000189,0.003395,-0.008849,-0.004436,-0.001642,-0.003287
"2019-05-06 15:55:00.104 +0000",1557158100.104120,3.107867,-0.644985,0.270234,0.026946,0.601186,0.798655,0.000000,0.000000,0.000000,-1,0.009390,-0.005128,-0.007768,-0.009444,-0.001287,0.002356
"2019-05-06 15:55:00.124 +0000",1557158100.124129,3.108125,-0.645055,0.270564,0.026738,0.601243,0.798619,0.000000,0.000000,0.000000,-1,0.007247,-0.013582,-0.001319,-0.011647,-0.003434,0.001781
"2019-05-06 15:55:00.144 +0000",1557158100.144133,3.108372,-0.644827,0.270806,0.026545,0.601060,0.798763,0.000000,0.000000,0.000000,-1,-0.002331,-0.008195,0.004018,-0.007273,-0.001558,0.007618
"2019-05-06 15:55:00.164 +0000",1557158100.164138,3.108412,-0.644715,0.270783,0.026515,0.600971,0.798831,0.000000,0.000000,0.000000,-1,-0.001252,-0.002867,0.005059,-0.002162,-0.000629,-0.000796
"2019-05-06 15:55:00.184 +0000",1557158100.184134,3.108244,-0.644833,0.270751,0.026647,0.601065,0.798756,0.000000,0.000000,0.000000,-1,0.011521,-0.008277,-0.002423,-0.002294,-0.000723,-0.000721
"2019-05-06 15:55:00.204 +0000",1557158100.204147,3.108549,-0.644979,0.271000,0.026401,0.601181,0.798676,0.000000,0.000000,0.000000,-1,0.014746,0.004479,-0.003556,-0.002231,0.002761,0.006927
"2019-05-06 15:55:00.224 +0000",1557158100.224135,3.108653,-0.645455,0.270966,0.026308,0.601562,0.798393,0.000000,0.000000,0.000000,-1,0.006240,0.017239,-0.006795,0.004743,0.008103,0.001839
"2019-05-06 15:55:00.244 +0000",1557158100.244164,3.109136,-0.645491,0.271241,0.025922,0.601591,0.798384,0.000000,0.000000,0.000000,-1,-0.000175,0.012950,-0.012098,0.005130,0.008074,0.001848
"2019-05-06 15:55:00.264 +0000",1557158100.264176,3.109419,-0.645478,0.271519,0.025697,0.601581,0.798399,0.000000,0.000000,0.000000,-1,-0.001263,0.003374,-0.012052,-0.001695,-0.002505,-0.003294
"2019-05-06 15:55:00.284 +0000",1557158100.284162,3.109934,-0.645378,0.271984,0.025287,0.601500,0.798472,0.000000,0.000000,0.000000,-1,-0.001270,-0.001910,-0.007759,-0.005496,-0.004363,-0.005305
"2019-05-06 15:55:00.304 +0000",1557158100.304175,3.109949,-0.645388,0.272124,0.025275,0.601508,0.798466,0.000000,0.000000,0.000000,-1,0.001929,-0.004017,-0.004554,-0.006079,-0.003517,-0.005254
"2019-05-06 15:55:00.324 +0000",1557158100.324172,3.109903,-0.645099,0.272243,0.025317,0.601278,0.798639,0.000000,0.000000,0.000000,-1,-0.000205,-0.001912,-0.007761,0.004117,-0.003179,0.000235
"2019-05-06 15:55:00.344 +0000",1557158100.344207,3.109374,-0.644853,0.272085,0.025745,0.601081,0.798773,0.000000,0.000000,0.000000,-1,0.000858,-0.002980,-0.007758,0.007611,-0.004035,0.005060
"2019-05-06 15:55:00.364 +0000",1557158100.364209,3.109157,-0.644723,0.272083,0.025920,0.600977,0.798846,0.000000,0.000000,0.000000,-1,-0.003398,0.001285,-0.007766,0.009587,-0.002680,0.002332
"2019-05-06 15:55:00.384 +0000",1557158100.384217,3.108847,-0.644526,0.272031,0.026172,0.600820,0.798956,0.000000,0.000000,0.000000,-1,0.002996,0.003353,-0.013128,0.006283,-0.003545,0.000376
"2019-05-06 15:55:00.404 +0000",1557158100.404196,3.109052,-0.644432,0.272310,0.026010,0.600745,0.799018,0.000000,0.000000,0.000000,-1,0.007267,0.008638,-0.016366,0.003516,-0.000815,0.002115
"2019-05-06 15:55:00.424 +0000",1557158100.424225,3.109463,-0.644493,0.272684,0.025680,0.600793,0.798992,0.000000,0.000000,0.000000,-1,0.001937,0.006557,-0.012072,-0.001007,-0.002664,-0.001461
"2019-05-06 15:55:00.444 +0000",1557158100.444216,3.109908,-0.644512,0.273020,0.025324,0.600808,0.798992,0.000000,0.000000,0.000000,-1,0.000869,0.001302,-0.004572,-0.003336,-0.000970,-0.001690
"2019-05-06 15:55:00.464 +0000",1557158100.464248,3.110319,-0.644526,0.273327,0.024995,0.600820,0.798994,0.000000,0.000000,0.000000,-1,0.001933,-0.001864,-0.001359,-0.006547,0.000071,0.000582
"2019-05-06 15:55:00.484 +0000",1557158100.484242,3.110443,-0.644628,0.273430,0.024895,0.600901,0.798936,0.000000,0.000000,0.000000,-1,0.005136,0.000258,-0.001377,-0.004006,0.002401,0.003249
"2019-05-06 15:55:00.504 +0000",1557158100.504240,3.110456,-0.644754,0.273405,0.024882,0.601002,0.798860,0.000000,0.000000,0.000000,-1,0.003015,0.004528,-0.000323,0.001363,0.003887,0.001982
"2019-05-06 15:55:00.524 +0000",1557158100.524270,3.110580,-0.644817,0.273408,0.024782,0.601053,0.798825,0.000000,0.000000,0.000000,-1,0.001953,0.006659,-0.000330,-0.000535,0.000479,-0.000318
"2019-05-06 15:55:00.544 +0000",1557158100.544255,3.110719,-0.644890,0.273453,0.024670,0.601111,0.798785,0.000000,0.000000,0.000000,-1,0.003010,0.002400,-0.000313,-0.002254,0.000421,-0.001681
"2019-05-06 15:55:00.564 +0000",1557158100.564276,3.111396,-0.645056,0.273872,0.024126,0.601243,0.798702,0.000000,0.000000,0.000000,-1,0.011523,-0.004018,-0.002443,-0.005250,0.002425,-0.006374
"2019-05-06 15:55:00.584 +0000",1557158100.584260,3.111384,-0.645448,0.273969,0.024128,0.601556,0.798466,0.000000,0.000000,0.000000,-1,0.021122,-0.000871,-0.005684,0.002118,0.002448,0.005626
"2019-05-06 15:55:00.604 +0000",1557158100.604273,3.110912,-0.645472,0.273703,0.024504,0.601576,0.798440,0.000000,0.000000,0.000000,-1,0.003010,0.002410,0.000754,0.011522,-0.000227,0.006370
"2019-05-06 15:55:00.624 +0000",1557158100.624290,3.110296,-0.645190,0.273208,0.025002,0.601350,0.798595,0.000000,0.000000,0.000000,-1,-0.009776,0.001442,0.009333,0.006096,-0.002610,-0.000133
"2019-05-06 15:55:00.644 +0000",1557158100.644312,3.110127,-0.645131,0.272971,0.025138,0.601303,0.798625,0.000000,0.000000,0.000000,-1,-0.003387,0.000329,0.005052,-0.001013,0.000320,-0.006053
"2019-05-06 15:55:00.664 +0000",1557158100.664300,3.110211,-0.645303,0.273023,0.025067,0.601440,0.798524,0.000000,0.000000,0.000000,-1,0.009395,0.000222,-0.004589,-0.002194,-0.001541,-0.005601
"2019-05-06 15:55:00.684 +0000",1557158100.684300,3.110326,-0.645601,0.273249,0.024970,0.601678,0.798348,0.000000,0.000000,0.000000,-1,0.011516,-0.000901,-0.010996,-0.000510,0.001761,0.005607
"2019-05-06 15:55:00.704 +0000",1557158100.704335,3.110384,-0.645692,0.273380,0.024922,0.601751,0.798295,0.000000,0.000000,0.000000,-1,0.007272,0.006584,-0.007816,0.004207,0.001154,0.005310
"2019-05-06 15:55:00.724 +0000",1557158100.724342,3.110562,-0.645650,0.273478,0.024780,0.601718,0.798324,0.000000,0.000000,0.000000,-1,0.003017,0.009812,-0.004616,0.003280,-0.002872,0.006730
"2019-05-06 15:55:00.744 +0000",1557158100.744348,3.110580,-0.645218,0.273398,0.024774,0.601373,0.798584,0.000000,0.000000,0.000000,-1,-0.000180,0.010891,-0.003544,0.000846,-0.008111,0.001129
"2019-05-06 15:55:00.764 +0000",1557158100.764356,3.110903,-0.645149,0.273538,0.024518,0.601318,0.798634,0.000000,0.000000,0.000000,-1,0.007282,0.012968,-0.007843,-0.000119,-0.004333,-0.001133
"2019-05-06 15:55:00.784 +0000",1557158100.784364,3.111303,-0.645361,0.273705,0.024194,0.601487,0.798516,0.000000,0.000000,0.000000,-1,0.014759,0.018283,-0.006818,0.001471,0.002913,0.003486
"2019-05-06 15:55:00.804 +0000",1557158100.804363,3.111697,-0.645752,0.273802,0.023873,0.601799,0.798290,0.000000,0.000000,0.000000,-1,0.010497,0.018310,-0.004672,0.001335,0.006584,0.001224
"2019-05-06 15:55:00.824 +0000",1557158100.824378,3.112042,-0.646010,0.273863,0.023593,0.602005,0.798143,0.000000,0.000000,0.000000,-1,0.006226,0.014079,-0.002507,0.000821,0.007629,0.001005
"2019-05-06 15:55:00.844 +0000",1557158100.844384,3.112268,-0.646184,0.273912,0.023409,0.602144,0.798044,0.000000,0.000000,0.000000,-1,0.006216,0.008767,-0.001415,0.001020,0.001402,-0.002146
"2019-05-06 15:55:00.864 +0000",1557158100.864391,3.112434,-0.646250,0.273963,0.023275,0.602197,0.798009,0.000000,0.000000,0.000000,-1,0.006212,0.007694,-0.002478,0.001932,-0.000664,0.001308
"2019-05-06 15:55:00.884 +0000",1557158100.884397,3.112682,-0.646475,0.274056,0.023074,0.602377,0.797878,0.000000,0.000000,0.000000,-1,0.010475,0.007677,-0.003556,-0.003451,0.003535,-0.003338
"2019-05-06 15:55:00.904 +0000",1557158100.904406,3.112935,-0.646804,0.274212,0.022866,0.602639,0.797686,0.000000,0.000000,0.000000,-1,0.012595,0.000242,-0.001393,-0.005746,0.001136,-0.003558
"2019-05-06 15:55:00.924 +0000",1557158100.924412,3.113216,-0.647055,0.274340,0.022638,0.602839,0.797541,0.000000,0.000000,0.000000,-1,0.004049,-0.002775,0.008295,-0.007700,0.002019,0.000829
"2019-05-06 15:55:00.944 +0000",1557158100.944412,3.113088,-0.647045,0.274020,0.022740,0.602831,0.797545,0.000000,0.000000,0.000000,-1,-0.007648,0.006907,0.016827,0.002254,0.002027,0.001085
"2019-05-06 15:55:00.964 +0000",1557158100.964430,3.113142,-0.646886,0.273645,0.022700,0.602704,0.797642,0.000000,0.000000,0.000000,-1,-0.008692,0.020698,0.011429,0.001317,0.002017,0.000820
"2019-05-06 15:55:00.984 +0000",1557158100.984433,3.113513,-0.646852,0.273422,0.022404,0.602678,0.797670,0.000000,0.000000,0.000000,-1,-0.001222,0.024913,0.008189,-0.004231,0.003997,0.003782
"2019-05-06 15:55:01.004 +0000",1557158101.004434,3.114348,-0.647084,0.273409,0.021734,0.602862,0.797549,0.000000,0.000000,0.000000,-1,0.005188,0.028121,0.011360,-0.000708,0.010556,0.005521
"2019-05-06 15:55:01.024 +0000",1557158101.024449,3.114715,-0.647172,0.273150,0.021441,0.602933,0.797504,0.000000,0.000000,0.000000,-1,-0.001220,0.027024,0.006043,0.003324,0.007602,0.006268
"2019-05-06 15:55:01.044 +0000",1557158101.044425,3.114781,-0.646929,0.272868,0.021391,0.602739,0.797652,0.000000,0.000000,0.000000,-1,-0.015116,0.010051,0.009357,0.006380,-0.002275,-0.000182
"2019-05-06 15:55:01.064 +0000",1557158101.064465,3.114594,-0.646613,0.272531,0.021546,0.602486,0.797838,0.000000,0.000000,0.000000,-1,-0.015127,0.003684,0.011522,0.000533,-0.003899,-0.002932
"2019-05-06 15:55:01.084 +0000",1557158101.084471,3.114594,-0.646355,0.272265,0.021550,0.602281,0.797993,0.000000,0.000000,0.000000,-1,-0.004446,0.012176,0.011457,0.000270,-0.002122,0.001949
"2019-05-06 15:55:01.104 +0000",1557158101.104477,3.114750,-0.646250,0.271958,0.021427,0.602197,0.798060,0.000000,0.000000,0.000000,-1,-0.000180,0.019648,0.011446,0.000973,-0.002435,0.001775
"2019-05-06 15:55:01.124 +0000",1557158101.124485,3.114250,-0.646042,0.271261,0.021829,0.602030,0.798175,0.000000,0.000000,0.000000,-1,-0.005530,0.009051,0.015780,0.005255,-0.001536,-0.000628
"2019-05-06 15:55:01.144 +0000",1557158101.144474,3.113865,-0.645815,0.270793,0.022140,0.601849,0.798303,0.000000,0.000000,0.000000,-1,-0.011953,-0.002633,0.016916,0.004196,-0.001172,-0.000360
"2019-05-06 15:55:01.164 +0000",1557158101.164482,3.113601,-0.645480,0.270319,0.022357,0.601582,0.798498,0.000000,0.000000,0.000000,-1,-0.007668,0.005881,0.017935,0.001904,-0.001088,0.002039
"2019-05-06 15:55:01.185 +0000",1557158101.184507,3.113465,-0.645296,0.269856,0.022469,0.601435,0.798606,0.000000,0.000000,0.000000,-1,-0.006593,0.012236,0.014701,0.001534,0.000876,0.002633
"2019-05-06 15:55:01.205 +0000",1557158101.204515,3.113473,-0.645106,0.269510,0.022466,0.601283,0.798720,0.000000,0.000000,0.000000,-1,-0.008727,0.014332,0.010426,0.003429,-0.000148,0.002382
"2019-05-06 15:55:01.225 +0000",1557158101.224507,3.113705,-0.644700,0.269345,0.022287,0.600958,0.798970,0.000000,0.000000,0.000000,-1,-0.011936,0.011138,0.009381,-0.003443,-0.003561,0.001888
"2019-05-06 15:55:01.245 +0000",1557158101.244518,3.113931,-0.644450,0.269211,0.022110,0.600759,0.799125,0.000000,0.000000,0.000000,-1,-0.011939,0.009019,0.010457,-0.007020,-0.000035,-0.001243
"2019-05-06 15:55:01.265 +0000",1557158101.264514,3.114181,-0.644284,0.269040,0.021914,0.600626,0.799230,0.000000,0.000000,0.000000,-1,-0.008751,0.013303,0.011539,-0.005831,0.002798,0.003352
"2019-05-06 15:55:01.285 +0000",1557158101.284532,3.114551,-0.644198,0.268930,0.021620,0.600557,0.799290,0.000000,0.000000,0.000000,-1,-0.006621,0.012236,0.011538,-0.003782,0.004149,0.002865
"2019-05-06 15:55:01.305 +0000",1557158101.304519,3.114798,-0.644071,0.268790,0.021424,0.600456,0.799371,0.000000,0.000000,0.000000,-1,-0.005568,0.007959,0.009418,-0.002869,-0.001472,-0.000237
"2019-05-06 15:55:01.325 +0000",1557158101.324536,3.114826,-0.643977,0.268614,0.021403,0.600381,0.799428,0.000000,0.000000,0.000000,-1,-0.001314,0.004731,0.006219,-0.001521,-0.000863,0.001674
"2019-05-06 15:55:01.345 +0000",1557158101.344563,3.114772,-0.643887,0.268421,0.021448,0.600308,0.799481,0.000000,0.000000,0.000000,-1,-0.001313,0.005795,0.006214,0.001608,-0.000867,0.004306
"2019-05-06 15:55:01.365 +0000",1557158101.364571,3.114599,-0.643742,0.268109,0.021589,0.600193,0.799564,0.000000,0.000000,0.000000,-1,-0.004498,0.012186,0.006194,0.005069,0.000378,0.002560
"2019-05-06 15:55:01.385 +0000",1557158101.384550,3.114641,-0.643650,0.267878,0.021557,0.600119,0.799620,0.000000,0.000000,0.000000,-1,-0.007693,0.014311,0.005125,0.006107,0.001978,-0.000243
"2019-05-06 15:55:01.405 +0000",1557158101.404553,3.114693,-0.643539,0.267642,0.021517,0.600030,0.799688,0.000000,0.000000,0.000000,-1,-0.008757,0.015377,0.005124,0.000929,0.001654,0.001017
"2019-05-06 15:55:01.425 +0000",1557158101.424578,3.115047,-0.643378,0.267537,0.021236,0.599901,0.799792,0.000000,0.000000,0.000000,-1,-0.011981,0.014361,0.008384,-0.003032,0.002150,0.001523
"2019-05-06 15:55:01.445 +0000",1557158101.444601,3.115331,-0.643196,0.267390,0.021012,0.599756,0.799907,0.000000,0.000000,0.000000,-1,-0.010917,0.011194,0.011598,-0.003525,0.000571,0.000416
"2019-05-06 15:55:01.465 +0000",1557158101.464607,3.115283,-0.642946,0.267085,0.021054,0.599556,0.800056,0.000000,0.000000,0.000000,-1,-0.009861,0.005880,0.012687,0.000705,-0.002373,-0.000159
"2019-05-06 15:55:01.485 +0000",1557158101.484594,3.115137,-0.642610,0.266746,0.021177,0.599287,0.800254,0.000000,0.000000,0.000000,-1,-0.007736,0.003738,0.011623,0.002795,-0.003141,0.000451
"2019-05-06 15:55:01.505 +0000",1557158101.504622,3.114984,-0.642431,0.266427,0.021301,0.599144,0.800358,0.000000,0.000000,0.000000,-1,-0.003471,0.003730,0.011613,0.001205,-0.002022,0.003826
"2019-05-06 15:55:01.525 +0000",1557158101.524626,3.114835,-0.642353,0.266113,0.021422,0.599081,0.800402,0.000000,0.000000,0.000000,-1,-0.000272,0.004778,0.010533,0.001268,0.000162,0.005018
"2019-05-06 15:55:01.545 +0000",1557158101.544630,3.114833,-0.642232,0.265818,0.021425,0.598984,0.800474,0.000000,0.000000,0.000000,-1,-0.000258,0.009062,0.013716,-0.002001,0.001449,0.003450
"2019-05-06 15:55:01.565 +0000",1557158101.564644,3.114895,-0.642197,0.265512,0.021376,0.598956,0.800496,0.000000,0.000000,0.000000,-1,-0.001327,0.005899,0.016936,-0.003081,-0.001331,0.000728
"2019-05-06 15:55:01.585 +0000",1557158101.584650,3.114951,-0.642114,0.265221,0.021333,0.598890,0.800547,0.000000,0.000000,0.000000,-1,-0.003494,0.002731,0.019132,-0.004518,-0.000135,0.000081
"2019-05-06 15:55:01.605 +0000",1557158101.604652,3.114911,-0.642053,0.264817,0.021366,0.598841,0.800583,0.000000,0.000000,0.000000,-1,-0.005612,0.009121,0.019108,0.002010,0.003698,0.003784
"2019-05-06 15:55:01.625 +0000",1557158101.624665,3.114752,-0.641906,0.264314,0.021495,0.598723,0.800668,0.000000,0.000000,0.000000,-1,-0.005611,0.011231,0.016964,0.003758,0.001070,0.003135
"2019-05-06 15:55:01.645 +0000",1557158101.644670,3.114655,-0.641741,0.263805,0.021576,0.598591,0.800764,0.000000,0.000000,0.000000,-1,-0.007730,0.016565,0.018013,0.004318,0.000805,0.006929
"2019-05-06 15:55:01.665 +0000",1557158101.664680,3.114627,-0.641370,0.263190,0.021605,0.598294,0.800986,0.000000,0.000000,0.000000,-1,-0.008781,0.018759,0.025480,0.003221,-0.000958,-0.001685
"2019-05-06 15:55:01.685 +0000",1557158101.684687,3.114371,-0.641204,0.262410,0.021812,0.598161,0.801079,0.000000,0.000000,0.000000,-1,-0.010922,0.012414,0.029785,0.003883,0.001754,-0.001656
"2019-05-06 15:55:01.705 +0000",1557158101.704692,3.114169,-0.641090,0.261659,0.021976,0.598069,0.801143,0.000000,0.000000,0.000000,-1,-0.006647,0.019809,0.024403,0.005352,0.003142,-0.003291
"2019-05-06 15:55:01.725 +0000",1557158101.724699,3.113999,-0.641319,0.261039,0.022108,0.598253,0.801003,0.000000,0.000000,0.000000,-1,-0.003469,0.015473,0.015873,0.002703,0.004988,0.004356
"2019-05-06 15:55:01.745 +0000",1557158101.744691,3.113840,-0.641309,0.260558,0.022236,0.598245,0.801005,0.000000,0.000000,0.000000,-1,-0.001392,0.003774,0.019163,0.002667,0.004523,0.003942
"2019-05-06 15:55:01.765 +0000",1557158101.764685,3.113249,-0.641292,0.259792,0.022709,0.598231,0.801002,0.000000,0.000000,0.000000,-1,-0.001394,-0.000438,0.024521,0.006511,0.000829,0.000603
"2019-05-06 15:55:01.785 +0000",1557158101.784721,3.112670,-0.641222,0.259223,0.023174,0.598175,0.801030,0.000000,0.000000,0.000000,-1,0.002833,-0.010115,0.013878,0.001118,-0.003723,0.000987
"2019-05-06 15:55:01.805 +0000",1557158101.804719,3.112406,-0.641145,0.259035,0.023388,0.598114,0.801070,0.000000,0.000000,0.000000,-1,0.008163,-0.004878,0.005299,-0.000179,-0.008102,0.005204
"2019-05-06 15:55:01.825 +0000",1557158101.824712,3.112531,-0.640835,0.259057,0.023292,0.597865,0.801259,0.000000,0.000000,0.000000,-1,0.010302,0.002523,-0.000078,0.000191,-0.004420,0.004680
"2019-05-06 15:55:01.845 +0000",1557158101.844743,3.112594,-0.640831,0.259027,0.023242,0.597862,0.801262,0.000000,0.000000,0.000000,-1,0.008180,0.007848,-0.000097,0.002347,-0.002708,0.001427
"2019-05-06 15:55:01.865 +0000",1557158101.864746,3.112703,-0.640950,0.258965,0.023152,0.597957,0.801193,0.000000,0.000000,0.000000,-1,0.008190,0.014206,-0.003328,0.003276,-0.001522,0.000366
"2019-05-06 15:55:01.885 +0000",1557158101.884739,3.112841,-0.641103,0.259009,0.023039,0.598080,0.801105,0.000000,0.000000,0.000000,-1,0.007106,0.008859,-0.006504,0.001787,0.000690,0.001065
"2019-05-06 15:55:01.905 +0000",1557158101.904765,3.113160,-0.641077,0.259187,0.022784,0.598059,0.801128,0.000000,0.000000,0.000000,-1,0.009212,0.007788,-0.003275,-0.004855,0.000086,0.007236
"2019-05-06 15:55:01.925 +0000",1557158101.924773,3.113465,-0.641269,0.259276,0.022537,0.598213,0.801020,0.000000,0.000000,0.000000,-1,0.007084,0.007820,-0.000067,-0.004867,0.003533,-0.000346
"2019-05-06 15:55:01.945 +0000",1557158101.944764,3.114008,-0.641666,0.259519,0.022095,0.598531,0.800795,0.000000,0.000000,0.000000,-1,0.013479,0.004634,0.002065,-0.007706,0.006144,0.002367
"2019-05-06 15:55:01.965 +0000",1557158101.964786,3.114241,-0.641969,0.259521,0.021904,0.598774,0.800618,0.000000,0.000000,0.000000,-1,0.001746,0.000438,0.006384,-0.004417,0.001095,-0.006246
"2019-05-06 15:55:01.985 +0000",1557158101.984795,3.114244,-0.642145,0.259509,0.021899,0.598915,0.800514,0.000000,0.000000,0.000000,-1,0.003851,-0.014437,0.009648,-0.007677,0.004204,0.003564
"2019-05-06 15:55:02.005 +0000",1557158102.004771,3.114139,-0.642300,0.259357,0.021980,0.599038,0.800418,0.000000,0.000000,0.000000,-1,0.003888,0.000480,0.011716,-0.001319,0.005255,0.005978
"2019-05-06 15:55:02.025 +0000",1557158102.024806,3.114025,-0.642335,0.259051,0.022070,0.599067,0.800395,0.000000,0.000000,0.000000,-1,-0.003569,0.003688,0.011720,0.001062,0.002785,0.002660
"2019-05-06 15:55:02.045 +0000",1557158102.044785,3.113829,-0.642150,0.258753,0.022230,0.598918,0.800501,0.000000,0.000000,0.000000,-1,-0.002520,-0.004810,0.013891,-0.001143,-0.001308,0.002889
"2019-05-06 15:55:02.065 +0000",1557158102.064822,3.113577,-0.642084,0.258510,0.022433,0.598866,0.800535,0.000000,0.000000,0.000000,-1,0.001717,-0.005959,0.009627,-0.002170,-0.000737,0.003344
"2019-05-06 15:55:02.085 +0000",1557158102.084803,3.113333,-0.641974,0.258260,0.022631,0.598778,0.800596,0.000000,0.000000,0.000000,-1,-0.000406,-0.000643,0.008541,0.003752,-0.000862,0.000292
"2019-05-06 15:55:02.105 +0000",1557158102.104822,3.113211,-0.641940,0.258088,0.022729,0.598751,0.800613,0.000000,0.000000,0.000000,-1,-0.002544,-0.001721,0.006415,0.003654,-0.000835,0.000275
"2019-05-06 15:55:02.125 +0000",1557158102.124829,3.112930,-0.641978,0.257902,0.022953,0.598781,0.800584,0.000000,0.000000,0.000000,-1,0.002774,-0.006007,0.004286,0.002529,0.002476,0.002502
"2019-05-06 15:55:02.145 +0000",1557158102.144842,3.112749,-0.641970,0.257828,0.023098,0.598774,0.800585,0.000000,0.000000,0.000000,-1,0.002767,-0.009199,0.004300,-0.001369,0.000042,0.004652
"2019-05-06 15:55:02.165 +0000",1557158102.164848,3.112521,-0.641908,0.257736,0.023282,0.598724,0.800617,0.000000,0.000000,0.000000,-1,0.001705,-0.007068,0.004294,-0.000546,-0.000031,0.007321
"2019-05-06 15:55:02.185 +0000",1557158102.184838,3.112336,-0.641778,0.257630,0.023432,0.598621,0.800690,0.000000,0.000000,0.000000,-1,-0.002557,-0.003885,0.002155,0.002920,0.001797,0.005127
"2019-05-06 15:55:02.205 +0000",1557158102.204843,3.112126,-0.641779,0.257544,0.023601,0.598622,0.800684,0.000000,0.000000,0.000000,-1,0.000635,-0.003928,-0.002124,0.002355,0.001873,0.000402
"2019-05-06 15:55:02.225 +0000",1557158102.224868,3.112078,-0.641844,0.257637,0.023637,0.598674,0.800644,0.000000,0.000000,0.000000,-1,0.003820,-0.001899,-0.006413,0.003111,-0.000102,0.001007
"2019-05-06 15:55:02.245 +0000",1557158102.244859,3.112052,-0.641806,0.257797,0.023659,0.598643,0.800666,0.000000,0.000000,0.000000,-1,0.005941,-0.006170,-0.007467,-0.000222,-0.004039,0.002160
"2019-05-06 15:55:02.265 +0000",1557158102.264883,3.112101,-0.641603,0.257963,0.023623,0.598480,0.800789,0.000000,0.000000,0.000000,-1,0.001684,-0.005051,-0.002123,-0.002032,-0.006592,0.003914
"2019-05-06 15:55:02.285 +0000",1557158102.284900,3.112065,-0.641439,0.257916,0.023655,0.598349,0.800886,0.000000,0.000000,0.000000,-1,-0.002555,0.002461,0.004260,-0.000263,-0.004629,0.003343
"2019-05-06 15:55:02.305 +0000",1557158102.304880,3.111763,-0.641178,0.257555,0.023902,0.598140,0.801035,0.000000,0.000000,0.000000,-1,-0.008937,0.007821,0.007456,0.006906,-0.000148,0.003958
"2019-05-06 15:55:02.325 +0000",1557158102.324917,3.111697,-0.640888,0.257367,0.023960,0.597907,0.801207,0.000000,0.000000,0.000000,-1,-0.007880,0.007773,0.002115,0.002484,0.002694,0.006166
