timestamp,timeIntervalSince1970,attitude.roll,attitude.pitch,attitude.yaw,gravity.x,gravity.y,gravity.z,magneticField.x,magneticField.y,magneticField.z,magneticField.accuracy,rotationRate.x,rotationRate.y,rotationRate.z,userAcceleration.x,userAcceleration.y,userAcceleration.z
"2019-05-05 23:00:12.214 +0000",1557097212.214054,0.122533,0.445242,-0.028690,0.110311,-0.430676,-0.895740,0.000000,0.000000,0.000000,-1,0.225477,-0.596300,-0.016134,-0.140203,-0.014270,0.054370
"2019-05-05 23:00:12.236 +0000",1557097212.236362,0.109071,0.448955,-0.031996,0.098067,-0.434025,-0.895548,0.000000,0.000000,0.000000,-1,0.142081,-0.633898,-0.183513,-0.184463,-0.031445,0.032724
"2019-05-05 23:00:12.259 +0000",1557097212.258641,0.101687,0.451005,-0.036960,0.091361,-0.435870,-0.895361,0.000000,0.000000,0.000000,-1,0.104818,-0.309015,-0.147956,-0.154243,-0.051801,-0.042033
"2019-05-05 23:00:12.281 +0000",1557097212.280949,0.096594,0.454352,-0.039085,0.086660,-0.438880,-0.894357,0.000000,0.000000,0.000000,-1,0.195510,-0.279114,-0.060104,-0.198369,-0.041680,-0.065467
"2019-05-05 23:00:12.303 +0000",1557097212.303254,0.057148,0.467893,-0.028891,0.050978,-0.451006,-0.891064,0.000000,0.000000,0.000000,-1,0.027791,-0.382337,-0.278730,-0.232848,-0.056242,0.051922
"2019-05-05 23:00:12.326 +0000",1557097212.325553,0.050262,0.463931,-0.036090,0.044931,-0.447467,-0.893171,0.000000,0.000000,0.000000,-1,-0.211814,-0.521380,-0.261471,-0.190164,-0.099240,0.117872
"2019-05-05 23:00:12.348 +0000",1557097212.347862,0.027648,0.465198,-0.035393,0.024706,-0.448599,-0.893391,0.000000,0.000000,0.000000,-1,0.321631,-1.350694,0.270873,-0.098467,-0.036065,-0.049403
"2019-05-05 23:00:12.370 +0000",1557097212.370150,-0.024084,0.484224,-0.012994,-0.021313,-0.465521,-0.884780,0.000000,0.000000,0.000000,-1,1.114321,-1.992262,1.287948,-0.255695,0.252341,-0.051209
"2019-05-05 23:00:12.392 +0000",1557097212.392456,-0.075427,0.514958,0.030394,-0.065583,-0.492498,-0.867839,0.000000,0.000000,0.000000,-1,1.704392,-0.861775,1.534958,-0.468535,0.444402,0.270274
"2019-05-05 23:00:12.415 +0000",1557097212.414764,-0.113260,0.549415,0.048493,-0.096385,-0.522188,-0.847366,0.000000,0.000000,0.000000,-1,1.223257,-2.088121,0.025975,-0.528600,0.074816,0.450454
"2019-05-05 23:00:12.437 +0000",1557097212.437073,-0.179503,0.550468,0.051169,-0.152166,-0.523087,-0.838586,0.000000,0.000000,0.000000,-1,-0.633592,-3.043323,0.392175,-0.209101,0.174423,0.957131
"2019-05-05 23:00:12.459 +0000",1557097212.459379,-0.260921,0.522873,0.075403,-0.223502,-0.499372,-0.837063,0.000000,0.000000,0.000000,-1,-0.850354,-3.216693,1.711076,0.114265,0.356977,0.514828
"2019-05-05 23:00:12.482 +0000",1557097212.481658,-0.364131,0.507353,0.136426,-0.311276,-0.485865,-0.816727,0.000000,0.000000,0.000000,-1,0.721892,-3.423393,2.804019,0.133084,0.638606,0.177338
"2019-05-05 23:00:12.504 +0000",1557097212.503966,-0.499340,0.511327,0.221860,-0.417600,-0.489335,-0.765612,0.000000,0.000000,0.000000,-1,1.835647,-4.732287,2.998475,-0.102206,0.690705,0.231630
"2019-05-05 23:00:12.526 +0000",1557097212.526275,-0.666072,0.508943,0.312789,-0.539589,-0.487255,-0.686605,0.000000,0.000000,0.000000,-1,1.858026,-5.841347,3.136105,-0.006202,0.685039,0.493108
"2019-05-05 23:00:12.549 +0000",1557097212.548581,-0.861333,0.485164,0.413995,-0.671155,-0.466354,-0.576251,0.000000,0.000000,0.000000,-1,2.179202,-7.183692,3.992966,0.396817,0.926650,0.305621
"2019-05-05 23:00:12.571 +0000",1557097212.570866,-1.084057,0.424202,0.531961,-0.805523,-0.411594,-0.426289,0.000000,0.000000,0.000000,-1,2.354652,-7.480249,5.542628,0.584774,1.042148,0.333760
"2019-05-05 23:00:12.593 +0000",1557097212.593166,-1.251314,0.308106,0.626885,-0.904691,-0.303254,-0.299285,0.000000,0.000000,0.000000,-1,1.207121,-4.736832,6.667766,0.484525,1.038758,0.296599
"2019-05-05 23:00:12.615 +0000",1557097212.615475,-1.330999,0.172770,0.684942,-0.956924,-0.171912,-0.233970,0.000000,0.000000,0.000000,-1,0.689577,-2.103293,6.347677,-0.040893,0.967001,0.039374
"2019-05-05 23:00:12.638 +0000",1557097212.637779,-1.375959,0.046082,0.738014,-0.980038,-0.046065,-0.193402,0.000000,0.000000,0.000000,-1,1.423156,-1.929805,5.958162,-0.328571,0.737762,-0.487461
"2019-05-05 23:00:12.660 +0000",1557097212.660092,-1.434444,-0.079287,0.796124,-0.987606,0.079204,-0.135503,0.000000,0.000000,0.000000,-1,1.545754,-2.721769,6.011145,-0.351383,0.521916,-0.396769
"2019-05-05 23:00:12.682 +0000",1557097212.682400,-1.461069,-0.211436,0.830912,-0.971850,0.209865,-0.107069,0.000000,0.000000,0.000000,-1,0.375805,-0.349309,6.006951,-0.551480,0.481465,-0.171602
"2019-05-05 23:00:12.705 +0000",1557097212.704705,-1.431712,-0.334899,0.842409,-0.935323,0.328674,-0.130934,0.000000,0.000000,0.000000,-1,-0.388530,1.828416,5.225601,-0.849116,0.269410,-0.144884
"2019-05-05 23:00:12.727 +0000",1557097212.726982,-1.385862,-0.434505,0.853531,-0.891611,0.420962,-0.166796,0.000000,0.000000,0.000000,-1,-0.102672,1.504027,4.016595,-1.177526,-0.037920,-0.236586
"2019-05-05 23:00:12.749 +0000",1557097212.749293,-1.370702,-0.506861,0.879946,-0.856829,0.485435,-0.173772,0.000000,0.000000,0.000000,-1,0.701016,-0.577098,3.050423,-1.225279,-0.211632,-0.383906
"2019-05-05 23:00:12.772 +0000",1557097212.771600,-1.368864,-0.559097,0.913920,-0.830509,0.530421,-0.170024,0.000000,0.000000,0.000000,-1,0.788049,-0.426498,2.220443,-1.313153,-0.295772,-0.318639
"2019-05-05 23:00:12.794 +0000",1557097212.793903,-1.346058,-0.590231,0.936755,-0.809919,0.556553,-0.185147,0.000000,0.000000,0.000000,-1,0.366871,0.981330,1.129735,-1.220278,-0.528584,0.020734
"2019-05-05 23:00:12.816 +0000",1557097212.816215,-1.311770,-0.601021,0.941329,-0.797245,0.565485,-0.211253,0.000000,0.000000,0.000000,-1,-0.127192,1.530910,0.150821,-1.131817,-0.586313,0.119242
"2019-05-05 23:00:12.838 +0000",1557097212.838494,-1.291803,-0.589773,0.930773,-0.798932,0.556172,-0.228866,0.000000,0.000000,0.000000,-1,-0.275712,0.811360,-1.083397,-1.042895,-0.659840,0.271682
"2019-05-05 23:00:12.861 +0000",1557097212.860788,-1.306310,-0.554309,0.899770,-0.820698,0.526356,-0.222271,0.000000,0.000000,0.000000,-1,-1.103999,-0.290724,-2.231393,-0.892162,-0.646260,0.658687
"2019-05-05 23:00:12.883 +0000",1557097212.883109,-1.344083,-0.508087,0.842408,-0.851320,0.486507,-0.196382,0.000000,0.000000,0.000000,-1,-1.793030,-0.376174,-2.621700,-0.526534,-0.519497,0.680528
"2019-05-05 23:00:12.905 +0000",1557097212.905417,-1.376529,-0.462670,0.794347,-0.878031,0.446339,-0.172751,0.000000,0.000000,0.000000,-1,-1.066355,-0.573447,-2.180486,-0.192373,-0.366521,0.323142
"2019-05-05 23:00:12.928 +0000",1557097212.927726,-1.412175,-0.430538,0.774685,-0.897333,0.417360,-0.143542,0.000000,0.000000,0.000000,-1,-0.530648,-1.524773,-1.072693,0.084024,-0.284929,0.070758
"2019-05-05 23:00:12.950 +0000",1557097212.950003,-1.451959,-0.424129,0.740702,-0.904970,0.411527,-0.108053,0.000000,0.000000,0.000000,-1,-1.675315,-0.849900,-0.435333,0.853013,0.536089,1.087850
"2019-05-05 23:00:12.972 +0000",1557097212.972312,-1.504258,-0.419315,0.700191,-0.911347,0.407135,-0.060729,0.000000,0.000000,0.000000,-1,-1.576387,-2.140840,-0.258840,0.319535,-0.111359,0.709945
"2019-05-05 23:00:12.995 +0000",1557097212.994617,-1.561159,-0.404184,0.674535,-0.919381,0.393268,-0.008860,0.000000,0.000000,0.000000,-1,-0.519219,-1.938928,-0.968528,0.232949,-0.041202,0.579921
"2019-05-05 23:00:13.017 +0000",1557097213.016908,-1.609668,-0.388013,0.676537,-0.924964,0.378349,0.035973,0.000000,0.000000,0.000000,-1,0.124360,-2.403301,-0.558473,0.125006,-0.096794,0.331718
"2019-05-05 23:00:13.039 +0000",1557097213.039234,-1.667696,-0.378862,0.680836,-0.924728,0.369863,0.089887,0.000000,0.000000,0.000000,-1,0.199409,-2.837432,-0.537220,-0.226914,-0.252019,0.178148
"2019-05-05 23:00:13.062 +0000",1557097213.061536,-1.714270,-0.359211,0.691981,-0.926556,0.351535,0.133856,0.000000,0.000000,0.000000,-1,0.512032,-1.784653,-0.950848,-0.668308,0.091946,0.010294
"2019-05-05 23:00:13.084 +0000",1557097213.083811,-1.737569,-0.346255,0.706458,-0.927599,0.339377,0.156149,0.000000,0.000000,0.000000,-1,0.478543,-1.131562,-0.660170,-0.137037,0.108148,-0.148214
"2019-05-05 23:00:13.106 +0000",1557097213.106127,-1.745944,-0.322952,0.727503,-0.933795,0.317367,0.165245,0.000000,0.000000,0.000000,-1,0.880928,-0.326326,-1.474737,-0.103437,-0.041061,-0.026252
"2019-05-05 23:00:13.128 +0000",1557097213.128436,-1.744352,-0.292962,0.750249,-0.943010,0.288790,0.165328,0.000000,0.000000,0.000000,-1,0.366223,-0.127830,-1.304285,0.066987,-0.060625,-0.033065
"2019-05-05 23:00:13.151 +0000",1557097213.150738,-1.735066,-0.274395,0.745053,-0.949631,0.270965,0.157414,0.000000,0.000000,0.000000,-1,-0.563152,0.777779,-0.510092,0.119156,0.116395,0.000163
"2019-05-05 23:00:13.173 +0000",1557097213.173044,-1.717903,-0.268275,0.737524,-0.953815,0.265069,0.141334,0.000000,0.000000,0.000000,-1,-0.256638,0.891398,-0.110274,0.034946,0.337180,0.058648
"2019-05-05 23:00:13.195 +0000",1557097213.195329,-1.696636,-0.270275,0.726844,-0.956077,0.266996,0.120952,0.000000,0.000000,0.000000,-1,-0.363929,1.275422,0.275801,0.086158,0.327364,0.445729
"2019-05-05 23:00:13.218 +0000",1557097213.217638,-1.677166,-0.277249,0.730981,-0.956376,0.273711,0.102115,0.000000,0.000000,0.000000,-1,0.545187,0.352290,0.361298,-0.089767,0.495714,0.275875
"2019-05-05 23:00:13.240 +0000",1557097213.239959,-1.671797,-0.292176,0.749773,-0.952739,0.288037,0.096556,0.000000,0.000000,0.000000,-1,0.929339,-0.058346,0.726208,0.085063,0.406101,0.094850
"2019-05-05 23:00:13.262 +0000",1557097213.262252,-1.660281,-0.312009,0.767360,-0.947911,0.306971,0.085050,0.000000,0.000000,0.000000,-1,0.745777,0.561956,0.824829,-0.018031,0.246755,0.026674
"2019-05-05 23:00:13.285 +0000",1557097213.284561,-1.628158,-0.331272,0.777643,-0.944074,0.325246,0.054213,0.000000,0.000000,0.000000,-1,0.337596,1.742663,0.806730,0.009031,0.185405,0.086564
"2019-05-05 23:00:13.307 +0000",1557097213.306857,-1.577929,-0.344809,0.780300,-0.941116,0.338016,0.006713,0.000000,0.000000,0.000000,-1,0.043132,2.154706,0.505217,-0.233276,-0.254810,0.039872
"2019-05-05 23:00:13.329 +0000",1557097213.329146,-1.535977,-0.363145,0.772761,-0.934218,0.355216,-0.032542,0.000000,0.000000,0.000000,-1,-0.571440,2.182735,0.822283,0.062254,0.161538,0.072520
"2019-05-05 23:00:13.351 +0000",1557097213.351454,-1.484471,-0.379962,0.759155,-0.925221,0.370885,-0.080069,0.000000,0.000000,0.000000,-1,-0.497654,2.567346,0.703530,-0.078030,-0.019750,-0.316492
"2019-05-05 23:00:13.374 +0000",1557097213.373775,-1.435888,-0.403200,0.756111,-0.911452,0.392364,-0.123714,0.000000,0.000000,0.000000,-1,-0.156008,2.120402,1.200139,0.208983,0.226166,0.047374
"2019-05-05 23:00:13.396 +0000",1557097213.396070,-1.386139,-0.438066,0.753504,-0.890178,0.424189,-0.166272,0.000000,0.000000,0.000000,-1,-0.521127,2.374543,1.747286,0.233272,0.327368,0.166272
"2019-05-05 23:00:13.418 +0000",1557097213.418377,-1.344779,-0.473700,0.747894,-0.867254,0.456182,-0.199422,0.000000,0.000000,0.000000,-1,-0.498517,1.496905,1.287402,0.176962,0.113993,0.016576
"2019-05-05 23:00:13.441 +0000",1557097213.440679,-1.320928,-0.492106,0.749398,-0.853970,0.472483,-0.217934,0.000000,0.000000,0.000000,-1,0.197528,0.782956,0.455432,-0.202762,0.160711,-0.047248
"2019-05-05 23:00:13.463 +0000",1557097213.462981,-1.315932,-0.492293,0.760137,-0.852785,0.472648,-0.222175,0.000000,0.000000,0.000000,-1,0.383147,-0.539693,0.056634,-0.027617,0.211739,0.032799
"2019-05-05 23:00:13.485 +0000",1557097213.485272,-1.348839,-0.490764,0.763954,-0.860337,0.471300,-0.194157,0.000000,0.000000,0.000000,-1,-0.011298,-2.164349,-0.120157,0.050568,0.163435,0.008427
"2019-05-05 23:00:13.508 +0000",1557097213.507579,-1.397268,-0.487301,0.753238,-0.870330,0.468243,-0.152561,0.000000,0.000000,0.000000,-1,-0.429928,-1.060258,-0.226899,0.069060,0.108143,-0.118801
"2019-05-05 23:00:13.530 +0000",1557097213.529888,-1.393775,-0.481809,0.744106,-0.872310,0.463383,-0.156051,0.000000,0.000000,0.000000,-1,-0.184959,0.811279,-0.450578,0.135402,0.195522,-0.090272
"2019-05-05 23:00:13.552 +0000",1557097213.552164,-1.368812,-0.467914,0.735750,-0.874367,0.451026,-0.179050,0.000000,0.000000,0.000000,-1,-0.251353,1.418677,-0.839325,0.098930,-0.002112,-0.037259
"2019-05-05 23:00:13.574 +0000",1557097213.574486,-1.336598,-0.444122,0.727571,-0.878337,0.429665,-0.209550,0.000000,0.000000,0.000000,-1,0.039215,1.744204,-1.309774,0.033199,0.043800,-0.110274
"2019-05-05 23:00:13.597 +0000",1557097213.596806,-1.316944,-0.417555,0.714911,-0.884789,0.405527,-0.229558,0.000000,0.000000,0.000000,-1,-0.612370,0.292697,-0.900195,0.023934,0.025275,0.001180
"2019-05-05 23:00:13.619 +0000",1557097213.619088,-1.363425,-0.437767,0.674635,-0.886296,0.423918,-0.186473,0.000000,0.000000,0.000000,-1,-2.517159,-1.798919,1.128472,0.049413,-0.592894,0.187770
"2019-05-05 23:00:13.641 +0000",1557097213.641398,-1.442821,-0.469579,0.610169,-0.884466,0.452511,-0.113812,0.000000,0.000000,0.000000,-1,-2.525167,-2.565185,0.523684,-0.180918,0.073719,0.080838
"2019-05-05 23:00:13.664 +0000",1557097213.663705,-1.504057,-0.453636,0.596870,-0.896858,0.438237,-0.059945,0.000000,0.000000,0.000000,-1,0.932569,-2.095559,-1.523415,-0.063545,0.234615,-0.087821
"2019-05-05 23:00:13.686 +0000",1557097213.685982,-1.489103,-0.420810,0.636716,-0.909714,0.408500,-0.074483,0.000000,0.000000,0.000000,-1,1.448501,0.817214,-0.685633,0.167664,-0.583061,0.141271
"2019-05-05 23:00:13.708 +0000",1557097213.708289,-1.469298,-0.437088,0.638036,-0.901326,0.423303,-0.091799,0.000000,0.000000,0.000000,-1,-0.336312,0.481982,0.939205,0.238789,-0.244287,0.142458
"2019-05-05 23:00:13.731 +0000",1557097213.730597,-1.456531,-0.448424,0.651037,-0.895255,0.433546,-0.102744,0.000000,0.000000,0.000000,-1,0.873617,0.510364,0.192666,0.294455,0.354036,-0.051308
"2019-05-05 23:00:13.753 +0000",1557097213.752903,-1.434049,-0.433215,0.666256,-0.899148,0.419791,-0.123729,0.000000,0.000000,0.000000,-1,0.527846,0.321469,-0.901203,0.424813,0.239205,0.337825
"2019-05-05 23:00:13.775 +0000",1557097213.775213,-1.438280,-0.411093,0.679289,-0.908648,0.399612,-0.121120,0.000000,0.000000,0.000000,-1,0.843434,-0.624253,-0.866621,0.500979,-0.022124,0.144375
"2019-05-05 23:00:13.798 +0000",1557097213.797508,-1.450664,-0.398075,0.700526,-0.915165,0.387645,-0.110473,0.000000,0.000000,0.000000,-1,0.869167,-1.084723,-0.015233,0.593754,-0.315700,0.013259
"2019-05-05 23:00:13.820 +0000",1557097213.819813,-1.469106,-0.422621,0.714784,-0.907305,0.410152,-0.092583,0.000000,0.000000,0.000000,-1,0.236003,-0.438332,1.791188,0.720919,-0.317303,0.317299
"2019-05-05 23:00:13.842 +0000",1557097213.842108,-1.433751,-0.482977,0.709806,-0.877313,0.464418,-0.120990,0.000000,0.000000,0.000000,-1,-1.070887,1.976685,3.265283,0.698053,-0.114518,0.349048
"2019-05-05 23:00:13.864 +0000",1557097213.864415,-1.423345,-0.571461,0.697475,-0.831985,0.540861,-0.123574,0.000000,0.000000,0.000000,-1,-0.494787,0.101224,3.975640,0.431762,-0.150282,0.071252
"2019-05-05 23:00:13.887 +0000",1557097213.886723,-1.372176,-0.656490,0.753705,-0.776566,0.610340,-0.156303,0.000000,0.000000,0.000000,-1,1.890549,1.157875,4.300965,-0.275787,0.022396,-0.402398
"2019-05-05 23:00:13.909 +0000",1557097213.909002,-1.290383,-0.727175,0.832374,-0.717876,0.664762,-0.206750,0.000000,0.000000,0.000000,-1,1.618274,1.248821,3.034689,-0.578541,0.928607,0.146340
"2019-05-05 23:00:13.931 +0000",1557097213.931309,-1.237441,-0.775004,0.886773,-0.675090,0.699719,-0.233768,0.000000,0.000000,0.000000,-1,0.786736,0.304495,2.601083,-0.136068,0.467991,0.198704
"2019-05-05 23:00:13.954 +0000",1557097213.953617,-1.173664,-0.838870,0.966549,-0.616292,0.743888,-0.258484,0.000000,0.000000,0.000000,-1,1.793966,0.583726,4.397820,0.174779,0.406151,0.100006
"2019-05-05 23:00:13.976 +0000",1557097213.975917,-1.041528,-0.922320,1.108417,-0.521335,0.797005,-0.304947,0.000000,0.000000,0.000000,-1,1.613256,0.728551,4.968346,-0.803967,0.205681,0.566956
"2019-05-05 23:00:13.998 +0000",1557097213.998223,-0.965543,-0.983152,1.199050,-0.455917,0.832249,-0.315438,0.000000,0.000000,0.000000,-1,-0.015747,0.321649,2.671297,-0.846543,0.210048,0.746636
"2019-05-05 23:00:14.021 +0000",1557097214.020540,-0.919962,-1.013305,1.222821,-0.420908,0.848585,-0.320531,0.000000,0.000000,0.000000,-1,-0.403687,1.468355,0.854725,-0.698538,0.349871,0.503301
"2019-05-05 23:00:14.043 +0000",1557097214.042830,-0.879611,-1.032017,1.234070,-0.395330,0.858336,-0.327069,0.000000,0.000000,0.000000,-1,-0.194689,1.052427,1.115299,-0.210185,0.174333,0.095089
"2019-05-05 23:00:14.065 +0000",1557097214.065138,-0.813223,-1.059173,1.292879,-0.355692,0.871951,-0.336429,0.000000,0.000000,0.000000,-1,0.346170,0.481103,2.192429,0.099482,0.245038,0.042072
"2019-05-05 23:00:14.087 +0000",1557097214.087447,-0.731748,-1.090699,1.398527,-0.308605,0.886950,-0.343631,0.000000,0.000000,0.000000,-1,0.565215,-1.193671,2.667630,-0.298161,0.116590,-0.069043
"2019-05-05 23:00:14.110 +0000",1557097214.109741,-0.712782,-1.118031,1.475094,-0.286069,0.899241,-0.330954,0.000000,0.000000,0.000000,-1,-0.243895,-2.876849,1.398265,-0.526202,0.300344,0.005637
"2019-05-05 23:00:14.132 +0000",1557097214.132048,-0.792353,-1.137761,1.476399,-0.298778,0.907696,-0.294651,0.000000,0.000000,0.000000,-1,-0.839725,-3.811260,0.320831,-0.695606,0.180698,0.142078
"2019-05-05 23:00:14.154 +0000",1557097214.154357,-0.880384,-1.161808,1.455162,-0.306606,0.917524,-0.253265,0.000000,0.000000,0.000000,-1,-1.061426,-2.487118,0.791552,-0.086674,-0.143613,0.270096
"2019-05-05 23:00:14.177 +0000",1557097214.176636,-0.934365,-1.202772,1.444563,-0.289337,0.933040,-0.213823,0.000000,0.000000,0.000000,-1,-1.483664,-1.844016,1.723511,0.236801,-0.080593,0.230623
"2019-05-05 23:00:14.199 +0000",1557097214.198942,-0.972684,-1.272972,1.442868,-0.242500,0.955977,-0.165232,0.000000,0.000000,0.000000,-1,-2.039886,-1.506903,3.071230,0.343162,-0.068587,0.220850
"2019-05-05 23:00:14.221 +0000",1557097214.221251,-0.960347,-1.372870,1.475212,-0.161122,0.980476,-0.112719,0.000000,0.000000,0.000000,-1,-2.284742,-0.446524,4.368001,0.298375,-0.073876,0.161807
"2019-05-05 23:00:14.244 +0000",1557097214.243560,-0.662133,-1.491789,1.770099,-0.048523,0.996881,-0.062247,0.000000,0.000000,0.000000,-1,-2.363365,0.672105,5.475404,0.183334,-0.029916,0.075476
"2019-05-05 23:00:14.266 +0000",1557097214.265851,1.449525,-1.487135,-2.405893,0.082950,0.996502,-0.010109,0.000000,0.000000,0.000000,-1,-2.269961,-0.571454,6.135286,-0.034427,0.097888,-0.120048
"2019-05-05 23:00:14.288 +0000",1557097214.288144,1.693082,-1.337806,-2.115452,0.229164,0.972980,0.028164,0.000000,0.000000,0.000000,-1,-1.844171,-2.122145,6.227387,0.137489,0.309613,-0.216122
"2019-05-05 23:00:14.310 +0000",1557097214.310452,1.854440,-1.324731,-1.961995,0.233856,0.969878,0.068170,0.000000,0.000000,0.000000,-1,-1.819199,1.677551,-2.440495,0.760971,2.060761,-0.170129
"2019-05-05 23:00:14.333 +0000",1557097214.333257,2.110025,-1.352296,-1.691346,0.186008,0.976224,0.111304,0.000000,0.000000,0.000000,-1,-2.169126,-1.722965,-1.859659,0.245358,0.046283,-0.816367
"2019-05-05 23:00:14.356 +0000",1557097214.355564,2.340224,-1.346435,-1.407869,0.159812,0.974936,0.154788,0.000000,0.000000,0.000000,-1,-2.371498,-1.625185,-1.364398,0.058480,-0.011374,0.062284
"2019-05-05 23:00:14.378 +0000",1557097214.377871,2.549962,-1.325773,-1.173232,0.135290,0.970132,0.201349,0.000000,0.000000,0.000000,-1,-2.268529,-0.594875,-1.202304,-0.102636,-0.042336,-0.086877
"2019-05-05 23:00:14.400 +0000",1557097214.400166,2.700810,-1.294107,-0.998774,0.116548,0.961965,0.247062,0.000000,0.000000,0.000000,-1,-2.131201,-0.996244,-0.986550,-0.023348,-0.174291,-0.194755
"2019-05-05 23:00:14.422 +0000",1557097214.422457,2.781909,-1.260631,-0.885792,0.107429,0.952283,0.285685,0.000000,0.000000,0.000000,-1,-1.831319,-1.313245,-0.602762,0.270607,-0.333753,-0.215693
"2019-05-05 23:00:14.445 +0000",1557097214.444764,2.810209,-1.228190,-0.821220,0.109299,0.941882,0.317665,0.000000,0.000000,0.000000,-1,-1.585539,-1.564040,-0.270446,0.259902,-0.336017,-0.256493
"2019-05-05 23:00:14.467 +0000",1557097214.467073,2.808238,-1.201476,-0.784527,0.118119,0.932573,0.341110,0.000000,0.000000,0.000000,-1,-1.134713,-1.666626,-0.126680,0.101562,-0.206483,-0.318603
"2019-05-05 23:00:14.489 +0000",1557097214.489380,2.798224,-1.184648,-0.760815,0.126794,0.926367,0.354638,0.000000,0.000000,0.000000,-1,-0.681646,-1.278953,-0.131168,0.104315,-0.049856,-0.269982
"2019-05-05 23:00:14.512 +0000",1557097214.511689,2.785699,-1.175818,-0.744550,0.134071,0.923005,0.360675,0.000000,0.000000,0.000000,-1,-0.354240,-1.198885,-0.139182,0.157555,-0.048371,-0.165088
"2019-05-05 23:00:14.534 +0000",1557097214.533997,2.776840,-1.172344,-0.730313,0.138404,0.921663,0.362467,0.000000,0.000000,0.000000,-1,-0.169864,-0.892710,-0.193923,0.209344,-0.095460,-0.090418
"2019-05-05 23:00:14.556 +0000",1557097214.556274,2.775123,-1.171370,-0.712355,0.139348,0.921284,0.363067,0.000000,0.000000,0.000000,-1,-0.152769,-0.752997,-0.331616,0.193004,-0.158528,-0.069625
"2019-05-05 23:00:14.579 +0000",1557097214.578582,2.776773,-1.171307,-0.695465,0.138769,0.921260,0.363351,0.000000,0.000000,0.000000,-1,-0.050599,-0.564324,-0.224079,0.239298,-0.210078,-0.009453
"2019-05-05 23:00:14.601 +0000",1557097214.600890,2.771118,-1.172976,-0.688756,0.140264,0.921908,0.361126,0.000000,0.000000,0.000000,-1,0.055109,-0.480358,-0.154068,0.079218,-0.093173,0.049168
"2019-05-05 23:00:14.623 +0000",1557097214.623197,2.778516,-1.177678,-0.674579,0.136048,0.923719,0.358098,0.000000,0.000000,0.000000,-1,0.152202,-0.080253,-0.404446,-0.281968,0.022601,0.189403
"2019-05-05 23:00:14.645 +0000",1557097214.645489,2.801978,-1.184225,-0.652416,0.125593,0.926207,0.355481,0.000000,0.000000,0.000000,-1,0.070510,0.126093,-0.478264,-0.324079,0.027940,0.228564
"2019-05-05 23:00:14.668 +0000",1557097214.667784,2.829681,-1.184037,-0.619105,0.115751,0.926136,0.358989,0.000000,0.000000,0.000000,-1,-0.286420,-0.220166,-0.590713,-0.122221,0.028484,0.309499
"2019-05-05 23:00:14.690 +0000",1557097214.690091,2.864579,-1.182197,-0.576216,0.103621,0.925441,0.364448,0.000000,0.000000,0.000000,-1,-0.272994,-0.247558,-0.677302,0.055680,0.054525,0.275277
"2019-05-05 23:00:14.712 +0000",1557097214.712393,2.887066,-1.180130,-0.540537,0.095882,0.924656,0.368536,0.000000,0.000000,0.000000,-1,-0.238680,-0.571670,-0.513140,-0.059795,0.023129,0.254008
"2019-05-05 23:00:14.735 +0000",1557097214.734707,2.905205,-1.178575,-0.507153,0.089518,0.924062,0.371612,0.000000,0.000000,0.000000,-1,-0.178617,-0.554572,-0.551723,-0.088252,0.028727,0.249482
"2019-05-05 23:00:14.757 +0000",1557097214.757015,2.921226,-1.180943,-0.473728,0.083075,0.924965,0.370862,0.000000,0.000000,0.000000,-1,0.093168,-0.756458,-0.618044,-0.030829,-0.070366,0.187061
"2019-05-05 23:00:14.779 +0000",1557097214.779324,2.931591,-1.191665,-0.439627,0.077154,0.928987,0.361982,0.000000,0.000000,0.000000,-1,0.504123,-1.099720,-0.675608,0.117731,-0.107133,0.126665
"2019-05-05 23:00:14.802 +0000",1557097214.801601,2.932445,-1.210621,-0.408282,0.073175,0.935835,0.344758,0.000000,0.000000,0.000000,-1,0.835134,-1.295177,-0.676212,0.104590,-0.168333,0.101837
"2019-05-05 23:00:14.824 +0000",1557097214.823909,2.934537,-1.234652,-0.377670,0.067810,0.944034,0.322804,0.000000,0.000000,0.000000,-1,1.015907,-1.116705,-0.670276,0.260650,-0.068332,0.102123
"2019-05-05 23:00:14.846 +0000",1557097214.846216,2.951930,-1.262029,-0.353727,0.057291,0.952709,0.298436,0.000000,0.000000,0.000000,-1,1.256141,0.442799,-0.464440,0.360587,0.130253,-0.032429
"2019-05-05 23:00:14.869 +0000",1557097214.868525,2.970672,-1.288119,-0.353800,0.047443,0.960312,0.274863,0.000000,0.000000,0.000000,-1,0.759843,1.003536,-0.147089,0.374188,0.273041,0.295113
"2019-05-05 23:00:14.891 +0000",1557097214.890832,3.011354,-1.288572,-0.344593,0.036168,0.960438,0.276134,0.000000,0.000000,0.000000,-1,-0.110102,1.542168,-0.097660,0.238002,0.385051,0.323826
"2019-05-05 23:00:14.913 +0000",1557097214.913110,3.016254,-1.304257,-0.354325,0.032927,0.964688,0.261328,0.000000,0.000000,0.000000,-1,1.157660,-0.022630,0.071841,0.277650,0.169635,-0.613013
"2019-05-05 23:00:14.935 +0000",1557097214.935411,2.970371,-1.332456,-0.382844,0.040226,0.971731,0.232637,0.000000,0.000000,0.000000,-1,1.371533,-1.328704,0.139351,0.202022,-0.090948,-0.610659
"2019-05-05 23:00:14.958 +0000",1557097214.957726,2.858163,-1.365276,-0.461003,0.057070,0.978955,0.195934,0.000000,0.000000,0.000000,-1,1.768189,-1.641796,0.569046,0.237592,-0.370587,-0.465481
"2019-05-05 23:00:14.980 +0000",1557097214.980035,2.699503,-1.401291,-0.588953,0.072173,0.985668,0.152477,0.000000,0.000000,0.000000,-1,1.870173,-1.335240,0.303374,0.186632,-0.183483,-0.341777
"2019-05-05 23:00:15.002 +0000",1557097215.002342,2.524259,-1.430732,-0.746248,0.080813,0.990207,0.113839,0.000000,0.000000,0.000000,-1,1.570996,-0.594714,0.328926,0.060392,-0.156803,-0.219536
"2019-05-05 23:00:15.025 +0000",1557097215.024648,2.248785,-1.449319,-1.011919,0.094378,0.992631,0.076007,0.000000,0.000000,0.000000,-1,1.792019,-0.578436,0.697317,-0.100390,-0.055878,-0.375506
"2019-05-05 23:00:15.047 +0000",1557097215.046924,1.845055,-1.451735,-1.410281,0.114341,0.992921,0.032170,0.000000,0.000000,0.000000,-1,2.071924,-0.152826,0.978984,-0.062553,0.075378,-0.103733
"2019-05-05 23:00:15.069 +0000",1557097215.069234,1.500088,-1.435953,-1.769796,0.134100,0.990922,-0.009498,0.000000,0.000000,0.000000,-1,1.729252,0.956916,0.734524,0.020533,0.050048,0.014762
"2019-05-05 23:00:15.092 +0000",1557097215.091542,1.329898,-1.423871,-1.964497,0.142170,0.989226,-0.034927,0.000000,0.000000,0.000000,-1,1.094543,0.919841,0.122994,0.118511,-0.025282,-0.009492
"2019-05-05 23:00:15.114 +0000",1557097215.113832,1.219329,-1.415738,-2.096114,0.144997,0.988002,-0.053169,0.000000,0.000000,0.000000,-1,0.881238,0.880349,0.113329,0.205848,-0.125835,-0.004341
"2019-05-05 23:00:15.136 +0000",1557097215.136159,1.140710,-1.405259,-2.199383,0.149776,0.986330,-0.068706,0.000000,0.000000,0.000000,-1,0.895429,1.143810,0.165580,0.168309,-0.056627,-0.081379
"2019-05-05 23:00:15.158 +0000",1557097215.158447,1.055490,-1.389818,-2.311051,0.156618,0.983668,-0.088700,0.000000,0.000000,0.000000,-1,1.249556,1.106230,0.270271,0.022642,-0.052333,-0.093886
"2019-05-05 23:00:15.181 +0000",1557097215.180743,0.962653,-1.365111,-2.458775,0.167621,0.978921,-0.116691,0.000000,0.000000,0.000000,-1,1.914106,3.003127,0.196653,-0.201160,-0.029870,0.327689
"2019-05-05 23:00:15.203 +0000",1557097215.203052,0.864532,-1.336287,-2.621574,0.176782,0.972628,-0.150805,0.000000,0.000000,0.000000,-1,2.011757,2.184280,-0.019334,-0.232309,0.013501,0.151705
"2019-05-05 23:00:15.225 +0000",1557097215.225344,0.765134,-1.313691,-2.742040,0.176124,0.967130,-0.183411,0.000000,0.000000,0.000000,-1,1.380762,-0.085352,-0.267414,0.115121,-0.013059,0.052750
"2019-05-05 23:00:15.248 +0000",1557097215.247659,0.678892,-1.301498,-2.804734,0.167064,0.963958,-0.207062,0.000000,0.000000,0.000000,-1,0.660644,-1.515650,-0.067850,0.150257,-0.043395,0.079178
"2019-05-05 23:00:15.270 +0000",1557097215.269977,0.621656,-1.288921,-2.835763,0.161994,0.960536,-0.226118,0.000000,0.000000,0.000000,-1,0.827253,-0.770838,0.060829,0.089471,-0.059657,0.041426
"2019-05-05 23:00:15.292 +0000",1557097215.292253,0.589130,-1.270333,-2.875485,0.164448,0.955199,-0.246071,0.000000,0.000000,0.000000,-1,0.968706,0.700447,0.050310,-0.016957,-0.071090,-0.003654
"2019-05-05 23:00:15.315 +0000",1557097215.314562,0.579931,-1.253921,-2.907267,0.170746,0.950214,-0.260653,0.000000,0.000000,0.000000,-1,0.783215,1.005394,0.036359,-0.023560,0.016675,0.115084
"2019-05-05 23:00:15.337 +0000",1557097215.336869,0.575383,-1.239754,-2.933771,0.176867,0.945704,-0.272694,0.000000,0.000000,0.000000,-1,0.742940,0.804864,0.036881,-0.012285,0.010717,0.180912
"2019-05-05 23:00:15.359 +0000",1557097215.359176,0.559744,-1.223788,-2.958474,0.180575,0.940394,-0.288186,0.000000,0.000000,0.000000,-1,0.809083,0.011636,0.087370,-0.023608,-0.026759,0.156808
"2019-05-05 23:00:15.381 +0000",1557097215.381479,0.530139,-1.209636,-2.979669,0.178677,0.935488,-0.304856,0.000000,0.000000,0.000000,-1,0.641626,-0.588956,0.034324,0.030811,0.049360,0.160371
"2019-05-05 23:00:15.404 +0000",1557097215.403763,0.503568,-1.198887,-2.998861,0.175358,0.931635,-0.318286,0.000000,0.000000,0.000000,-1,0.537315,-0.150309,-0.088707,0.085262,0.088888,0.139910
"2019-05-05 23:00:15.426 +0000",1557097215.426071,0.488148,-1.192181,-3.025578,0.173355,0.929177,-0.326463,0.000000,0.000000,0.000000,-1,0.436661,0.772606,-0.318999,0.113037,0.163093,0.160188
"2019-05-05 23:00:15.448 +0000",1557097215.448384,0.489686,-1.187572,-3.057737,0.175869,0.927464,-0.329971,0.000000,0.000000,0.000000,-1,0.480855,1.766221,-0.414638,0.080158,0.309505,0.195800
"2019-05-05 23:00:15.471 +0000",1557097215.470688,0.497213,-1.179288,-3.100872,0.182007,0.924334,-0.335380,0.000000,0.000000,0.000000,-1,0.794607,2.269318,-0.458666,0.011566,0.223371,0.269095
"2019-05-05 23:00:15.493 +0000",1557097215.492995,0.506690,-1.165814,3.136296,0.191204,0.919110,-0.344498,0.000000,0.000000,0.000000,-1,0.937844,2.306488,-0.405592,-0.011669,0.203495,0.317276
"2019-05-05 23:00:15.515 +0000",1557097215.515302,0.516418,-1.153339,3.094646,0.200192,0.914123,-0.352565,0.000000,0.000000,0.000000,-1,0.761078,2.042193,-0.337573,-0.023495,0.179719,0.408947
"2019-05-05 23:00:15.538 +0000",1557097215.537585,0.529206,-1.149130,3.068470,0.206625,0.912408,-0.353295,0.000000,0.000000,0.000000,-1,0.112087,1.300149,-0.333745,-0.111990,0.365317,0.396966
"2019-05-05 23:00:15.560 +0000",1557097215.559888,0.535723,-1.162179,3.062888,0.202828,0.917671,-0.341674,0.000000,0.000000,0.000000,-1,-0.709429,0.039828,-0.409747,-0.269249,0.456414,0.189742
"2019-05-05 23:00:15.582 +0000",1557097215.582196,0.524664,-1.181595,3.062382,0.190075,0.925212,-0.328411,0.000000,0.000000,0.000000,-1,-0.694102,-0.642156,-0.535184,-0.324886,0.287159,0.072658
"2019-05-05 23:00:15.604 +0000",1557097215.604493,0.500398,-1.204693,3.046503,0.171750,0.933729,-0.314089,0.000000,0.000000,0.000000,-1,-0.923382,-0.203080,-0.851796,0.148258,0.094713,0.254061
"2019-05-05 23:00:15.627 +0000",1557097215.626805,0.491273,-1.242905,3.034438,0.151926,0.946723,-0.283960,0.000000,0.000000,0.000000,-1,-1.739051,0.265864,-1.015097,0.258994,0.024895,0.268320
"2019-05-05 23:00:15.649 +0000",1557097215.649103,0.519836,-1.296084,3.050990,0.134750,0.962503,-0.235435,0.000000,0.000000,0.000000,-1,-2.405654,0.769062,-0.925569,0.522278,-0.054361,0.270012
"2019-05-05 23:00:15.671 +0000",1557097215.671386,0.585467,-1.352305,3.089842,0.119777,0.976226,-0.180657,0.000000,0.000000,0.000000,-1,-2.260971,1.552634,-0.951070,0.549122,-0.017470,-0.037910
"2019-05-05 23:00:15.694 +0000",1557097215.693704,0.688648,-1.397866,-3.130050,0.109349,0.985085,-0.132856,0.000000,0.000000,0.000000,-1,-1.820339,1.913318,-0.616656,0.688442,0.099205,-0.223620
"2019-05-05 23:00:15.716 +0000",1557097215.716012,0.859168,-1.430426,-2.998925,0.105954,0.990164,-0.091371,0.000000,0.000000,0.000000,-1,-1.603150,1.820114,-0.247295,0.745929,0.124567,-0.188613
"2019-05-05 23:00:15.738 +0000",1557097215.738321,1.081810,-1.452563,-2.815762,0.104134,0.993019,-0.055408,0.000000,0.000000,0.000000,-1,-1.320893,1.847306,-0.244934,0.647728,0.097405,-0.213040
"2019-05-05 23:00:15.761 +0000",1557097215.760627,1.331199,-1.469132,-2.610953,0.098590,0.994837,-0.024085,0.000000,0.000000,0.000000,-1,-1.165735,2.218277,-0.400747,0.374341,0.039892,-0.160806
"2019-05-05 23:00:15.783 +0000",1557097215.782906,1.709499,-1.482455,-2.269686,0.087379,0.996100,0.012198,0.000000,0.000000,0.000000,-1,-1.771769,0.946733,-0.539825,0.185143,0.102227,-0.401908
"2019-05-05 23:00:15.805 +0000",1557097215.805214,2.245168,-1.477515,-1.742785,0.072757,0.995652,0.058161,0.000000,0.000000,0.000000,-1,-2.083998,0.607437,-0.765207,0.017270,0.130431,-0.334452
"2019-05-05 23:00:15.828 +0000",1557097215.827530,2.689244,-1.452234,-1.315878,0.051700,0.992980,0.106388,0.000000,0.000000,0.000000,-1,-2.137052,0.830807,-0.893747,-0.017459,-0.038253,-0.285313
"2019-05-05 23:00:15.850 +0000",1557097215.849829,2.928529,-1.412313,-1.075975,0.033372,0.987468,0.154252,0.000000,0.000000,0.000000,-1,-2.119778,-0.374228,-0.761470,0.023665,-0.082698,-0.330827
"2019-05-05 23:00:15.872 +0000",1557097215.872120,3.030030,-1.369883,-0.958865,0.022218,0.979885,0.198324,0.000000,0.000000,0.000000,-1,-1.973538,-0.682038,-0.529175,0.091964,-0.207180,-0.316824
"2019-05-05 23:00:15.894 +0000",1557097215.894414,3.072655,-1.329358,-0.901358,0.016470,0.970995,0.238532,0.000000,0.000000,0.000000,-1,-1.756924,-0.524998,-0.343155,0.132380,-0.279741,-0.289908
"2019-05-05 23:00:15.917 +0000",1557097215.916723,3.092060,-1.295860,-0.871166,0.013442,0.962443,0.271152,0.000000,0.000000,0.000000,-1,-1.371252,-0.446829,-0.212186,0.203630,-0.313547,-0.254826
"2019-05-05 23:00:15.939 +0000",1557097215.939032,3.092709,-1.271728,-0.854959,0.014397,0.955612,0.294278,0.000000,0.000000,0.000000,-1,-0.925883,-0.868238,-0.122657,0.271644,-0.318527,-0.251736
"2019-05-05 23:00:15.961 +0000",1557097215.961349,3.075159,-1.258703,-0.843743,0.020384,0.951693,0.306374,0.000000,0.000000,0.000000,-1,-0.389394,-1.510086,-0.105565,0.273348,-0.313021,-0.238625
"2019-05-05 23:00:15.984 +0000",1557097215.983647,3.046719,-1.255968,-0.837704,0.029334,0.950849,0.308261,0.000000,0.000000,0.000000,-1,0.000954,-1.342495,-0.073391,0.199518,-0.288191,-0.013660
"2019-05-05 23:00:16.006 +0000",1557097216.005955,3.036641,-1.255993,-0.832778,0.032437,0.950857,0.307926,0.000000,0.000000,0.000000,-1,-0.089792,-0.304179,-0.046671,0.118824,-0.198202,0.160763
"2019-05-05 23:00:16.028 +0000",1557097216.028233,3.042159,-1.251731,-0.830415,0.031139,0.949529,0.312130,0.000000,0.000000,0.000000,-1,-0.203389,0.292531,-0.012319,0.057011,-0.133031,0.270878
"2019-05-05 23:00:16.051 +0000",1557097216.050539,3.050802,-1.249349,-0.825600,0.028645,0.948779,0.314639,0.000000,0.000000,0.000000,-1,-0.049553,0.075805,-0.086002,-0.036717,-0.102740,0.250608
"2019-05-05 23:00:16.073 +0000",1557097216.072834,3.053288,-1.249911,-0.820266,0.027816,0.948957,0.314178,0.000000,0.000000,0.000000,-1,0.061910,-0.239028,-0.075717,-0.097258,-0.055036,0.245011
"2019-05-05 23:00:16.095 +0000",1557097216.095157,3.042630,-1.252630,-0.816522,0.030908,0.949811,0.311295,0.000000,0.000000,0.000000,-1,0.129271,-0.947464,-0.048310,-0.121041,-0.002393,0.220657
"2019-05-05 23:00:16.117 +0000",1557097216.117445,3.016250,-1.254035,-0.811090,0.038941,0.950249,0.309047,0.000000,0.000000,0.000000,-1,-0.037096,-1.607220,-0.131844,-0.049775,0.152732,0.283772
"2019-05-05 23:00:16.140 +0000",1557097216.139742,2.997910,-1.248016,-0.791793,0.045420,0.948357,0.313936,0.000000,0.000000,0.000000,-1,-0.451665,-1.603079,-0.288366,-0.006632,0.219398,0.413725
"2019-05-05 23:00:16.162 +0000",1557097216.162048,2.986726,-1.238619,-0.766325,0.050301,0.945335,0.322199,0.000000,0.000000,0.000000,-1,-0.401507,-1.595697,-0.293372,0.009621,0.111504,0.461340
"2019-05-05 23:00:16.184 +0000",1557097216.184358,2.969113,-1.235686,-0.749896,0.056443,0.944374,0.323993,0.000000,0.000000,0.000000,-1,0.008145,-1.352644,-0.153933,0.046859,-0.117531,0.319409
"2019-05-05 23:00:16.207 +0000",1557097216.206666,2.951863,-1.240592,-0.744708,0.061149,0.945976,0.318419,0.000000,0.000000,0.000000,-1,0.260997,-0.785114,-0.070784,0.126534,-0.346962,0.291628
"2019-05-05 23:00:16.229 +0000",1557097216.228973,2.919504,-1.247784,-0.763475,0.069918,0.948283,0.309629,0.000000,0.000000,0.000000,-1,0.326693,-0.551104,0.312975,0.455075,0.100911,0.149020
"2019-05-05 23:00:16.251 +0000",1557097216.251283,2.905979,-1.250276,-0.783571,0.073548,0.949072,0.306356,0.000000,0.000000,0.000000,-1,0.093583,0.530724,0.175414,0.591018,0.762690,0.149287
"2019-05-05 23:00:16.274 +0000",1557097216.273575,2.921671,-1.258123,-0.780747,0.067105,0.951515,0.300194,0.000000,0.000000,0.000000,-1,0.628877,0.584788,-0.218088,0.134266,-0.123039,-0.353066
"2019-05-05 23:00:16.296 +0000",1557097216.295867,2.942017,-1.284866,-0.779957,0.055917,0.959400,0.276451,0.000000,0.000000,0.000000,-1,1.510754,1.058531,-0.280221,0.077139,-0.389850,-0.487663
"2019-05-05 23:00:16.318 +0000",1557097216.318175,2.941333,-1.329799,-0.811454,0.047477,0.971100,0.233901,0.000000,0.000000,0.000000,-1,2.295707,1.563792,0.184555,0.156075,-0.648896,-0.631561
"2019-05-05 23:00:16.340 +0000",1557097216.340462,2.861315,-1.379227,-0.935599,0.052669,0.981707,0.182970,0.000000,0.000000,0.000000,-1,2.454454,1.893906,0.916093,0.311543,-0.260866,-0.422808
"2019-05-05 23:00:16.363 +0000",1557097216.362791,2.617379,-1.421856,-1.215379,0.074274,0.988929,0.128464,0.000000,0.000000,0.000000,-1,2.693819,1.071322,1.309305,0.280752,0.013955,-0.533111
"2019-05-05 23:00:16.385 +0000",1557097216.385068,2.163658,-1.450623,-1.686868,0.099425,0.992788,0.066984,0.000000,0.000000,0.000000,-1,2.856750,0.382867,1.084745,0.241258,0.032618,-0.493161
"2019-05-05 23:00:16.407 +0000",1557097216.407376,1.644807,-1.452202,-2.214065,0.117993,0.992976,0.008749,0.000000,0.000000,0.000000,-1,2.454931,0.183177,0.705500,0.115924,-0.001261,-0.330908
"2019-05-05 23:00:16.430 +0000",1557097216.429685,1.343033,-1.439035,-2.532807,0.127987,0.991332,-0.029666,0.000000,0.000000,0.000000,-1,1.430310,1.061946,0.294085,-0.071896,0.114182,-0.046339
"2019-05-05 23:00:16.452 +0000",1557097216.451993,1.224648,-1.424747,-2.691419,0.136899,0.989354,-0.049375,0.000000,0.000000,0.000000,-1,1.020058,1.950479,0.432406,-0.014539,0.034648,-0.031466
"2019-05-05 23:00:16.474 +0000",1557097216.474282,1.149020,-1.406996,-2.801694,0.148778,0.986615,-0.066757,0.000000,0.000000,0.000000,-1,1.036926,1.070840,0.410448,0.024913,0.108585,-0.068283
"2019-05-05 23:00:16.497 +0000",1557097216.496608,1.059294,-1.389379,-2.902701,0.157331,0.983589,-0.088315,0.000000,0.000000,0.000000,-1,1.008325,0.146629,0.319396,0.033007,0.087197,0.016156
"2019-05-05 23:00:16.519 +0000",1557097216.518885,0.984737,-1.376036,-2.979175,0.161236,0.981094,-0.107038,0.000000,0.000000,0.000000,-1,0.765344,0.073150,0.112774,0.039631,-0.011566,0.121580
"2019-05-05 23:00:16.541 +0000",1557097216.541193,0.943258,-1.365413,-3.029958,0.165086,0.978983,-0.119745,0.000000,0.000000,0.000000,-1,0.578826,0.581155,0.120591,0.036559,-0.121470,0.163935
"2019-05-05 23:00:16.563 +0000",1557097216.563495,0.922858,-1.357363,-3.072552,0.168888,0.977309,-0.127841,0.000000,0.000000,0.000000,-1,0.533703,1.138066,0.034993,-0.006488,-0.032409,0.086642
"2019-05-05 23:00:16.586 +0000",1557097216.585809,0.908273,-1.349043,-3.114710,0.173410,0.975513,-0.135287,0.000000,0.000000,0.000000,-1,0.550072,1.093876,0.057722,-0.065088,-0.006580,0.022647
"2019-05-05 23:00:16.608 +0000",1557097216.608116,0.883092,-1.339066,3.132670,0.177461,0.973270,-0.145781,0.000000,0.000000,0.000000,-1,0.598531,-0.105163,0.146540,-0.173021,0.023952,-0.032991
"2019-05-05 23:00:16.630 +0000",1557097216.630396,0.824478,-1.327920,3.087626,0.176570,0.970650,-0.163282,0.000000,0.000000,0.000000,-1,0.724215,-0.773603,0.012346,-0.231563,0.060935,0.039686
"2019-05-05 23:00:16.653 +0000",1557097216.652702,0.765442,-1.318227,3.039220,0.173139,0.968274,-0.180191,0.000000,0.000000,0.000000,-1,0.639952,-0.382913,-0.107769,-0.114500,0.020145,0.215104
"2019-05-05 23:00:16.675 +0000",1557097216.675010,0.719587,-1.310838,2.995431,0.169409,0.966401,-0.193314,0.000000,0.000000,0.000000,-1,0.552237,-0.027581,-0.145696,0.003412,0.041503,0.183777
"2019-05-05 23:00:16.697 +0000",1557097216.697317,0.681479,-1.302568,2.953998,0.166950,0.964242,-0.205828,0.000000,0.000000,0.000000,-1,0.656495,0.106603,-0.131956,0.114987,0.016364,0.147677
"2019-05-05 23:00:16.720 +0000",1557097216.719626,0.640005,-1.289639,2.907854,0.165704,0.960735,-0.222555,0.000000,0.000000,0.000000,-1,0.876418,0.172243,-0.041885,0.186591,-0.063106,0.131094
"2019-05-05 23:00:16.742 +0000",1557097216.741934,0.606839,-1.272049,2.866463,0.167845,0.955706,-0.241774,0.000000,0.000000,0.000000,-1,0.991191,0.359748,0.080554,0.158220,-0.097719,0.157454
"2019-05-05 23:00:16.764 +0000",1557097216.764211,0.583429,-1.250971,2.832246,0.173200,0.949290,-0.262392,0.000000,0.000000,0.000000,-1,1.051822,0.401971,0.176968,0.118945,-0.092174,0.203631
"2019-05-05 23:00:16.787 +0000",1557097216.786511,0.571785,-1.230328,2.813196,0.180700,0.942598,-0.280813,0.000000,0.000000,0.000000,-1,0.810214,0.247426,0.320898,-0.018988,0.085844,0.214574
"2019-05-05 23:00:16.809 +0000",1557097216.808827,0.577053,-1.215469,2.810994,0.189798,0.937533,-0.291564,0.000000,0.000000,0.000000,-1,0.482977,0.374051,0.335761,-0.078195,0.148664,0.185637
"2019-05-05 23:00:16.831 +0000",1557097216.831134,0.579389,-1.200662,2.805313,0.198057,0.932279,-0.302703,0.000000,0.000000,0.000000,-1,0.732135,0.315944,0.233419,-0.149779,0.210101,0.105865
"2019-05-05 23:00:16.853 +0000",1557097216.853430,0.566859,-1.183134,2.781743,0.202994,0.925795,-0.318899,0.000000,0.000000,0.000000,-1,0.905734,0.539045,0.010697,-0.154196,0.211534,0.189840
"2019-05-05 23:00:16.876 +0000",1557097216.875721,0.551821,-1.167390,2.746962,0.205792,0.919729,-0.334287,0.000000,0.000000,0.000000,-1,0.945281,0.880262,-0.192042,-0.111248,0.221872,0.263105
"2019-05-05 23:00:16.898 +0000",1557097216.898026,0.538142,-1.149484,2.711155,0.209608,0.912553,-0.351157,0.000000,0.000000,0.000000,-1,1.034669,0.733089,-0.086492,0.060168,0.235610,0.361625
"2019-05-05 23:00:16.920 +0000",1557097216.920336,0.525484,-1.132926,2.690874,0.212698,0.905657,-0.366805,0.000000,0.000000,0.000000,-1,0.636232,-0.035005,0.152136,0.076502,0.206083,0.447692
"2019-05-05 23:00:16.943 +0000",1557097216.942644,0.530604,-1.128705,2.700156,0.216506,0.903859,-0.369005,0.000000,0.000000,0.000000,-1,-0.300281,-0.020191,0.268214,0.015184,0.282878,0.571077
"2019-05-05 23:00:16.965 +0000",1557097216.964952,0.566255,-1.139047,2.728239,0.224494,0.908235,-0.353145,0.000000,0.000000,0.000000,-1,-0.809724,0.617461,0.117193,-0.211112,0.469985,0.210766
"2019-05-05 23:00:16.987 +0000",1557097216.987260,0.579233,-1.156889,2.741789,0.220152,0.915556,-0.336586,0.000000,0.000000,0.000000,-1,-0.755155,-0.489443,-0.464696,-0.488706,0.491304,-0.110298
"2019-05-05 23:00:17.010 +0000",1557097217.009554,0.552223,-1.182498,2.732433,0.198614,0.925555,-0.322337,0.000000,0.000000,0.000000,-1,-1.089312,-0.754329,-0.850777,0.053400,0.107542,0.395564
"2019-05-05 23:00:17.032 +0000",1557097217.031845,0.555216,-1.223708,2.739686,0.179308,0.940367,-0.289064,0.000000,0.000000,0.000000,-1,-1.964225,0.343705,-0.883229,0.255384,0.040727,0.405718
"2019-05-05 23:00:17.054 +0000",1557097217.054153,0.611470,-1.277150,2.774743,0.166162,0.957195,-0.236999,0.000000,0.000000,0.000000,-1,-2.422662,1.212057,-0.868803,0.362036,-0.095485,0.226104
"2019-05-05 23:00:17.076 +0000",1557097217.076467,0.716004,-1.333694,2.861794,0.154174,0.972023,-0.177207,0.000000,0.000000,0.000000,-1,-2.727308,0.695750,-0.742778,0.496918,-0.040672,0.117545
"2019-05-05 23:00:17.099 +0000",1557097217.098770,0.873211,-1.384605,3.004252,0.141873,0.982716,-0.118914,0.000000,0.000000,0.000000,-1,-2.308751,1.092594,-0.598497,0.484195,0.162822,-0.067549
"2019-05-05 23:00:17.121 +0000",1557097217.121047,1.053476,-1.415811,-3.137453,0.134167,0.988014,-0.076342,0.000000,0.000000,0.000000,-1,-1.301793,2.158564,-0.539298,0.405552,0.242165,-0.320783
"2019-05-05 23:00:17.143 +0000",1557097217.143356,1.180534,-1.436214,-3.062709,0.124087,0.990957,-0.051045,0.000000,0.000000,0.000000,-1,-0.603431,2.413044,-0.657869,0.257123,0.167139,-0.412273
"2019-05-05 23:00:17.166 +0000",1557097217.165656,1.301376,-1.456712,-2.986447,0.109730,0.993499,-0.030300,0.000000,0.000000,0.000000,-1,-0.902807,1.732285,-0.749957,0.083187,0.200623,-0.146717
"2019-05-05 23:00:17.188 +0000",1557097217.187971,1.574904,-1.479944,-2.717510,0.090727,0.995876,0.000373,0.000000,0.000000,0.000000,-1,-1.667952,-0.724204,-0.950536,-0.154356,0.196965,-0.267493
"2019-05-05 23:00:17.210 +0000",1557097217.210280,2.152937,-1.487378,-2.117588,0.069598,0.996523,0.045811,0.000000,0.000000,0.000000,-1,-2.401794,-0.923718,-0.929230,-0.216799,0.142210,0.019466
"2019-05-05 23:00:17.233 +0000",1557097217.232560,2.642508,-1.455099,-1.595773,0.055252,0.993315,0.101359,0.000000,0.000000,0.000000,-1,-2.573028,-1.569853,-0.670498,-0.017197,-0.093580,-0.352396
"2019-05-05 23:00:17.255 +0000",1557097217.254866,2.844817,-1.410250,-1.354529,0.046748,0.987140,0.152869,0.000000,0.000000,0.000000,-1,-2.320419,-1.564447,-0.553883,0.033528,-0.113636,-0.394171
"2019-05-05 23:00:17.277 +0000",1557097217.277172,2.941593,-1.366916,-1.221747,0.040225,0.979288,0.198435,0.000000,0.000000,0.000000,-1,-2.059460,-1.425367,-0.563690,0.112714,-0.123392,-0.460138
"2019-05-05 23:00:17.299 +0000",1557097217.299472,2.996540,-1.327269,-1.137292,0.034854,0.970494,0.238595,0.000000,0.000000,0.000000,-1,-1.706830,-1.166903,-0.568314,0.301725,-0.176457,-0.358453
"2019-05-05 23:00:17.322 +0000",1557097217.321787,3.037167,-1.296974,-1.064285,0.028187,0.962744,0.268940,0.000000,0.000000,0.000000,-1,-1.323756,-1.506759,-0.696630,0.344707,-0.213233,-0.304829
"2019-05-05 23:00:17.344 +0000",1557097217.344096,3.058130,-1.273518,-1.002724,0.024420,0.956137,0.291900,0.000000,0.000000,0.000000,-1,-1.007651,-1.788139,-0.646857,0.322245,-0.219748,-0.300048
"2019-05-05 23:00:17.366 +0000",1557097217.366373,3.065733,-1.256561,-0.954010,0.023425,0.951033,0.308200,0.000000,0.000000,0.000000,-1,-0.668486,-1.654759,-0.548652,0.252240,-0.281126,-0.219882
"2019-05-05 23:00:17.389 +0000",1557097217.388681,3.058245,-1.245865,-0.928331,0.026577,0.947673,0.318136,0.000000,0.000000,0.000000,-1,-0.449690,-1.330876,-0.163144,0.155201,-0.324382,-0.010992
"2019-05-05 23:00:17.411 +0000",1557097217.410991,3.030204,-1.236095,-0.930175,0.036514,0.944509,0.326451,0.000000,0.000000,0.000000,-1,-0.416752,-1.079808,0.181993,0.063034,-0.303319,0.131404
"2019-05-05 23:00:17.433 +0000",1557097217.433297,2.988375,-1.227761,-0.947114,0.051333,0.941738,0.332407,0.000000,0.000000,0.000000,-1,-0.279490,-1.333717,0.356741,0.036100,-0.262310,0.040228
"2019-05-05 23:00:17.456 +0000",1557097217.455588,2.933216,-1.222413,-0.967811,0.070622,0.939926,0.333994,0.000000,0.000000,0.000000,-1,-0.135615,-1.638891,0.316093,-0.029988,-0.113128,0.026510
"2019-05-05 23:00:17.478 +0000",1557097217.477914,2.889301,-1.219536,-0.977752,0.085891,0.938940,0.333189,0.000000,0.000000,0.000000,-1,-0.057394,-1.567086,0.107078,-0.102477,-0.047735,0.028124
"2019-05-05 23:00:17.500 +0000",1557097217.500191,2.854998,-1.219593,-0.977153,0.097252,0.938959,0.329995,0.000000,0.000000,0.000000,-1,0.035897,-1.614505,-0.077302,-0.128121,0.036199,0.172141
"2019-05-05 23:00:17.522 +0000",1557097217.522488,2.824645,-1.221363,-0.966213,0.106704,0.939567,0.325313,0.000000,0.000000,0.000000,-1,-0.020234,-1.955951,-0.250452,-0.054092,0.167199,0.298726
"2019-05-05 23:00:17.545 +0000",1557097217.544807,2.804120,-1.220241,-0.940511,0.113708,0.939182,0.324049,0.000000,0.000000,0.000000,-1,-0.269249,-1.919795,-0.417112,-0.015624,0.217770,0.368120
"2019-05-05 23:00:17.567 +0000",1557097217.567115,2.800850,-1.214957,-0.905545,0.116423,0.937355,0.328348,0.000000,0.000000,0.000000,-1,-0.440814,-1.511456,-0.417088,-0.028395,0.123467,0.385306
"2019-05-05 23:00:17.589 +0000",1557097217.589423,2.791017,-1.210715,-0.875777,0.121011,0.935868,0.330918,0.000000,0.000000,0.000000,-1,-0.261445,-1.842079,-0.361974,-0.039941,-0.022462,0.285171
"2019-05-05 23:00:17.612 +0000",1557097217.611700,2.769923,-1.210417,-0.852522,0.128065,0.935763,0.328553,0.000000,0.000000,0.000000,-1,-0.053237,-1.855526,-0.363006,-0.057218,-0.211215,0.137527
"2019-05-05 23:00:17.634 +0000",1557097217.634008,2.758201,-1.215713,-0.827706,0.130052,0.937618,0.322428,0.000000,0.000000,0.000000,-1,0.120918,-1.392174,-0.489858,-0.070802,-0.298351,0.137044
"2019-05-05 23:00:17.656 +0000",1557097217.656318,2.743781,-1.222902,-0.820827,0.132073,0.940093,0.314297,0.000000,0.000000,0.000000,-1,0.393449,-0.600116,0.075117,0.088402,-0.147582,0.382038
"2019-05-05 23:00:17.679 +0000",1557097217.678635,2.700292,-1.232599,-0.859653,0.141712,0.943354,0.300002,0.000000,0.000000,0.000000,-1,0.636876,-0.268048,0.347674,0.663128,0.796636,-0.170485
"2019-05-05 23:00:17.701 +0000",1557097217.700932,2.707021,-1.233473,-0.855820,0.139342,0.943644,0.300199,0.000000,0.000000,0.000000,-1,-0.208238,0.475738,-0.315536,0.366868,0.838949,0.216478
"2019-05-05 23:00:17.723 +0000",1557097217.723240,2.741310,-1.242304,-0.829900,0.125717,0.946530,0.297114,0.000000,0.000000,0.000000,-1,0.583171,0.166237,-0.591572,-0.017242,-0.315518,-0.739100
"2019-05-05 23:00:17.746 +0000",1557097217.745533,2.726457,-1.273923,-0.836140,0.117982,0.956256,0.267684,0.000000,0.000000,0.000000,-1,1.743978,-0.475719,-0.352154,0.068755,-0.730716,-0.814834
"2019-05-05 23:00:17.768 +0000",1557097217.767825,2.642023,-1.314634,-0.924997,0.121376,0.967369,0.222405,0.000000,0.000000,0.000000,-1,2.269852,0.419639,0.494856,0.085152,-0.606194,-0.496880
"2019-05-05 23:00:17.790 +0000",1557097217.790133,2.470535,-1.349611,-1.124514,0.136417,0.975638,0.171815,0.000000,0.000000,0.000000,-1,2.597715,1.320037,1.076261,0.126293,-0.185813,-0.405412
"2019-05-05 23:00:17.812 +0000",1557097217.812441,2.210081,-1.371790,-1.421520,0.158655,0.980263,0.117949,0.000000,0.000000,0.000000,-1,2.652294,1.233383,1.248248,0.224951,0.034705,-0.514022
"2019-05-05 23:00:17.835 +0000",1557097217.834749,1.943500,-1.375586,-1.714085,0.180656,0.981007,0.070632,0.000000,0.000000,0.000000,-1,2.027349,0.779262,0.948079,0.151208,0.206264,-0.343414
"2019-05-05 23:00:17.857 +0000",1557097217.857026,1.792694,-1.373355,-1.881754,0.191351,0.980572,0.043171,0.000000,0.000000,0.000000,-1,0.949447,0.456402,0.284313,0.007669,0.166386,-0.209935
"2019-05-05 23:00:17.879 +0000",1557097217.879334,1.743211,-1.375117,-1.934053,0.191550,0.980916,0.033357,0.000000,0.000000,0.000000,-1,0.301491,-0.157955,-0.095079,-0.080634,0.136028,-0.070833
"2019-05-05 23:00:17.902 +0000",1557097217.901642,1.685399,-1.378339,-1.981907,0.190017,0.981537,0.021872,0.000000,0.000000,0.000000,-1,0.580888,-0.631444,-0.094478,0.088853,0.010986,-0.008536
"2019-05-05 23:00:17.924 +0000",1557097217.923951,1.572409,-1.384115,-2.082065,0.185598,0.982626,0.000299,0.000000,0.000000,0.000000,-1,0.979118,-0.554444,-0.267426,0.199793,-0.040197,-0.018122
"2019-05-05 23:00:17.946 +0000",1557097217.946259,1.454560,-1.388493,-2.199460,0.180072,0.983429,-0.021026,0.000000,0.000000,0.000000,-1,0.894507,0.188700,-0.224437,0.227765,-0.091491,0.000365
"2019-05-05 23:00:17.969 +0000",1557097217.968540,1.364448,-1.388048,-2.301039,0.177877,0.983348,-0.037235,0.000000,0.000000,0.000000,-1,0.788820,0.386236,-0.028990,0.128748,-0.189555,-0.138150
"2019-05-05 23:00:17.991 +0000",1557097217.990843,1.254211,-1.380043,-2.405858,0.180176,0.981862,-0.059026,0.000000,0.000000,0.000000,-1,1.042338,-0.628973,0.176136,0.103057,-0.192402,-0.161249
"2019-05-05 23:00:18.013 +0000",1557097218.013150,1.139371,-1.366993,-2.512793,0.183850,0.979304,-0.084635,0.000000,0.000000,0.000000,-1,1.077862,-0.219201,0.206008,0.065479,-0.138178,-0.016836
"2019-05-05 23:00:18.035 +0000",1557097218.035460,1.056964,-1.354080,-2.600368,0.187257,0.976609,-0.105688,0.000000,0.000000,0.000000,-1,0.928484,0.256392,0.098758,-0.029725,-0.064606,0.036535
"2019-05-05 23:00:18.058 +0000",1557097218.057767,0.986504,-1.341971,-2.677481,0.189203,0.973934,-0.125124,0.000000,0.000000,0.000000,-1,0.952026,0.182365,0.039879,-0.139947,0.044148,-0.012892
"2019-05-05 23:00:18.080 +0000",1557097218.080076,0.917380,-1.330044,-2.753628,0.189319,0.971159,-0.144944,0.000000,0.000000,0.000000,-1,0.969241,0.273018,-0.060162,-0.118075,0.058199,0.048158
"2019-05-05 23:00:18.102 +0000",1557097218.102379,0.845783,-1.317400,-2.833211,0.187641,0.968067,-0.166246,0.000000,0.000000,0.000000,-1,1.089241,0.175554,-0.146083,-0.014408,0.014538,0.117631
"2019-05-05 23:00:18.125 +0000",1557097218.124654,0.769736,-1.301879,-2.912828,0.184905,0.964059,-0.190789,0.000000,0.000000,0.000000,-1,1.141985,0.013360,-0.103683,0.147111,0.004569,0.260827
"2019-05-05 23:00:18.147 +0000",1557097218.146968,0.719871,-1.286320,-2.970599,0.185033,0.959809,-0.211022,0.000000,0.000000,0.000000,-1,0.889258,0.463815,-0.019711,0.091228,0.007187,0.257241
"2019-05-05 23:00:18.169 +0000",1557097218.169277,0.699238,-1.272883,-3.013062,0.188924,0.955951,-0.224645,0.000000,0.000000,0.000000,-1,0.801851,1.145218,-0.036962,0.024455,0.011166,0.227803
"2019-05-05 23:00:18.192 +0000",1557097218.191579,0.687732,-1.260300,-3.056974,0.193947,0.952182,-0.236080,0.000000,0.000000,0.000000,-1,0.825541,1.424157,-0.118823,-0.085793,-0.010135,0.086178
"2019-05-05 23:00:18.214 +0000",1557097218.213892,0.675548,-1.245174,-3.101833,0.200040,0.947452,-0.249637,0.000000,0.000000,0.000000,-1,0.974079,1.289487,0.032542,-0.072355,0.037488,0.041584
"2019-05-05 23:00:18.236 +0000",1557097218.236170,0.668030,-1.226832,-3.132340,0.208889,0.941425,-0.264734,0.000000,0.000000,0.000000,-1,0.861487,0.715614,0.202580,-0.033459,0.120800,0.045450
"2019-05-05 23:00:18.258 +0000",1557097218.258478,0.658073,-1.209323,3.132548,0.216291,0.935377,-0.279800,0.000000,0.000000,0.000000,-1,0.773655,0.119243,0.295872,-0.059843,0.222887,0.057571
"2019-05-05 23:00:18.281 +0000",1557097218.280786,0.639427,-1.191291,3.113871,0.221067,0.928848,-0.297272,0.000000,0.000000,0.000000,-1,0.869629,-0.144377,0.190326,-0.184660,0.250016,0.160355
"2019-05-05 23:00:18.303 +0000",1557097218.303093,0.607973,-1.173609,3.082924,0.220957,0.922153,-0.317510,0.000000,0.000000,0.000000,-1,0.989065,-0.005109,-0.073853,-0.167567,0.249112,0.295019
"2019-05-05 23:00:18.325 +0000",1557097218.325402,0.583836,-1.158710,3.048999,0.220779,0.916287,-0.334177,0.000000,0.000000,0.000000,-1,0.727088,0.501448,-0.114438,-0.080368,0.232135,0.427302
"2019-05-05 23:00:18.348 +0000",1557097218.347680,0.592692,-1.157299,3.042203,0.224452,0.915721,-0.333280,0.000000,0.000000,0.000000,-1,-0.265853,0.715411,-0.027443,-0.196208,0.543660,0.204862
"2019-05-05 23:00:18.370 +0000",1557097218.369989,0.613294,-1.166625,3.051450,0.226345,0.919429,-0.321589,0.000000,0.000000,0.000000,-1,-0.384842,0.359053,-0.232742,-0.296230,0.543966,0.009577
"2019-05-05 23:00:18.392 +0000",1557097218.392294,0.589581,-1.177677,3.033861,0.212993,0.923718,-0.318399,0.000000,0.000000,0.000000,-1,-0.261939,-0.758319,-0.665644,-0.340053,0.424060,-0.030325
"2019-05-05 23:00:18.415 +0000",1557097218.414584,0.565075,-1.200495,3.019595,0.193788,0.932218,-0.305639,0.000000,0.000000,0.000000,-1,-1.063563,-0.040805,-0.810056,0.239211,0.098192,0.613164
"2019-05-05 23:00:18.437 +0000",1557097218.436911,0.592617,-1.239903,3.028278,0.181461,0.945753,-0.269488,0.000000,0.000000,0.000000,-1,-1.837960,1.369687,-0.853922,0.426312,-0.088712,0.443652
"2019-05-05 23:00:18.459 +0000",1557097218.459189,0.676855,-1.290115,3.081357,0.173504,0.960867,-0.215943,0.000000,0.000000,0.000000,-1,-2.460823,1.310933,-0.709765,0.465732,-0.289450,0.222260
"2019-05-05 23:00:18.481 +0000",1557097218.481497,0.797621,-1.343779,-3.099127,0.161084,0.974342,-0.157193,0.000000,0.000000,0.000000,-1,-2.534161,0.907118,-0.785606,0.374591,-0.072502,0.000714
"2019-05-05 23:00:18.504 +0000",1557097218.503804,0.975843,-1.391785,-2.939866,0.147462,0.984020,-0.099795,0.000000,0.000000,0.000000,-1,-2.420936,1.015666,-0.722013,0.227004,0.076176,-0.176602
"2019-05-05 23:00:18.526 +0000",1557097218.526113,1.238848,-1.427997,-2.696995,0.134546,0.989821,-0.046378,0.000000,0.000000,0.000000,-1,-2.175811,1.017498,-0.592908,0.196829,0.210984,-0.308510
"2019-05-05 23:00:18.548 +0000",1557097218.548404,1.577017,-1.446764,-2.379240,0.123712,0.992318,0.000770,0.000000,0.000000,0.000000,-1,-1.878068,1.138540,-0.499574,0.238776,0.240501,-0.157935
"2019-05-05 23:00:18.571 +0000",1557097218.570727,1.909383,-1.451064,-2.080295,0.112665,0.992841,0.039675,0.000000,0.000000,0.000000,-1,-1.347972,1.896769,-0.440329,0.307409,0.257037,-0.172182
"2019-05-05 23:00:18.593 +0000",1557097218.593006,2.194513,-1.449730,-1.832805,0.098031,0.992680,0.070537,0.000000,0.000000,0.000000,-1,-1.191467,1.296678,-0.717778,0.321479,0.203990,-0.199275
"2019-05-05 23:00:18.615 +0000",1557097218.615314,2.523748,-1.436827,-1.499973,0.077374,0.991040,0.108876,0.000000,0.000000,0.000000,-1,-2.066894,-0.600406,-0.987878,0.158680,0.256565,-0.271183
"2019-05-05 23:00:18.638 +0000",1557097218.637623,2.801408,-1.403802,-1.201576,0.055461,0.986089,0.156694,0.000000,0.000000,0.000000,-1,-2.283530,-0.955393,-1.146090,-0.000728,-0.067861,-0.346513
"2019-05-05 23:00:18.660 +0000",1557097218.659929,2.961328,-1.361349,-1.011846,0.037278,0.978146,0.204551,0.000000,0.000000,0.000000,-1,-2.212931,-1.218109,-1.014712,0.016189,-0.087597,-0.391700
"2019-05-05 23:00:18.682 +0000",1557097218.682237,3.050550,-1.316296,-0.891383,0.022890,0.967789,0.250720,0.000000,0.000000,0.000000,-1,-2.124621,-1.242180,-0.886684,0.021453,-0.071824,-0.494708
"2019-05-05 23:00:18.705 +0000",1557097218.704526,3.097148,-1.276030,-0.818087,0.012908,0.956870,0.290229,0.000000,0.000000,0.000000,-1,-1.668229,-0.974208,-0.670532,0.179033,-0.213355,-0.419014
"2019-05-05 23:00:18.727 +0000",1557097218.726822,3.124910,-1.244923,-0.760504,0.005341,0.947371,0.320092,0.000000,0.000000,0.000000,-1,-1.267469,-1.463920,-0.742927,0.318710,-0.265792,-0.400155
"2019-05-05 23:00:18.749 +0000",1557097218.749144,3.120054,-1.222964,-0.723076,0.007341,0.940114,0.340782,0.000000,0.000000,0.000000,-1,-0.796054,-1.904081,-0.415037,0.308150,-0.371266,-0.315696
"2019-05-05 23:00:18.771 +0000",1557097218.771439,3.100974,-1.213683,-0.701721,0.014195,0.936910,0.349283,0.000000,0.000000,0.000000,-1,-0.234679,-1.610610,-0.297069,0.242122,-0.431905,-0.262186
"2019-05-05 23:00:18.794 +0000",1557097218.793747,3.083484,-1.213761,-0.687296,0.020298,0.936937,0.348908,0.000000,0.000000,0.000000,-1,0.087167,-1.229908,-0.181219,0.245907,-0.343431,-0.141175
"2019-05-05 23:00:18.816 +0000",1557097218.816055,3.069939,-1.217668,-0.682068,0.024759,0.938295,0.344947,0.000000,0.000000,0.000000,-1,0.189826,-0.598203,-0.027993,0.192007,-0.289309,-0.043235
"2019-05-05 23:00:18.838 +0000",1557097218.838332,3.060229,-1.222087,-0.686315,0.027770,0.939814,0.340555,0.000000,0.000000,0.000000,-1,0.214465,-0.066347,0.080186,0.128678,-0.227107,0.071753
"2019-05-05 23:00:18.861 +0000",1557097218.860634,3.054925,-1.227981,-0.691450,0.029096,0.941812,0.334878,0.000000,0.000000,0.000000,-1,0.308271,-0.077627,0.015818,0.024295,-0.050363,0.158317
"2019-05-05 23:00:18.883 +0000",1557097218.882948,3.052314,-1.234300,-0.688296,0.029439,0.943917,0.328867,0.000000,0.000000,0.000000,-1,0.208441,-0.323009,-0.123468,-0.007100,0.006980,0.236456
"2019-05-05 23:00:18.905 +0000",1557097218.905256,3.046272,-1.232017,-0.675792,0.031631,0.943161,0.330827,0.000000,0.000000,0.000000,-1,-0.324259,-1.135421,-0.197120,-0.187438,0.213059,0.435499
"2019-05-05 23:00:18.928 +0000",1557097218.927548,3.026246,-1.218489,-0.656480,0.039714,0.938579,0.342772,0.000000,0.000000,0.000000,-1,-0.816931,-2.064711,-0.278401,-0.238994,0.371037,0.515871
"2019-05-05 23:00:18.950 +0000",1557097218.949841,3.006191,-1.196691,-0.621506,0.049330,0.930835,0.362095,0.000000,0.000000,0.000000,-1,-1.107864,-2.407712,-0.509943,-0.192549,0.362714,0.470394
"2019-05-05 23:00:18.972 +0000",1557097218.972149,2.992006,-1.175764,-0.582567,0.057352,0.922984,0.380541,0.000000,0.000000,0.000000,-1,-0.943281,-2.102511,-0.496455,-0.079767,0.010549,0.245848
"2019-05-05 23:00:18.994 +0000",1557097218.994458,2.984186,-1.161818,-0.550518,0.062338,0.917528,0.392756,0.000000,0.000000,0.000000,-1,-0.552535,-1.478453,-0.443521,-0.044333,-0.153779,0.171972
"2019-05-05 23:00:19.017 +0000",1557097219.016765,2.973672,-1.155770,-0.527233,0.067390,0.915106,0.397543,0.000000,0.000000,0.000000,-1,-0.223312,-1.466695,-0.302063,0.085152,-0.429937,0.097834
"2019-05-05 23:00:19.039 +0000",1557097219.039074,2.940493,-1.156110,-0.533074,0.080479,0.915243,0.394783,0.000000,0.000000,0.000000,-1,0.137421,-0.825435,0.385862,0.287212,-0.089437,0.031211
"2019-05-05 23:00:19.061 +0000",1557097219.061382,2.910603,-1.162403,-0.560306,0.090921,0.917760,0.386588,0.000000,0.000000,0.000000,-1,0.496240,-0.179798,0.295928,0.575782,0.307292,-0.461203
"2019-05-05 23:00:19.084 +0000",1557097219.083659,2.880623,-1.179562,-0.580850,0.098390,0.924439,0.368418,0.000000,0.000000,0.000000,-1,1.082172,-0.647750,0.104327,0.440246,0.261276,-0.067057
"2019-05-05 23:00:19.106 +0000",1557097219.105966,2.857697,-1.210564,-0.600798,0.098732,0.935815,0.338382,0.000000,0.000000,0.000000,-1,1.618856,0.263264,-0.092092,0.184502,0.280616,-0.022876
"2019-05-05 23:00:19.128 +0000",1557097219.128273,2.842255,-1.251804,-0.641146,0.092480,0.949552,0.299665,0.000000,0.000000,0.000000,-1,2.105946,1.373920,0.127758,0.083851,-0.003461,-0.370572
"2019-05-05 23:00:19.151 +0000",1557097219.150579,2.810495,-1.298660,-0.719438,0.087378,0.963199,0.254191,0.000000,0.000000,0.000000,-1,2.407695,2.249977,0.461259,0.156152,-0.371844,-0.756037
"2019-05-05 23:00:19.173 +0000",1557097219.172890,2.716086,-1.346489,-0.872365,0.091815,0.974948,0.202596,0.000000,0.000000,0.000000,-1,2.723406,2.303755,0.973261,0.174725,-0.369083,-0.752706
"2019-05-05 23:00:19.195 +0000",1557097219.195169,2.484006,-1.386574,-1.150428,0.111962,0.983079,0.144983,0.000000,0.000000,0.000000,-1,2.831199,1.596803,1.380277,0.212211,-0.214387,-0.580301
"2019-05-05 23:00:19.217 +0000",1557097219.217476,2.140983,-1.402771,-1.529847,0.140779,0.985917,0.090272,0.000000,0.000000,0.000000,-1,2.494109,1.271193,1.515761,0.207671,-0.075791,-0.389192
"2019-05-05 23:00:19.240 +0000",1557097219.239784,1.854022,-1.393005,-1.845075,0.169810,0.984237,0.049423,0.000000,0.000000,0.000000,-1,1.751458,0.942608,1.244200,0.139882,0.137422,-0.257904
"2019-05-05 23:00:19.262 +0000",1557097219.262092,1.693653,-1.380489,-2.024745,0.187736,0.981946,0.023181,0.000000,0.000000,0.000000,-1,1.083785,0.617454,0.595482,0.010537,0.194934,-0.193912
"2019-05-05 23:00:19.284 +0000",1557097219.284399,1.610718,-1.375823,-2.121545,0.193586,0.981053,0.007732,0.000000,0.000000,0.000000,-1,0.704272,0.474067,0.140073,-0.111662,0.192089,-0.173046
"2019-05-05 23:00:19.307 +0000",1557097219.306677,1.534316,-1.373782,-2.203502,0.195613,0.980655,-0.007139,0.000000,0.000000,0.000000,-1,0.767577,-0.030574,0.061464,-0.216563,0.047848,-0.137041
"2019-05-05 23:00:19.329 +0000",1557097219.328982,1.435364,-1.373556,-2.299679,0.194170,0.980611,-0.026459,0.000000,0.000000,0.000000,-1,0.843041,-0.240529,-0.161178,-0.138201,0.113520,0.016281
"2019-05-05 23:00:19.351 +0000",1557097219.351282,1.343213,-1.378027,-2.392543,0.186638,0.981477,-0.043225,0.000000,0.000000,0.000000,-1,0.709248,0.129893,-0.427518,-0.060814,0.090239,0.052853
"2019-05-05 23:00:19.374 +0000",1557097219.373578,1.251070,-1.383187,-2.492310,0.177058,0.982453,-0.058622,0.000000,0.000000,0.000000,-1,0.848503,0.326670,-0.455256,0.209508,-0.081788,0.177396
"2019-05-05 23:00:19.396 +0000",1557097219.395899,1.145690,-1.384260,-2.615970,0.168950,0.982652,-0.076485,0.000000,0.000000,0.000000,-1,0.924562,0.994999,-0.371837,0.207698,-0.114885,0.253670
"2019-05-05 23:00:19.418 +0000",1557097219.418205,1.084687,-1.381609,-2.707385,0.166275,0.982157,-0.087860,0.000000,0.000000,0.000000,-1,0.623456,1.421358,-0.151213,0.172989,-0.121165,0.213089
"2019-05-05 23:00:19.440 +0000",1557097219.440484,1.056832,-1.377437,-2.766026,0.167331,0.981364,-0.094471,0.000000,0.000000,0.000000,-1,0.500815,1.175705,-0.039917,0.027524,-0.048350,0.036762
"2019-05-05 23:00:19.463 +0000",1557097219.462788,1.020794,-1.371925,-2.819658,0.168427,0.980290,-0.103264,0.000000,0.000000,0.000000,-1,0.568106,0.477039,-0.031206,-0.129899,0.035945,-0.141075
"2019-05-05 23:00:19.485 +0000",1557097219.485102,0.965345,-1.364597,-2.882685,0.168348,0.978816,-0.116525,0.000000,0.000000,0.000000,-1,0.698391,0.226146,-0.030163,-0.120481,-0.007716,-0.081549
"2019-05-05 23:00:19.507 +0000",1557097219.507408,0.901960,-1.355048,-2.952306,0.167954,0.976817,-0.132744,0.000000,0.000000,0.000000,-1,0.826242,0.223654,-0.052416,-0.048309,-0.048090,-0.005531
"2019-05-05 23:00:19.530 +0000",1557097219.529716,0.839571,-1.343483,-3.023007,0.167749,0.974275,-0.150492,0.000000,0.000000,0.000000,-1,0.876508,0.327029,-0.047109,0.067923,-0.046312,0.068781
"2019-05-05 23:00:19.552 +0000",1557097219.551994,0.784956,-1.329940,-3.086636,0.168595,0.971134,-0.168744,0.000000,0.000000,0.000000,-1,0.903095,0.316209,0.015025,0.107391,-0.048054,0.106351
"2019-05-05 23:00:19.574 +0000",1557097219.574306,0.740915,-1.314364,-3.138769,0.171192,0.967301,-0.187142,0.000000,0.000000,0.000000,-1,0.894644,0.294389,0.099572,0.107861,-0.041474,0.144723
"2019-05-05 23:00:19.597 +0000",1557097219.596620,0.714033,-1.299020,3.107572,0.175800,0.963296,-0.202870,0.000000,0.000000,0.000000,-1,0.716855,0.456900,0.152637,0.054058,-0.075585,0.174565
"2019-05-05 23:00:19.619 +0000",1557097219.618917,0.706314,-1.286730,3.086924,0.181899,0.959924,-0.213211,0.000000,0.000000,0.000000,-1,0.536377,0.576211,0.168868,-0.003157,-0.011361,0.123093
"2019-05-05 23:00:19.641 +0000",1557097219.641225,0.701333,-1.275477,3.068330,0.187793,0.956709,-0.222353,0.000000,0.000000,0.000000,-1,0.561263,0.569884,0.120554,-0.073108,0.058214,0.025637
"2019-05-05 23:00:19.664 +0000",1557097219.663534,0.688177,-1.263990,3.041068,0.191819,0.953303,-0.233278,0.000000,0.000000,0.000000,-1,0.673701,0.587943,0.006312,-0.100373,0.092153,-0.011442
"2019-05-05 23:00:19.686 +0000",1557097219.685811,0.668537,-1.252006,3.004644,0.194269,0.949615,-0.245949,0.000000,0.000000,0.000000,-1,0.758742,0.741408,-0.081852,-0.045435,0.068421,0.059273
"2019-05-05 23:00:19.708 +0000",1557097219.708119,0.651114,-1.239431,2.965292,0.197176,0.945599,-0.258774,0.000000,0.000000,0.000000,-1,0.816507,0.981219,-0.106285,0.006284,0.069706,0.100403
"2019-05-05 23:00:19.730 +0000",1557097219.730426,0.637846,-1.225568,2.926835,0.201513,0.940998,-0.271873,0.000000,0.000000,0.000000,-1,0.840565,1.024470,-0.058278,0.054835,0.101711,0.122459
"2019-05-05 23:00:19.753 +0000",1557097219.752736,0.627580,-1.210474,2.895329,0.207028,0.935783,-0.285393,0.000000,0.000000,0.000000,-1,0.818166,0.724667,0.036174,0.104297,0.156807,0.190895
"2019-05-05 23:00:19.775 +0000",1557097219.775043,0.619231,-1.195693,2.876573,0.212644,0.930470,-0.298343,0.000000,0.000000,0.000000,-1,0.626689,0.246781,0.223934,0.064639,0.156093,0.305805
"2019-05-05 23:00:19.797 +0000",1557097219.797321,0.624670,-1.183476,2.876804,0.220895,0.925925,-0.306380,0.000000,0.000000,0.000000,-1,0.327439,0.345514,0.339540,-0.108972,0.148706,0.430159
"2019-05-05 23:00:19.820 +0000",1557097219.819642,0.652240,-1.179845,2.890230,0.231296,0.924547,-0.302845,0.000000,0.000000,0.000000,-1,-0.242223,0.803644,0.216138,-0.294239,0.324049,0.298374
"2019-05-05 23:00:19.842 +0000",1557097219.841938,0.678199,-1.185706,2.906483,0.235675,0.926765,-0.292514,0.000000,0.000000,0.000000,-1,-0.345519,0.157813,-0.090790,-0.474902,0.492959,-0.006848
"2019-05-05 23:00:19.864 +0000",1557097219.864244,0.666493,-1.195259,2.902749,0.226751,0.930311,-0.288281,0.000000,0.000000,0.000000,-1,-0.349987,-0.546007,-0.452985,-0.451086,0.323138,-0.133258
"2019-05-05 23:00:19.887 +0000",1557097219.886541,0.644340,-1.211768,2.896541,0.211055,0.936239,-0.280915,0.000000,0.000000,0.000000,-1,-0.674206,-0.819627,-0.553660,-0.089046,0.148768,0.056977
"2019-05-05 23:00:19.909 +0000",1557097219.908829,0.648354,-1.237907,2.909454,0.197331,0.945102,-0.260465,0.000000,0.000000,0.000000,-1,-1.231736,0.088023,-0.545829,0.378093,0.141720,0.508558
"2019-05-05 23:00:19.931 +0000",1557097219.931137,0.694119,-1.268199,2.939219,0.190633,0.954566,-0.229048,0.000000,0.000000,0.000000,-1,-1.386395,1.139891,-0.506851,0.510676,0.038720,0.136259
"2019-05-05 23:00:19.953 +0000",1557097219.953446,0.775492,-1.301322,2.991223,0.186375,0.963911,-0.190105,0.000000,0.000000,0.000000,-1,-1.627057,1.414100,-0.510629,0.453243,-0.168653,-0.097050
"2019-05-05 23:00:19.976 +0000",1557097219.975753,0.871031,-1.335166,3.070533,0.178593,0.972367,-0.150355,0.000000,0.000000,0.000000,-1,-1.699158,0.461975,-0.498486,0.295254,-0.173264,-0.272115
"2019-05-05 23:00:19.998 +0000",1557097219.998044,0.984797,-1.366809,-3.100689,0.168777,0.979267,-0.112030,0.000000,0.000000,0.000000,-1,-1.750737,0.097921,-0.474187,0.164383,-0.015354,-0.161300
"2019-05-05 23:00:20.020 +0000",1557097220.020369,1.145767,-1.394760,-2.938440,0.159547,0.984546,-0.072214,0.000000,0.000000,0.000000,-1,-1.841971,0.096969,-0.392342,0.123992,-0.023898,-0.158087
"2019-05-05 23:00:20.043 +0000",1557097220.042661,1.381288,-1.415990,-2.706415,0.151428,0.988041,-0.029045,0.000000,0.000000,0.000000,-1,-1.940798,0.453694,-0.386867,0.118546,0.146038,-0.148155
"2019-05-05 23:00:20.065 +0000",1557097220.064955,1.674337,-1.425143,-2.430125,0.144362,0.989411,0.015001,0.000000,0.000000,0.000000,-1,-1.770461,1.151758,-0.259012,0.182741,0.178634,-0.181841
"2019-05-05 23:00:20.087 +0000",1557097220.087261,1.921099,-1.421866,-2.211162,0.139369,0.988930,0.050922,0.000000,0.000000,0.000000,-1,-1.179202,1.370041,-0.182543,0.245946,0.160102,-0.186542
"2019-05-05 23:00:20.110 +0000",1557097220.109556,2.089684,-1.421173,-2.067493,0.129444,0.988827,0.073924,0.000000,0.000000,0.000000,-1,-0.811948,1.024534,-0.498137,0.119869,0.049961,-0.131038
"2019-05-05 23:00:20.132 +0000",1557097220.131879,2.279091,-1.418761,-1.886440,0.115022,0.988465,0.098524,0.000000,0.000000,0.000000,-1,-1.232221,-0.058729,-0.640048,0.095671,-0.057877,-0.291929
"2019-05-05 23:00:20.154 +0000",1557097220.154155,2.477797,-1.405609,-1.668468,0.101311,0.986388,0.129520,0.000000,0.000000,0.000000,-1,-1.711252,-0.918088,-0.771565,0.062110,-0.047255,-0.441089
"2019-05-05 23:00:20.176 +0000",1557097220.176463,2.674026,-1.381055,-1.450663,0.085007,0.982053,0.168362,0.000000,0.000000,0.000000,-1,-1.807169,-0.832630,-0.929914,-0.053559,-0.007611,-0.358822
"2019-05-05 23:00:20.199 +0000",1557097220.198771,2.833987,-1.351047,-1.269017,0.066001,0.975952,0.207753,0.000000,0.000000,0.000000,-1,-1.961850,-0.850281,-1.024104,-0.091544,0.003723,-0.316761
"2019-05-05 23:00:20.221 +0000",1557097220.221080,2.933619,-1.314074,-1.138228,0.052427,0.967227,0.248441,0.000000,0.000000,0.000000,-1,-1.873770,-1.421633,-0.860205,-0.027220,0.001477,-0.326932
"2019-05-05 23:00:20.243 +0000",1557097220.243387,2.985058,-1.281372,-1.045902,0.044493,0.958408,0.281912,0.000000,0.000000,0.000000,-1,-1.485045,-1.837107,-0.820375,0.019136,-0.054172,-0.289419
"2019-05-05 23:00:20.266 +0000",1557097220.265689,3.008826,-1.259175,-0.973797,0.040587,0.951838,0.303904,0.000000,0.000000,0.000000,-1,-0.869250,-2.054586,-0.804563,-0.063628,-0.099146,-0.022792
"2019-05-05 23:00:20.288 +0000",1557097220.287973,3.019662,-1.247573,-0.917099,0.038632,0.948217,0.315266,0.000000,0.000000,0.000000,-1,-0.501072,-1.849737,-0.678448,-0.102811,-0.082799,0.064067
"2019-05-05 23:00:20.310 +0000",1557097220.310282,3.024157,-1.237712,-0.867512,0.038308,0.945038,0.324708,0.000000,0.000000,0.000000,-1,-0.570123,-1.999807,-0.668462,-0.197091,-0.001557,0.130462
"2019-05-05 23:00:20.333 +0000",1557097220.332576,3.018900,-1.225644,-0.815284,0.041408,0.941024,0.335796,0.000000,0.000000,0.000000,-1,-0.647355,-2.738133,-0.720247,-0.234294,0.072038,-0.053295
"2019-05-05 23:00:20.355 +0000",1557097220.354897,2.998144,-1.212748,-0.765743,0.050099,0.936582,0.346848,0.000000,0.000000,0.000000,-1,-0.706267,-3.115530,-0.646211,-0.218907,0.093691,-0.080002
"2019-05-05 23:00:20.377 +0000",1557097220.377205,2.972796,-1.197226,-0.718846,0.061309,0.931030,0.359755,0.000000,0.000000,0.000000,-1,-0.850423,-3.072475,-0.630528,-0.163985,0.110367,-0.101241
"2019-05-05 23:00:20.399 +0000",1557097220.399487,2.948385,-1.181779,-0.671250,0.072825,0.925282,0.372222,0.000000,0.000000,0.000000,-1,-0.789178,-3.151334,-0.670739,-0.074320,0.048335,-0.188476
"2019-05-05 23:00:20.422 +0000",1557097220.421803,2.919350,-1.174231,-0.624462,0.085137,0.922393,0.376753,0.000000,0.000000,0.000000,-1,-0.566289,-3.179894,-0.764664,0.042854,0.015656,-0.281508
"2019-05-05 23:00:20.444 +0000",1557097220.444098,2.900978,-1.169101,-0.576132,0.093170,0.920400,0.379716,0.000000,0.000000,0.000000,-1,-0.347581,-2.578218,-0.755025,0.056732,0.018153,-0.298127
"2019-05-05 23:00:20.466 +0000",1557097220.466406,2.889482,-1.167374,-0.532037,0.097925,0.919723,0.380158,0.000000,0.000000,0.000000,-1,-0.225582,-2.254536,-0.729314,0.021490,0.016968,-0.329178
"2019-05-05 23:00:20.489 +0000",1557097220.488714,2.882407,-1.166465,-0.486386,0.100827,0.919366,0.380264,0.000000,0.000000,0.000000,-1,-0.267249,-2.184739,-0.808105,-0.005231,-0.053872,-0.288986
"2019-05-05 23:00:20.511 +0000",1557097220.510992,2.878372,-1.164403,-0.436475,0.102853,0.918553,0.381683,0.000000,0.000000,0.000000,-1,-0.346390,-2.294296,-0.818331,0.005713,-0.079289,-0.240326
"2019-05-05 23:00:20.533 +0000",1557097220.533299,2.865010,-1.162227,-0.391997,0.108490,0.917690,0.382198,0.000000,0.000000,0.000000,-1,-0.238107,-2.528670,-0.678504,0.071487,-0.093044,-0.119167
"2019-05-05 23:00:20.556 +0000",1557097220.555607,2.838041,-1.164048,-0.359001,0.118257,0.918412,0.377538,0.000000,0.000000,0.000000,-1,0.021998,-2.537964,-0.565421,0.040587,-0.134797,-0.073598
"2019-05-05 23:00:20.578 +0000",1557097220.577909,2.811744,-1.174206,-0.329408,0.125114,0.922384,0.365452,0.000000,0.000000,0.000000,-1,0.431863,-2.379493,-0.667136,-0.015816,-0.132085,-0.123768
"2019-05-05 23:00:20.600 +0000",1557097220.600218,2.775521,-1.192965,-0.307694,0.132050,0.929467,0.344462,0.000000,0.000000,0.000000,-1,0.770720,-2.627506,-0.580433,-0.052170,-0.106499,-0.096003
"2019-05-05 23:00:20.623 +0000",1557097220.622528,2.734244,-1.209406,-0.300233,0.140078,0.935406,0.324644,0.000000,0.000000,0.000000,-1,0.481598,-1.700136,-0.273691,0.058103,0.698841,-0.114683
"2019-05-05 23:00:20.645 +0000",1557097220.644809,2.713867,-1.210731,-0.288208,0.146149,0.935874,0.320594,0.000000,0.000000,0.000000,-1,-0.449847,-1.427106,-0.188435,0.131164,0.820596,-0.028694
"2019-05-05 23:00:20.667 +0000",1557097220.667117,2.723408,-1.192099,-0.247375,0.150140,0.929147,0.337852,0.000000,0.000000,0.000000,-1,-1.181296,-1.119003,-0.280802,0.151343,0.602118,0.104867
"2019-05-05 23:00:20.689 +0000",1557097220.689424,2.726254,-1.180291,-0.216369,0.153595,0.924717,0.348292,0.000000,0.000000,0.000000,-1,-0.215362,-1.297998,-0.229178,0.304306,-0.224339,-0.360850
"2019-05-05 23:00:20.712 +0000",1557097220.711733,2.661358,-1.193152,-0.239425,0.170350,0.929536,0.327024,0.000000,0.000000,0.000000,-1,1.097142,-2.302666,0.359635,0.431930,-0.819169,-0.518491
"2019-05-05 23:00:20.734 +0000",1557097220.734040,2.533068,-1.210688,-0.325078,0.201438,0.935859,0.289122,0.000000,0.000000,0.000000,-1,1.478662,-1.942198,0.963223,0.371361,-0.442923,-0.259245
"2019-05-05 23:00:20.756 +0000",1557097220.756318,2.386451,-1.222501,-0.443711,0.233921,0.939956,0.248523,0.000000,0.000000,0.000000,-1,1.672591,-1.426295,1.062932,0.103176,0.053513,-0.207019
"2019-05-05 23:00:20.779 +0000",1557097220.778617,2.245739,-1.234755,-0.564664,0.257452,0.944067,0.206047,0.000000,0.000000,0.000000,-1,1.639981,-1.072210,0.696297,-0.355261,0.378397,-0.220756
"2019-05-05 23:00:20.801 +0000",1557097220.800932,2.132066,-1.239473,-0.664801,0.275388,0.945613,0.173142,0.000000,0.000000,0.000000,-1,1.131098,-0.801604,0.744539,-0.417295,0.132589,-0.156586
"2019-05-05 23:00:20.823 +0000",1557097220.823228,2.030689,-1.245084,-0.744007,0.286737,0.947423,0.142025,0.000000,0.000000,0.000000,-1,0.548876,-1.516410,1.101699,-0.402872,0.026362,-0.232754
"2019-05-05 23:00:20.846 +0000",1557097220.845550,1.965839,-1.222159,-0.762511,0.315306,0.939839,0.131471,0.000000,0.000000,0.000000,-1,-0.626632,-2.461188,0.907374,-0.431029,0.183406,-0.259644
"2019-05-05 23:00:20.868 +0000",1557097220.867827,1.948629,-1.201291,-0.712396,0.335681,0.932506,0.133232,0.000000,0.000000,0.000000,-1,-1.187362,-3.109248,0.391859,-0.432040,0.411045,-0.177238
"2019-05-05 23:00:20.890 +0000",1557097220.890134,1.915555,-1.192476,-0.662550,0.347626,0.929286,0.124832,0.000000,0.000000,0.000000,-1,-0.723384,-3.795073,-0.140249,-0.432450,0.224950,-0.266816
"2019-05-05 23:00:20.912 +0000",1557097220.912443,1.873213,-1.195786,-0.618623,0.349660,0.930504,0.109089,0.000000,0.000000,0.000000,-1,-0.642955,-3.609221,-0.442075,-0.369512,0.164070,-0.347843
"2019-05-05 23:00:20.935 +0000",1557097220.934751,1.833376,-1.204973,-0.579470,0.345457,0.933830,0.092854,0.000000,0.000000,0.000000,-1,-0.485192,-3.238168,-0.576789,-0.267897,0.106759,-0.430882
"2019-05-05 23:00:20.957 +0000",1557097220.957058,1.789810,-1.219132,-0.557128,0.336232,0.938801,0.074840,0.000000,0.000000,0.000000,-1,-0.124106,-2.714469,-0.706570,-0.129064,0.006329,-0.440761
"2019-05-05 23:00:20.979 +0000",1557097220.979368,1.730097,-1.235179,-0.555339,0.325182,0.944207,0.052244,0.000000,0.000000,0.000000,-1,0.248569,-2.828515,-0.654536,-0.005037,-0.078118,-0.387404
"2019-05-05 23:00:21.002 +0000",1557097221.001641,1.644769,-1.244626,-0.571674,0.319541,0.947276,0.023680,0.000000,0.000000,0.000000,-1,0.257384,-3.264942,-0.264850,0.307656,-0.144573,-0.263899
"2019-05-05 23:00:21.024 +0000",1557097221.023952,1.563095,-1.242351,-0.580827,0.322562,0.946545,-0.002484,0.000000,0.000000,0.000000,-1,-0.095920,-3.200797,0.138857,0.278314,-0.093625,-0.206195
"2019-05-05 23:00:21.046 +0000",1557097221.046273,1.508766,-1.235961,-0.565963,0.327981,0.944465,-0.020371,0.000000,0.000000,0.000000,-1,-0.317034,-3.007020,0.329331,0.005652,0.025872,-0.307281
"2019-05-05 23:00:21.069 +0000",1557097221.068569,1.467069,-1.228366,-0.539314,0.333973,0.941941,-0.034767,0.000000,0.000000,0.000000,-1,-0.356992,-2.968755,0.367431,-0.073505,0.043365,-0.297951
"2019-05-05 23:00:21.091 +0000",1557097221.090875,1.420374,-1.222000,-0.522408,0.337908,0.939785,-0.051216,0.000000,0.000000,0.000000,-1,-0.120041,-2.665119,0.286683,-0.125994,0.056339,-0.220269
"2019-05-05 23:00:21.113 +0000",1557097221.113154,1.368976,-1.216209,-0.520144,0.340156,0.937790,-0.069598,0.000000,0.000000,0.000000,-1,0.058199,-2.281367,0.252339,-0.119743,0.038605,-0.191999
"2019-05-05 23:00:21.135 +0000",1557097221.135461,1.320239,-1.210162,-0.520196,0.341850,0.935673,-0.087491,0.000000,0.000000,0.000000,-1,0.048351,-2.126295,0.272048,-0.126212,0.009273,-0.184008
"2019-05-05 23:00:21.158 +0000",1557097221.157770,1.280334,-1.203764,-0.515556,0.343815,0.933397,-0.102772,0.000000,0.000000,0.000000,-1,-0.030340,-1.886289,0.313303,-0.060948,0.049971,-0.151501
"2019-05-05 23:00:21.180 +0000",1557097221.180077,1.253649,-1.196949,-0.501759,0.346987,0.930929,-0.113890,0.000000,0.000000,0.000000,-1,-0.171678,-1.732297,0.386308,-0.056582,0.060068,-0.133897
"2019-05-05 23:00:21.202 +0000",1557097221.202384,1.234269,-1.189511,-0.481540,0.351241,0.928187,-0.122876,0.000000,0.000000,0.000000,-1,-0.235303,-1.704950,0.466673,-0.075316,0.057988,-0.112613
"2019-05-05 23:00:21.225 +0000",1557097221.224676,1.219183,-1.180463,-0.457361,0.357217,0.924782,-0.131048,0.000000,0.000000,0.000000,-1,-0.242505,-1.665307,0.539510,-0.083703,0.009544,0.017400
"2019-05-05 23:00:21.247 +0000",1557097221.246970,1.205410,-1.170708,-0.433386,0.363788,0.921026,-0.139172,0.000000,0.000000,0.000000,-1,-0.231068,-1.561895,0.558445,-0.128161,0.006311,0.051053
"2019-05-05 23:00:21.269 +0000",1557097221.269279,1.193823,-1.160688,-0.410955,0.370712,0.917078,-0.146768,0.000000,0.000000,0.000000,-1,-0.188272,-1.370003,0.566656,-0.214966,0.007101,0.062539
"2019-05-05 23:00:21.292 +0000",1557097221.291587,1.182890,-1.150162,-0.392082,0.378002,0.912830,-0.154455,0.000000,0.000000,0.000000,-1,-0.096621,-1.210069,0.560314,-0.236934,0.025006,0.048132
"2019-05-05 23:00:21.314 +0000",1557097221.313894,1.169557,-1.139226,-0.378585,0.385075,0.908310,-0.163370,0.000000,0.000000,0.000000,-1,-0.013827,-1.137495,0.549781,-0.166112,0.039520,0.051600
"2019-05-05 23:00:21.336 +0000",1557097221.336202,1.153380,-1.127743,-0.366771,0.391891,0.903447,-0.173795,0.000000,0.000000,0.000000,-1,0.001246,-1.269010,0.577006,-0.098694,0.021510,0.107755
"2019-05-05 23:00:21.358 +0000",1557097221.358480,1.133748,-1.115653,-0.354787,0.398272,0.898198,-0.186065,0.000000,0.000000,0.000000,-1,0.027561,-1.403024,0.593093,-0.077425,0.023006,0.188460
"2019-05-05 23:00:21.381 +0000",1557097221.380788,1.114639,-1.102885,-0.344713,0.404907,0.892512,-0.198677,0.000000,0.000000,0.000000,-1,0.091814,-1.117519,0.614157,-0.055557,0.084539,0.362251
"2019-05-05 23:00:21.403 +0000",1557097221.403095,1.102471,-1.089744,-0.333700,0.412890,0.886509,-0.208865,0.000000,0.000000,0.000000,-1,-0.010878,-0.966196,0.628897,-0.104265,0.243786,0.373996
"2019-05-05 23:00:21.425 +0000",1557097221.425404,1.105881,-1.080939,-0.303045,0.420561,0.882400,-0.210947,0.000000,0.000000,0.000000,-1,-0.683253,-1.134945,0.646234,-0.206175,0.485551,0.371180
"2019-05-05 23:00:21.448 +0000",1557097221.447703,1.137591,-1.078862,-0.234899,0.428700,0.881421,-0.198276,0.000000,0.000000,0.000000,-1,-1.597312,-1.373486,0.774495,-0.384480,0.437167,0.346347
"2019-05-05 23:00:21.470 +0000",1557097221.469989,1.197362,-1.079600,-0.129713,0.439173,0.881769,-0.172076,0.000000,0.000000,0.000000,-1,-2.276910,-1.487859,0.857095,-0.451792,0.289496,0.404651
"2019-05-05 23:00:21.492 +0000",1557097221.492298,1.274591,-1.080961,-0.010380,0.449991,0.882410,-0.137330,0.000000,0.000000,0.000000,-1,-2.440249,-1.037013,0.714082,-0.288004,0.162786,0.477845
"2019-05-05 23:00:21.515 +0000",1557097221.514614,1.364286,-1.082022,0.105915,0.459567,0.882909,-0.096278,0.000000,0.000000,0.000000,-1,-2.322866,-0.352710,0.469874,-0.121234,0.110026,0.428920
"2019-05-05 23:00:21.537 +0000",1557097221.536913,1.453822,-1.083547,0.211124,0.464997,0.883624,-0.054642,0.000000,0.000000,0.000000,-1,-2.105580,-0.110123,0.191173,-0.166642,0.124417,0.187028
"2019-05-05 23:00:21.559 +0000",1557097221.559220,1.535042,-1.086235,0.305211,0.465523,0.884879,-0.016651,0.000000,0.000000,0.000000,-1,-1.927257,-0.066784,-0.073370,-0.284813,0.220528,-0.103191
"2019-05-05 23:00:21.581 +0000",1557097221.581499,1.613562,-1.090736,0.398435,0.461410,0.886967,0.019745,0.000000,0.000000,0.000000,-1,-1.934573,-0.351758,-0.281736,-0.344040,0.279720,-0.294571
"2019-05-05 23:00:21.604 +0000",1557097221.603806,1.667845,-1.097835,0.483408,0.453381,0.890223,0.044139,0.000000,0.000000,0.000000,-1,-1.526201,-1.385948,-0.549021,-0.376980,0.168218,-0.539851
"2019-05-05 23:00:21.626 +0000",1557097221.626113,1.695222,-1.110436,0.554138,0.440836,0.895892,0.055136,0.000000,0.000000,0.000000,-1,-1.307832,-1.463158,-0.816199,-0.364451,0.173032,-0.446631
"2019-05-05 23:00:21.648 +0000",1557097221.648410,1.736408,-1.128378,0.617561,0.422269,0.903719,0.070579,0.000000,0.000000,0.000000,-1,-0.930407,-0.228850,-1.056494,-0.342435,0.127791,-0.317497
"2019-05-05 23:00:21.671 +0000",1557097221.670705,1.778445,-1.150794,0.652871,0.399003,0.913088,0.084064,0.000000,0.000000,0.000000,-1,-0.144852,0.758973,-1.140599,-0.185060,0.072645,-0.284916
"2019-05-05 23:00:21.693 +0000",1557097221.693037,1.810640,-1.181929,0.667247,0.368287,0.925339,0.090065,0.000000,0.000000,0.000000,-1,-0.071617,0.691930,-1.626264,-0.106157,0.105453,-0.291008
"2019-05-05 23:00:21.715 +0000",1557097221.715317,1.881479,-1.208546,0.767144,0.337414,0.935102,0.108337,0.000000,0.000000,0.000000,-1,-1.978217,-2.369928,-1.417542,0.053455,0.145449,-0.482833
"2019-05-05 23:00:21.738 +0000",1557097221.737607,1.957492,-1.220140,0.916100,0.318150,0.939147,0.129550,0.000000,0.000000,0.000000,-1,-1.876140,-2.673085,-1.249816,-0.083057,0.114075,-0.159030
"2019-05-05 23:00:21.760 +0000",1557097221.759931,2.029570,-1.228036,1.048823,0.301335,0.941831,0.148836,0.000000,0.000000,0.000000,-1,-1.636891,-2.171762,-1.107780,-0.057286,0.103580,-0.089510
"2019-05-05 23:00:21.782 +0000",1557097221.782239,2.095194,-1.229687,1.170437,0.289580,0.942384,0.167498,0.000000,0.000000,0.000000,-1,-1.530491,-2.307196,-0.831132,0.112199,0.036345,-0.132692
"2019-05-05 23:00:21.805 +0000",1557097221.804547,2.142025,-1.228855,1.278313,0.282081,0.942105,0.181295,0.000000,0.000000,0.000000,-1,-1.288376,-2.461967,-0.798640,0.124413,0.063083,-0.161870
"2019-05-05 23:00:21.827 +0000",1557097221.826826,2.177375,-1.228843,1.372680,0.275506,0.942102,0.191157,0.000000,0.000000,0.000000,-1,-1.151640,-2.366008,-0.811839,0.053855,0.054297,-0.105631
"2019-05-05 23:00:21.849 +0000",1557097221.849133,2.217337,-1.229927,1.467650,0.266834,0.942464,0.201396,0.000000,0.000000,0.000000,-1,-1.124285,-2.089619,-0.917246,-0.033558,0.066706,-0.073237
"2019-05-05 23:00:21.871 +0000",1557097221.871429,2.268690,-1.229902,1.568273,0.256163,0.942456,0.214842,0.000000,0.000000,0.000000,-1,-1.204472,-1.879346,-0.930311,-0.107985,0.068805,-0.103849
"2019-05-05 23:00:21.894 +0000",1557097221.893728,2.323208,-1.226628,1.667592,0.246326,0.941356,0.230589,0.000000,0.000000,0.000000,-1,-1.210370,-1.756059,-0.859457,-0.093678,-0.017711,-0.198012
"2019-05-05 23:00:21.916 +0000",1557097221.916056,2.369349,-1.222174,1.756418,0.238352,0.939844,0.244707,0.000000,0.000000,0.000000,-1,-1.038077,-1.595746,-0.776449,-0.075495,-0.067209,-0.179216
"2019-05-05 23:00:21.938 +0000",1557097221.938334,2.407110,-1.219229,1.831259,0.230798,0.938834,0.255584,0.000000,0.000000,0.000000,-1,-0.785605,-1.380172,-0.727393,-0.038430,-0.135459,-0.126128
"2019-05-05 23:00:21.961 +0000",1557097221.960635,2.435463,-1.218570,1.891074,0.223861,0.938607,0.262495,0.000000,0.000000,0.000000,-1,-0.545576,-1.164508,-0.653531,0.033951,-0.209557,-0.042646
"2019-05-05 23:00:21.983 +0000",1557097221.982950,2.457766,-1.220044,1.939284,0.217077,0.939114,0.266349,0.000000,0.000000,0.000000,-1,-0.364581,-0.977219,-0.594330,0.033564,-0.225736,-0.028647
"2019-05-05 23:00:22.005 +0000",1557097222.005257,2.476985,-1.223460,1.981898,0.209939,0.940283,0.267945,0.000000,0.000000,0.000000,-1,-0.255562,-0.928102,-0.629454,-0.034768,-0.248724,0.015121
"2019-05-05 23:00:22.028 +0000",1557097222.027566,2.495199,-1.229452,2.026105,0.201626,0.942306,0.267221,0.000000,0.000000,0.000000,-1,-0.150794,-1.162201,-0.736499,-0.142163,-0.211913,0.047812
"2019-05-05 23:00:22.050 +0000",1557097222.049874,2.505374,-1.239064,2.071601,0.193506,0.945480,0.261962,0.000000,0.000000,0.000000,-1,-0.003532,-1.689015,-0.832243,-0.205439,-0.098571,0.088808
"2019-05-05 23:00:22.072 +0000",1557097222.072153,2.504431,-1.249811,2.118193,0.187697,0.948925,0.253597,0.000000,0.000000,0.000000,-1,-0.047572,-2.141567,-0.789788,-0.195708,-0.054851,0.243214
"2019-05-05 23:00:22.094 +0000",1557097222.094460,2.498841,-1.255996,2.159327,0.185591,0.950858,0.247841,0.000000,0.000000,0.000000,-1,-0.145326,-1.855129,-0.509529,-0.211256,-0.074470,0.426705
"2019-05-05 23:00:22.117 +0000",1557097222.116767,2.492928,-1.257394,2.189611,0.186249,0.951290,0.245679,0.000000,0.000000,0.000000,-1,-0.245871,-1.402996,-0.326264,-0.103638,-0.137554,0.379504
"2019-05-05 23:00:22.139 +0000",1557097222.139075,2.492737,-1.254325,2.223289,0.188059,0.950340,0.247968,0.000000,0.000000,0.000000,-1,-0.496551,-1.562740,-0.253002,-0.084788,-0.074027,0.481936
"2019-05-05 23:00:22.161 +0000",1557097222.161383,2.487364,-1.246808,2.259578,0.193731,0.947973,0.252616,0.000000,0.000000,0.000000,-1,-0.524075,-1.849123,-0.187204,-0.086111,0.372355,0.581383
"2019-05-05 23:00:22.184 +0000",1557097222.183661,2.469355,-1.240039,2.278286,0.202240,0.945797,0.254102,0.000000,0.000000,0.000000,-1,-0.329424,-1.242795,0.074214,-0.050736,0.768620,-0.022992
"2019-05-05 23:00:22.206 +0000",1557097222.205969,2.482548,-1.239303,2.301521,0.199297,0.945557,0.257298,0.000000,0.000000,0.000000,-1,-0.141390,0.039435,-0.477964,0.064833,0.194808,-0.286229
"2019-05-05 23:00:22.228 +0000",1557097222.228276,2.489005,-1.262358,2.307241,0.184342,0.952809,0.241192,0.000000,0.000000,0.000000,-1,1.406568,-0.146642,-0.731200,0.213958,-0.491978,-0.540661
"2019-05-05 23:00:22.251 +0000",1557097222.250586,2.420182,-1.298301,2.233456,0.177749,0.963102,0.202087,0.000000,0.000000,0.000000,-1,1.840609,0.502553,0.091904,0.365556,-0.680021,-0.426284
"2019-05-05 23:00:22.273 +0000",1557097222.272892,2.311999,-1.314925,2.094775,0.186692,0.967443,0.170879,0.000000,0.000000,0.000000,-1,1.679950,1.287777,0.861419,0.238158,0.080271,-0.495433
"2019-05-05 23:00:22.295 +0000",1557097222.295169,2.158329,-1.326290,1.914933,0.201484,0.970257,0.134186,0.000000,0.000000,0.000000,-1,1.993950,0.832250,0.731619,0.123696,0.212879,-0.491440
"2019-05-05 23:00:22.317 +0000",1557097222.317478,1.997252,-1.336552,1.725779,0.211320,0.972690,0.096011,0.000000,0.000000,0.000000,-1,1.948017,1.069991,0.501229,-0.040788,0.162747,-0.263705
"2019-05-05 23:00:22.340 +0000",1557097222.339785,1.821216,-1.342475,1.525055,0.219283,0.974048,0.056090,0.000000,0.000000,0.000000,-1,2.086668,0.735115,0.414942,-0.067763,-0.000323,-0.325225
"2019-05-05 23:00:22.362 +0000",1557097222.362093,1.641792,-1.341013,1.328183,0.227193,0.973716,0.016157,0.000000,0.000000,0.000000,-1,1.812847,0.471562,0.367543,-0.098195,0.037927,-0.236036
"2019-05-05 23:00:22.384 +0000",1557097222.384401,1.518489,-1.333341,1.185954,0.234908,0.971940,-0.012299,0.000000,0.000000,0.000000,-1,1.303908,0.881032,0.378577,-0.064498,0.081298,-0.112030
"2019-05-05 23:00:22.407 +0000",1557097222.406703,1.439537,-1.320523,1.075872,0.245538,0.968845,-0.032415,0.000000,0.000000,0.000000,-1,1.244448,1.404193,0.474390,0.050162,0.042355,0.006872
"2019-05-05 23:00:22.429 +0000",1557097222.428986,1.370089,-1.306260,0.973223,0.256214,0.965214,-0.052126,0.000000,0.000000,0.000000,-1,1.255300,1.182500,0.404411,0.039899,0.050777,0.086656
"2019-05-05 23:00:22.451 +0000",1557097222.451295,1.304409,-1.291819,0.886980,0.265660,0.961338,-0.072491,0.000000,0.000000,0.000000,-1,1.064172,0.509517,0.402860,0.006877,-0.021305,0.122082
"2019-05-05 23:00:22.474 +0000",1557097222.473599,1.247979,-1.275079,0.828988,0.276373,0.956593,-0.092452,0.000000,0.000000,0.000000,-1,0.850949,-0.328979,0.547912,-0.044073,-0.031804,0.076812
"2019-05-05 23:00:22.496 +0000",1557097222.495895,1.202620,-1.258972,0.794918,0.286235,0.951776,-0.110420,0.000000,0.000000,0.000000,-1,0.558198,-0.636904,0.479809,-0.186077,0.055579,0.024589
"2019-05-05 23:00:22.518 +0000",1557097222.518219,1.167996,-1.247369,0.771909,0.292382,0.948152,-0.124583,0.000000,0.000000,0.000000,-1,0.509957,-0.496094,0.314787,-0.229775,0.056685,0.019618
"2019-05-05 23:00:22.540 +0000",1557097222.540496,1.135294,-1.235671,0.741829,0.298189,0.944369,-0.138746,0.000000,0.000000,0.000000,-1,0.675672,-0.005376,0.267083,-0.221208,0.036939,0.050856
"2019-05-05 23:00:22.563 +0000",1557097222.562803,1.097188,-1.225185,0.699572,0.301482,0.940869,-0.154514,0.000000,0.000000,0.000000,-1,0.828066,0.112104,0.091190,-0.184142,0.036045,0.020984
"2019-05-05 23:00:22.585 +0000",1557097222.585112,1.054110,-1.215278,0.648233,0.302639,0.937466,-0.171950,0.000000,0.000000,0.000000,-1,0.955685,0.328217,-0.024804,-0.109646,0.028354,0.092193
"2019-05-05 23:00:22.607 +0000",1557097222.607420,1.016126,-1.203927,0.595186,0.304917,0.933455,-0.188911,0.000000,0.000000,0.000000,-1,0.966184,0.654442,0.034332,-0.073472,-0.016051,0.158546
"2019-05-05 23:00:22.630 +0000",1557097222.629728,0.994614,-1.192079,0.551686,0.310036,0.929140,-0.201438,0.000000,0.000000,0.000000,-1,0.832334,0.936254,0.076432,-0.085198,-0.030992,0.142341
"2019-05-05 23:00:22.652 +0000",1557097222.652005,0.983696,-1.180878,0.516697,0.316463,0.924940,-0.210563,0.000000,0.000000,0.000000,-1,0.738436,0.944988,0.118493,-0.083339,-0.003294,0.051231
"2019-05-05 23:00:22.674 +0000",1557097222.674314,0.972728,-1.168313,0.484509,0.323714,0.920091,-0.220548,0.000000,0.000000,0.000000,-1,0.817538,0.754545,0.169839,-0.088180,0.033736,0.017957
"2019-05-05 23:00:22.697 +0000",1557097222.696607,0.952565,-1.153383,0.450186,0.330360,0.914141,-0.234966,0.000000,0.000000,0.000000,-1,0.929115,0.335325,0.225711,-0.090065,0.073622,0.099285
"2019-05-05 23:00:22.719 +0000",1557097222.718928,0.922562,-1.135184,0.416225,0.336370,0.906612,-0.254774,0.000000,0.000000,0.000000,-1,1.013230,-0.128037,0.321660,-0.142218,0.042348,0.178267
"2019-05-05 23:00:22.741 +0000",1557097222.741238,0.894177,-1.116469,0.389117,0.342175,0.898556,-0.274796,0.000000,0.000000,0.000000,-1,0.832672,-0.108379,0.335054,-0.179639,0.065723,0.227799
"2019-05-05 23:00:22.764 +0000",1557097222.763514,0.887257,-1.102349,0.373701,0.350068,0.892270,-0.285142,0.000000,0.000000,0.000000,-1,0.551923,0.580154,0.274238,-0.257982,0.158877,0.245927
"2019-05-05 23:00:22.786 +0000",1557097222.785822,0.889690,-1.089943,0.356636,0.359334,0.886600,-0.291237,0.000000,0.000000,0.000000,-1,0.707149,0.822107,0.156787,-0.310795,0.270214,0.092369
"2019-05-05 23:00:22.808 +0000",1557097222.808130,0.880157,-1.077475,0.325521,0.365033,0.880765,-0.301668,0.000000,0.000000,0.000000,-1,0.935770,0.800430,-0.066220,-0.308606,0.249179,0.096758
"2019-05-05 23:00:22.830 +0000",1557097222.830438,0.859752,-1.064652,0.283095,0.367330,0.874620,-0.316398,0.000000,0.000000,0.000000,-1,1.148505,0.709070,-0.174486,-0.215825,0.200163,0.168098
"2019-05-05 23:00:22.853 +0000",1557097222.852753,0.832481,-1.052201,0.239818,0.366592,0.868516,-0.333601,0.000000,0.000000,0.000000,-1,0.966202,0.322574,-0.213311,-0.097778,0.124861,0.379515
"2019-05-05 23:00:22.875 +0000",1557097222.875053,0.818409,-1.043410,0.213391,0.367422,0.864125,-0.343931,0.000000,0.000000,0.000000,-1,0.566918,0.516223,-0.036563,-0.035787,0.162517,0.513334
"2019-05-05 23:00:22.897 +0000",1557097222.897330,0.824230,-1.035607,0.200173,0.374356,0.860172,-0.346355,0.000000,0.000000,0.000000,-1,0.392072,0.864779,0.091765,-0.108884,0.215069,0.440456
"2019-05-05 23:00:22.920 +0000",1557097222.919658,0.838027,-1.031564,0.197761,0.381681,0.858103,-0.343481,0.000000,0.000000,0.000000,-1,-0.022111,0.614808,0.072717,-0.319333,0.326864,0.367300
"2019-05-05 23:00:22.942 +0000",1557097222.941948,0.859637,-1.038671,0.203839,0.384384,0.861731,-0.331164,0.000000,0.000000,0.000000,-1,-0.393461,0.829771,-0.286626,-0.500884,0.512552,0.225940
"2019-05-05 23:00:22.964 +0000",1557097222.964256,0.872927,-1.052038,0.204266,0.379890,0.868435,-0.318596,0.000000,0.000000,0.000000,-1,-0.411255,0.260392,-0.555739,-0.542656,0.421024,-0.009132
"2019-05-05 23:00:22.987 +0000",1557097222.986563,0.867494,-1.073951,0.202927,0.363550,0.879090,-0.308272,0.000000,0.000000,0.000000,-1,-0.784230,-0.299493,-0.875950,-0.381708,0.180724,0.178145
"2019-05-05 23:00:23.009 +0000",1557097223.008841,0.879949,-1.106479,0.217566,0.345132,0.894127,-0.285342,0.000000,0.000000,0.000000,-1,-1.416318,0.242484,-0.941818,0.071677,0.099922,0.427005
"2019-05-05 23:00:23.031 +0000",1557097223.031148,0.933069,-1.147445,0.257539,0.330072,0.911717,-0.244589,0.000000,0.000000,0.000000,-1,-1.923823,1.022161,-0.948957,0.239096,-0.023808,0.235343
"2019-05-05 23:00:23.053 +0000",1557097223.053457,1.027707,-1.189813,0.333170,0.318333,0.928299,-0.192157,0.000000,0.000000,0.000000,-1,-2.231841,1.108607,-0.828283,0.431713,-0.117356,0.198764
"2019-05-05 23:00:23.076 +0000",1557097223.075758,1.142981,-1.230053,0.432165,0.304069,0.942507,-0.138649,0.000000,0.000000,0.000000,-1,-2.208239,0.994068,-0.865713,0.305932,0.219038,-0.102531
"2019-05-05 23:00:23.098 +0000",1557097223.098074,1.283188,-1.264452,0.553564,0.289188,0.953443,-0.085545,0.000000,0.000000,0.000000,-1,-2.087383,1.241636,-0.799629,0.254315,0.277759,-0.200726
"2019-05-05 23:00:23.120 +0000",1557097223.120363,1.438573,-1.286844,0.676935,0.277706,0.959956,-0.036935,0.000000,0.000000,0.000000,-1,-1.572901,1.961175,-0.563890,0.207722,0.274633,-0.330680
"2019-05-05 23:00:23.143 +0000",1557097223.142652,1.585239,-1.300823,0.771310,0.266678,0.963778,0.003852,0.000000,0.000000,0.000000,-1,-0.921449,2.810130,-0.597198,0.225067,0.223844,-0.286307
"2019-05-05 23:00:23.165 +0000",1557097223.164966,1.705935,-1.316224,0.833615,0.249535,0.967771,0.033929,0.000000,0.000000,0.000000,-1,-0.642826,2.429338,-0.802109,0.093253,0.228289,-0.152276
"2019-05-05 23:00:23.187 +0000",1557097223.187274,1.846081,-1.330112,0.958740,0.229393,0.971175,0.064793,0.000000,0.000000,0.000000,-1,-1.666423,-0.504305,-0.936537,-0.009895,0.197252,-0.289998
"2019-05-05 23:00:23.210 +0000",1557097223.209582,2.037125,-1.333146,1.175069,0.210283,0.971894,0.105847,0.000000,0.000000,0.000000,-1,-2.215160,-0.768176,-1.036154,-0.162111,0.058776,-0.075284
"2019-05-05 23:00:23.232 +0000",1557097223.231890,2.250473,-1.323746,1.407003,0.190201,0.969638,0.153707,0.000000,0.000000,0.000000,-1,-2.334821,-0.515492,-0.893305,-0.145905,-0.070804,-0.288427
"2019-05-05 23:00:23.254 +0000",1557097223.254168,2.414337,-1.301221,1.589464,0.177057,0.963884,0.198943,0.000000,0.000000,0.000000,-1,-2.110458,-0.551246,-0.619972,-0.031259,-0.193682,-0.438216
"2019-05-05 23:00:23.276 +0000",1557097223.276476,2.531405,-1.274450,1.722394,0.167338,0.956410,0.239329,0.000000,0.000000,0.000000,-1,-1.904662,-0.509222,-0.577890,0.051991,-0.217655,-0.424815
"2019-05-05 23:00:23.299 +0000",1557097223.298789,2.613215,-1.249503,1.823201,0.159202,0.948828,0.272728,0.000000,0.000000,0.000000,-1,-1.553241,-0.739999,-0.488854,0.131417,-0.260031,-0.269661
"2019-05-05 23:00:23.321 +0000",1557097223.321091,2.650182,-1.226614,1.888027,0.159222,0.941352,0.297499,0.000000,0.000000,0.000000,-1,-1.215238,-1.314643,-0.249146,0.131794,-0.246665,-0.269987
"2019-05-05 23:00:23.343 +0000",1557097223.343399,2.654289,-1.209977,1.927762,0.165310,0.935608,0.311946,0.000000,0.000000,0.000000,-1,-0.810046,-1.520967,-0.204962,0.119999,-0.233887,-0.269298
"2019-05-05 23:00:23.366 +0000",1557097223.365680,2.653573,-1.200079,1.962532,0.169867,0.932068,0.319993,0.000000,0.000000,0.000000,-1,-0.579713,-1.509018,-0.321580,0.009393,-0.207214,-0.198838
"2019-05-05 23:00:23.388 +0000",1557097223.387985,2.654700,-1.194639,1.995736,0.171876,0.930083,0.324660,0.000000,0.000000,0.000000,-1,-0.410356,-1.088487,-0.387268,-0.120240,-0.145720,-0.025130
"2019-05-05 23:00:23.410 +0000",1557097223.410293,2.670036,-1.190502,2.023393,0.168624,0.928555,0.330683,0.000000,0.000000,0.000000,-1,-0.352726,-0.137048,-0.256748,-0.184600,-0.129407,0.178991
"2019-05-05 23:00:23.433 +0000",1557097223.432601,2.682736,-1.188265,2.041112,0.165330,0.927723,0.334659,0.000000,0.000000,0.000000,-1,-0.118089,-0.334805,-0.205270,-0.152803,-0.136402,0.112988
"2019-05-05 23:00:23.455 +0000",1557097223.454908,2.678330,-1.191480,2.052304,0.165469,0.928918,0.331257,0.000000,0.000000,0.000000,-1,0.115936,-0.804829,-0.258063,-0.148623,-0.146859,0.038113
"2019-05-05 23:00:23.477 +0000",1557097223.477186,2.665041,-1.198052,2.060843,0.167052,0.931332,0.323597,0.000000,0.000000,0.000000,-1,0.235107,-1.003927,-0.222750,-0.309570,-0.043301,0.123592
"2019-05-05 23:00:23.499 +0000",1557097223.499494,2.643426,-1.204251,2.063826,0.171246,0.933571,0.314834,0.000000,0.000000,0.000000,-1,0.192540,-1.182125,-0.172805,-0.345242,0.068794,0.295152
"2019-05-05 23:00:23.522 +0000",1557097223.521792,2.623278,-1.207867,2.076332,0.175880,0.934861,0.308385,0.000000,0.000000,0.000000,-1,-0.072997,-1.555556,-0.323431,-0.209648,0.222045,0.452495
"2019-05-05 23:00:23.544 +0000",1557097223.544109,2.618032,-1.207827,2.107740,0.177514,0.934847,0.307490,0.000000,0.000000,0.000000,-1,-0.324463,-1.470173,-0.484326,-0.186425,0.201201,0.465520
"2019-05-05 23:00:23.566 +0000",1557097223.566417,2.622829,-1.207054,2.145682,0.176395,0.934572,0.308966,0.000000,0.000000,0.000000,-1,-0.305681,-1.403811,-0.503516,-0.163730,0.055174,0.414743
"2019-05-05 23:00:23.589 +0000",1557097223.588717,2.616625,-1.206815,2.179677,0.178421,0.934487,0.308059,0.000000,0.000000,0.000000,-1,-0.278164,-1.890699,-0.440876,-0.167022,-0.160164,0.202210
"2019-05-05 23:00:23.611 +0000",1557097223.611004,2.599055,-1.206488,2.210583,0.183963,0.934370,0.305138,0.000000,0.000000,0.000000,-1,-0.228031,-2.148881,-0.407550,-0.221820,-0.274748,0.103782
"2019-05-05 23:00:23.633 +0000",1557097223.633310,2.571120,-1.208228,2.232902,0.191536,0.934989,0.298513,0.000000,0.000000,0.000000,-1,-0.011376,-2.129490,-0.188053,-0.303734,-0.298407,0.308406
"2019-05-05 23:00:23.656 +0000",1557097223.655619,2.520001,-1.207660,2.202158,0.206848,0.934787,0.288767,0.000000,0.000000,0.000000,-1,0.458758,-0.312700,0.676805,-0.028168,0.189557,0.011678
"2019-05-05 23:00:23.678 +0000",1557097223.677921,2.482142,-1.205535,2.169343,0.218846,0.934030,0.282300,0.000000,0.000000,0.000000,-1,-0.084871,-0.476863,0.274854,0.725291,0.787924,0.162570
"2019-05-05 23:00:23.700 +0000",1557097223.700234,2.471516,-1.204378,2.174305,0.222504,0.933617,0.280805,0.000000,0.000000,0.000000,-1,0.151597,-0.667844,-0.148855,0.274688,0.432869,0.296557
"2019-05-05 23:00:23.723 +0000",1557097223.722526,2.435341,-1.222630,2.148939,0.221418,0.940000,0.259566,0.000000,0.000000,0.000000,-1,1.333193,-0.427618,-0.188938,0.086092,-0.658262,-0.693663
"2019-05-05 23:00:23.745 +0000",1557097223.744833,2.351216,-1.253836,2.056291,0.221485,0.950187,0.219291,0.000000,0.000000,0.000000,-1,2.226168,0.524086,0.237186,0.046414,-0.670234,-0.634284
"2019-05-05 23:00:23.767 +0000",1557097223.767128,2.222791,-1.279012,1.898644,0.228655,0.957732,0.174545,0.000000,0.000000,0.000000,-1,2.315105,1.177943,0.712750,-0.046709,-0.307967,-0.475037
"2019-05-05 23:00:23.789 +0000",1557097223.789436,2.069714,-1.288663,1.708205,0.244468,0.960464,0.133210,0.000000,0.000000,0.000000,-1,2.237609,1.404329,1.049375,-0.053031,0.070740,-0.578919
"2019-05-05 23:00:23.812 +0000",1557097223.811718,1.918704,-1.287073,1.518699,0.263160,0.960020,0.095437,0.000000,0.000000,0.000000,-1,2.095470,1.267434,0.974856,0.041710,0.137697,-0.387842
"2019-05-05 23:00:23.834 +0000",1557097223.834022,1.774973,-1.283962,1.345775,0.277041,0.959144,0.057364,0.000000,0.000000,0.000000,-1,2.007037,0.813210,0.589320,0.010450,0.034111,-0.245566
"2019-05-05 23:00:23.856 +0000",1557097223.856328,1.648973,-1.278688,1.201777,0.287092,0.957639,0.022490,0.000000,0.000000,0.000000,-1,1.607456,0.462013,0.476896,-0.017286,0.028003,-0.121717
"2019-05-05 23:00:23.879 +0000",1557097223.878637,1.568351,-1.268058,1.104853,0.298134,0.954524,-0.000729,0.000000,0.000000,0.000000,-1,1.067274,0.652753,0.553126,0.009819,0.050756,-0.136478
"2019-05-05 23:00:23.901 +0000",1557097223.900946,1.525861,-1.256084,1.039189,0.309231,0.950885,-0.013905,0.000000,0.000000,0.000000,-1,0.836219,0.945000,0.441265,0.008656,0.088681,-0.190990
"2019-05-05 23:00:23.923 +0000",1557097223.923253,1.488466,-1.245983,0.980832,0.318051,0.947710,-0.026245,0.000000,0.000000,0.000000,-1,0.902184,0.697440,0.356653,-0.047177,-0.003893,-0.123139
"2019-05-05 23:00:23.946 +0000",1557097223.945531,1.422575,-1.241911,0.904820,0.319447,0.946403,-0.047699,0.000000,0.000000,0.000000,-1,1.013629,0.059313,0.110543,-0.145084,0.053780,0.058853
"2019-05-05 23:00:23.968 +0000",1557097223.967837,1.364354,-1.238030,0.845112,0.319723,0.945142,-0.066958,0.000000,0.000000,0.000000,-1,0.738352,-0.007733,-0.019237,-0.126974,0.012454,0.118823
"2019-05-05 23:00:23.990 +0000",1557097223.990147,1.333698,-1.235941,0.806128,0.319438,0.944458,-0.077190,0.000000,0.000000,0.000000,-1,0.539201,0.439944,-0.023296,-0.099910,-0.021744,0.095302
"2019-05-05 23:00:24.012 +0000",1557097224.012454,1.308186,-1.231358,0.768989,0.321542,0.942942,-0.086437,0.000000,0.000000,0.000000,-1,0.597370,0.375256,0.102598,-0.121148,-0.018870,0.001949
"2019-05-05 23:00:24.035 +0000",1557097224.034736,1.280959,-1.225215,0.733803,0.324615,0.940879,-0.096812,0.000000,0.000000,0.000000,-1,0.629896,0.241188,0.103802,-0.194046,0.057428,-0.043752
"2019-05-05 23:00:24.057 +0000",1557097224.057039,1.245853,-1.218981,0.688128,0.326569,0.938749,-0.110016,0.000000,0.000000,0.000000,-1,0.801578,0.402152,0.036698,-0.218110,0.054690,-0.005890
"2019-05-05 23:00:24.079 +0000",1557097224.079348,1.206462,-1.212396,0.637861,0.327752,0.936459,-0.124991,0.000000,0.000000,0.000000,-1,0.840205,0.276529,-0.005589,-0.215218,0.039066,0.047232
"2019-05-05 23:00:24.102 +0000",1557097224.101656,1.166945,-1.205932,0.591505,0.328118,0.934172,-0.140218,0.000000,0.000000,0.000000,-1,0.742302,0.178078,-0.004757,-0.187416,0.042818,0.072255
"2019-05-05 23:00:24.124 +0000",1557097224.123965,1.134939,-1.199564,0.551093,0.328849,0.931881,-0.153155,0.000000,0.000000,0.000000,-1,0.731078,0.287549,-0.006974,-0.105033,0.022572,0.090670
"2019-05-05 23:00:24.146 +0000",1557097224.146269,1.100468,-1.191142,0.506329,0.330359,0.928793,-0.167948,0.000000,0.000000,0.000000,-1,0.884337,0.343151,0.039738,-0.024924,-0.008886,0.086634
"2019-05-05 23:00:24.169 +0000",1557097224.168579,1.064429,-1.179619,0.458947,0.333432,0.924461,-0.184921,0.000000,0.000000,0.000000,-1,0.971142,0.345888,0.101778,-0.007306,-0.004829,0.118942
"2019-05-05 23:00:24.191 +0000",1557097224.190857,1.031618,-1.165985,0.416772,0.337971,0.919177,-0.202212,0.000000,0.000000,0.000000,-1,0.906243,0.218317,0.203367,-0.020451,0.033704,0.180102
"2019-05-05 23:00:24.213 +0000",1557097224.213165,1.008927,-1.151690,0.386180,0.344381,0.913453,-0.216808,0.000000,0.000000,0.000000,-1,0.712188,0.288658,0.282054,-0.112387,0.024581,0.223567
"2019-05-05 23:00:24.235 +0000",1557097224.235473,1.003312,-1.140780,0.368103,0.351542,0.908959,-0.224082,0.000000,0.000000,0.000000,-1,0.456098,0.606761,0.178637,-0.256037,0.068184,0.215018
"2019-05-05 23:00:24.258 +0000",1557097224.257780,1.000106,-1.135140,0.348313,0.355129,0.906593,-0.227973,0.000000,0.000000,0.000000,-1,0.500100,0.659778,-0.113342,-0.412029,0.113930,0.026206
"2019-05-05 23:00:24.280 +0000",1557097224.280089,0.980237,-1.132062,0.308637,0.352846,0.905290,-0.236536,0.000000,0.000000,0.000000,-1,0.840151,0.813794,-0.392289,-0.332781,0.160903,-0.026190
"2019-05-05 23:00:24.302 +0000",1557097224.302366,0.956816,-1.127524,0.252064,0.350564,0.903353,-0.247099,0.000000,0.000000,0.000000,-1,1.095056,1.535792,-0.446970,-0.180551,0.142591,0.046842
"2019-05-05 23:00:24.325 +0000",1557097224.324673,0.936227,-1.118986,0.186129,0.351602,0.899658,-0.258827,0.000000,0.000000,0.000000,-1,1.349928,1.740200,-0.422624,-0.077493,0.111359,0.109596
"2019-05-05 23:00:24.347 +0000",1557097224.346993,0.914709,-1.105670,0.127914,0.355413,0.893765,-0.273616,0.000000,0.000000,0.000000,-1,1.151668,1.060171,-0.018458,0.111460,0.120914,0.262676
"2019-05-05 23:00:24.369 +0000",1557097224.369291,0.906707,-1.089883,0.103004,0.364279,0.886573,-0.285113,0.000000,0.000000,0.000000,-1,0.681084,0.499151,0.333671,0.102091,0.143685,0.299319
"2019-05-05 23:00:24.392 +0000",1557097224.391599,0.911346,-1.074775,0.093227,0.376141,0.879483,-0.291594,0.000000,0.000000,0.000000,-1,0.492233,0.669248,0.441248,-0.089978,0.198001,0.248122
"2019-05-05 23:00:24.414 +0000",1557097224.413877,0.925127,-1.064361,0.093480,0.387419,0.874479,-0.291878,0.000000,0.000000,0.000000,-1,0.196777,0.557833,0.292005,-0.473951,0.510821,0.144982
"2019-05-05 23:00:24.436 +0000",1557097224.436184,0.928042,-1.058370,0.086963,0.392455,0.871557,-0.293883,0.000000,0.000000,0.000000,-1,0.327163,0.198895,0.028531,-0.563399,0.479029,-0.019151
"2019-05-05 23:00:24.458 +0000",1557097224.458493,0.908216,-1.057348,0.071413,0.387253,0.871056,-0.302153,0.000000,0.000000,0.000000,-1,0.242656,-0.487521,-0.278028,-0.470612,0.274238,0.085082
"2019-05-05 23:00:24.481 +0000",1557097224.480800,0.896238,-1.064492,0.063689,0.378737,0.874542,-0.302876,0.000000,0.000000,0.000000,-1,-0.310594,0.046936,-0.388456,-0.004195,0.284393,0.461705
"2019-05-05 23:00:24.503 +0000",1557097224.503108,0.915549,-1.080649,0.072484,0.373261,0.882264,-0.286858,0.000000,0.000000,0.000000,-1,-0.704447,0.697111,-0.494879,-0.006699,0.283737,0.277885
"2019-05-05 23:00:24.525 +0000",1557097224.525417,0.947250,-1.102808,0.094022,0.366202,0.892478,-0.263401,0.000000,0.000000,0.000000,-1,-1.138946,0.441982,-0.573436,-0.027213,0.100503,0.029560
"2019-05-05 23:00:24.548 +0000",1557097224.547709,0.993898,-1.132077,0.136313,0.356033,0.905296,-0.231687,0.000000,0.000000,0.000000,-1,-1.576953,0.447716,-0.633220,0.146728,-0.142937,0.265119
"2019-05-05 23:00:24.570 +0000",1557097224.570000,1.069140,-1.164865,0.199914,0.346221,0.918735,-0.189887,0.000000,0.000000,0.000000,-1,-1.835231,0.892745,-0.679460,0.164155,-0.159915,0.034278
"2019-05-05 23:00:24.592 +0000",1557097224.592309,1.168106,-1.199330,0.289210,0.333947,0.931796,-0.142251,0.000000,0.000000,0.000000,-1,-2.140530,0.571287,-0.746207,0.155204,-0.117938,-0.051765
"2019-05-05 23:00:24.615 +0000",1557097224.614619,1.285152,-1.230694,0.404656,0.320067,0.942721,-0.093996,0.000000,0.000000,0.000000,-1,-2.166772,0.342710,-0.683403,0.160723,-0.040392,-0.150923
"2019-05-05 23:00:24.637 +0000",1557097224.636926,1.419141,-1.255778,0.536290,0.306278,0.950791,-0.046808,0.000000,0.000000,0.000000,-1,-2.046184,0.503968,-0.668656,0.134884,0.083954,-0.140417
"2019-05-05 23:00:24.659 +0000",1557097224.659203,1.563305,-1.272851,0.669877,0.293548,0.955942,-0.002199,0.000000,0.000000,0.000000,-1,-1.730802,0.947183,-0.610428,0.154145,0.116644,-0.223432
"2019-05-05 23:00:24.682 +0000",1557097224.681511,1.707332,-1.285994,0.787371,0.278353,0.959717,0.038243,0.000000,0.000000,0.000000,-1,-1.313049,1.661669,-0.717075,0.173140,0.254760,-0.212407
"2019-05-05 23:00:24.704 +0000",1557097224.703810,1.849946,-1.295766,0.895664,0.261063,0.962417,0.074830,0.000000,0.000000,0.000000,-1,-1.192734,1.534999,-0.720861,0.071334,0.230607,-0.366532
"2019-05-05 23:00:24.726 +0000",1557097224.726127,1.988793,-1.304768,1.026437,0.240266,0.964823,0.106720,0.000000,0.000000,0.000000,-1,-1.574910,0.149813,-1.005218,0.006941,0.218557,-0.233001
"2019-05-05 23:00:24.748 +0000",1557097224.748435,2.159468,-1.303931,1.213492,0.219321,0.964602,0.146426,0.000000,0.000000,0.000000,-1,-2.054710,-0.576315,-1.039916,-0.071219,0.137113,-0.253741
"2019-05-05 23:00:24.771 +0000",1557097224.770731,2.323023,-1.294010,1.396585,0.199530,0.961939,0.186713,0.000000,0.000000,0.000000,-1,-1.956651,-0.603111,-0.981331,-0.130499,0.003424,-0.309043
"2019-05-05 23:00:24.793 +0000",1557097224.793020,2.458113,-1.277108,1.548801,0.182808,0.957183,0.224460,0.000000,0.000000,0.000000,-1,-1.789032,-0.430182,-0.816562,-0.054772,-0.029952,-0.289005
"2019-05-05 23:00:24.815 +0000",1557097224.815330,2.558781,-1.256769,1.666542,0.170006,0.951097,0.257900,0.000000,0.000000,0.000000,-1,-1.556577,-0.561245,-0.696207,0.016182,-0.116853,-0.262874
"2019-05-05 23:00:24.838 +0000",1557097224.837638,2.624399,-1.239190,1.749069,0.160972,0.945521,0.282982,0.000000,0.000000,0.000000,-1,-1.119411,-0.582569,-0.532079,0.104500,-0.222345,-0.253548
"2019-05-05 23:00:24.860 +0000",1557097224.859945,2.659925,-1.225461,1.804434,0.156818,0.940962,0.299998,0.000000,0.000000,0.000000,-1,-0.832991,-0.889381,-0.375405,0.064144,-0.270079,-0.155436
"2019-05-05 23:00:24.882 +0000",1557097224.882222,2.672021,-1.214732,1.843843,0.157737,0.937276,0.310858,0.000000,0.000000,0.000000,-1,-0.640986,-1.170737,-0.305836,-0.002357,-0.268529,-0.102224
"2019-05-05 23:00:24.905 +0000",1557097224.904531,2.678220,-1.206798,1.876188,0.159126,0.934481,0.318472,0.000000,0.000000,0.000000,-1,-0.514031,-1.010615,-0.267506,-0.029701,-0.206118,-0.017050
"2019-05-05 23:00:24.927 +0000",1557097224.926845,2.684020,-1.199253,1.901909,0.160387,0.931768,0.325706,0.000000,0.000000,0.000000,-1,-0.475923,-0.673303,-0.207216,-0.112795,-0.150747,0.101937
"2019-05-05 23:00:24.949 +0000",1557097224.949145,2.694248,-1.192084,1.924313,0.159933,0.929141,0.333343,0.000000,0.000000,0.000000,-1,-0.432977,-0.408691,-0.178533,-0.124303,-0.129093,0.099747
"2019-05-05 23:00:24.971 +0000",1557097224.971453,2.702948,-1.186097,1.944495,0.159386,0.926911,0.339752,0.000000,0.000000,0.000000,-1,-0.362937,-0.535477,-0.207151,-0.145058,-0.051515,0.117371
"2019-05-05 23:00:24.994 +0000",1557097224.993745,2.704291,-1.182286,1.967150,0.160425,0.925475,0.343163,0.000000,0.000000,0.000000,-1,-0.296018,-1.083286,-0.315149,-0.195657,0.007234,0.123893
"2019-05-05 23:00:25.016 +0000",1557097225.016038,2.698179,-1.178891,1.993098,0.163866,0.924183,0.345012,0.000000,0.000000,0.000000,-1,-0.366566,-1.481915,-0.322805,-0.276323,-0.003361,0.163533
"2019-05-05 23:00:25.038 +0000",1557097225.038347,2.682728,-1.172376,2.017302,0.171841,0.921675,0.347830,0.000000,0.000000,0.000000,-1,-0.469195,-1.862844,-0.202857,-0.308926,-0.022108,0.235117
"2019-05-05 23:00:25.061 +0000",1557097225.060657,2.654585,-1.165385,2.038518,0.184571,0.918940,0.348544,0.000000,0.000000,0.000000,-1,-0.428083,-2.226983,-0.210772,-0.248506,0.005193,0.160368
"2019-05-05 23:00:25.083 +0000",1557097225.082962,2.626722,-1.160705,2.062094,0.196325,0.917084,0.347005,0.000000,0.000000,0.000000,-1,-0.346871,-2.213729,-0.291490,-0.152807,0.073165,0.226176
"2019-05-05 23:00:25.105 +0000",1557097225.105270,2.599535,-1.158974,2.082780,0.206504,0.916393,0.342899,0.000000,0.000000,0.000000,-1,-0.197306,-1.910961,-0.269303,-0.143897,0.005802,0.281979
"2019-05-05 23:00:25.128 +0000",1557097225.127548,2.578473,-1.161384,2.097964,0.212500,0.917355,0.336605,0.000000,0.000000,0.000000,-1,0.050037,-1.399220,-0.297309,-0.139228,-0.151150,0.274158
"2019-05-05 23:00:25.150 +0000",1557097225.149863,2.546978,-1.167294,2.094120,0.219954,0.919691,0.325251,0.000000,0.000000,0.000000,-1,0.389380,-1.086228,0.121842,0.031145,-0.025252,0.304861
"2019-05-05 23:00:25.172 +0000",1557097225.172165,2.506820,-1.171340,2.064068,0.230626,0.921273,0.313159,0.000000,0.000000,0.000000,-1,0.414604,-0.328844,0.335946,0.255580,0.471458,-0.070178
"2019-05-05 23:00:25.194 +0000",1557097225.194472,2.487204,-1.173820,2.048066,0.235333,0.922234,0.306762,0.000000,0.000000,0.000000,-1,0.218896,-0.219501,0.002426,0.404743,0.597084,-0.037642
"2019-05-05 23:00:25.217 +0000",1557097225.216762,2.475628,-1.184593,2.039266,0.232716,0.926346,0.296187,0.000000,0.000000,0.000000,-1,0.723506,-0.075067,-0.240545,0.091228,-0.084213,-0.192961
"2019-05-05 23:00:25.239 +0000",1557097225.239057,2.436472,-1.210213,1.996207,0.228672,0.935691,0.268684,0.000000,0.000000,0.000000,-1,1.701374,0.146094,-0.098187,0.095181,-0.422477,-0.364052
"2019-05-05 23:00:25.261 +0000",1557097225.261365,2.352875,-1.240065,1.892838,0.230384,0.945805,0.228859,0.000000,0.000000,0.000000,-1,2.173280,0.983660,0.442900,0.062616,-0.463246,-0.388878
"2019-05-05 23:00:25.284 +0000",1557097225.283673,2.243504,-1.260190,1.742830,0.239049,0.952149,0.190443,0.000000,0.000000,0.000000,-1,2.142842,1.631151,0.888828,0.007518,-0.187698,-0.373686
"2019-05-05 23:00:25.306 +0000",1557097225.305980,2.114220,-1.268461,1.571491,0.254857,0.954644,0.153957,0.000000,0.000000,0.000000,-1,2.099509,1.403012,1.066991,0.011927,0.117301,-0.472332
"2019-05-05 23:00:25.328 +0000",1557097225.328291,1.968560,-1.269976,1.395438,0.273171,0.955094,0.114775,0.000000,0.000000,0.000000,-1,2.123633,0.783743,0.934799,-0.002159,0.052246,-0.417540
"2019-05-05 23:00:25.351 +0000",1557097225.350567,1.826723,-1.265504,1.237478,0.290782,0.953759,0.076087,0.000000,0.000000,0.000000,-1,1.749037,0.150937,0.844734,-0.005732,0.011832,-0.351325
"2019-05-05 23:00:25.373 +0000",1557097225.372874,1.728482,-1.255147,1.131946,0.306582,0.950595,0.048748,0.000000,0.000000,0.000000,-1,1.087381,0.264405,0.674730,-0.096560,0.079633,-0.150433
"2019-05-05 23:00:25.395 +0000",1557097225.395183,1.686575,-1.243523,1.066497,0.319310,0.946922,0.037135,0.000000,0.000000,0.000000,-1,0.740587,1.265580,0.668175,-0.112706,0.102287,-0.083141
"2019-05-05 23:00:25.417 +0000",1557097225.417491,1.668763,-1.230284,1.017041,0.332369,0.942584,0.032666,0.000000,0.000000,0.000000,-1,0.666260,1.130016,0.612282,-0.115313,0.182157,-0.135800
"2019-05-05 23:00:25.440 +0000",1557097225.439783,1.621734,-1.224019,0.958894,0.339428,0.940473,0.017305,0.000000,0.000000,0.000000,-1,0.959464,-0.208843,0.145443,-0.221325,0.092898,-0.161836
"2019-05-05 23:00:25.462 +0000",1557097225.462077,1.544208,-1.226628,0.896486,0.337295,0.941356,-0.008970,0.000000,0.000000,0.000000,-1,0.893747,-1.004689,-0.148972,-0.176696,-0.009884,-0.098360
"2019-05-05 23:00:25.484 +0000",1557097225.484384,1.478175,-1.227211,0.842330,0.335422,0.941553,-0.031156,0.000000,0.000000,0.000000,-1,0.819264,-0.453231,-0.050934,-0.047839,-0.105234,0.025724
"2019-05-05 23:00:25.507 +0000",1557097225.506693,1.420172,-1.224888,0.784142,0.335213,0.940768,-0.050876,0.000000,0.000000,0.000000,-1,0.858920,0.010984,0.060333,0.022133,-0.094286,0.057270
"2019-05-05 23:00:25.529 +0000",1557097225.529000,1.376441,-1.218126,0.737636,0.338901,0.938454,-0.066709,0.000000,0.000000,0.000000,-1,0.686510,0.006647,0.230251,-0.053654,-0.006188,0.016447
"2019-05-05 23:00:25.551 +0000",1557097225.551302,1.341018,-1.209317,0.703007,0.344363,0.935375,-0.080550,0.000000,0.000000,0.000000,-1,0.617544,-0.214645,0.273124,-0.169878,0.044575,-0.020067
"2019-05-05 23:00:25.574 +0000",1557097225.573611,1.274189,-1.230550,0.639107,0.319147,0.942672,-0.097539,0.000000,0.000000,0.000000,-1,0.770079,-0.100729,0.132029,-0.239771,0.066758,0.001286
"2019-05-05 23:00:25.596 +0000",1557097225.595889,1.228872,-1.223615,0.588106,0.320552,0.940336,-0.114086,0.000000,0.000000,0.000000,-1,0.837546,0.218679,0.012612,-0.224025,0.078158,0.123867
"2019-05-05 23:00:25.618 +0000",1557097225.618202,1.187273,-1.217591,0.535943,0.320778,0.938269,-0.129435,0.000000,0.000000,0.000000,-1,0.848684,0.374669,-0.050795,-0.187751,0.076792,0.127925
"2019-05-05 23:00:25.641 +0000",1557097225.640508,1.147297,-1.211140,0.484210,0.320860,0.936018,-0.144636,0.000000,0.000000,0.000000,-1,0.866261,0.368545,-0.045771,-0.136366,0.039766,0.112562
"2019-05-05 23:00:25.663 +0000",1557097225.662806,1.105926,-1.202265,0.431478,0.322016,0.932857,-0.161501,0.000000,0.000000,0.000000,-1,0.975684,0.355348,0.028825,-0.067164,0.005039,0.097414
"2019-05-05 23:00:25.685 +0000",1557097225.685125,1.064428,-1.190272,0.378749,0.324800,0.928470,-0.180134,0.000000,0.000000,0.000000,-1,1.018594,0.345779,0.094677,-0.055712,-0.019595,0.169392
"2019-05-05 23:00:25.707 +0000",1557097225.707403,1.032870,-1.176918,0.334423,0.329574,0.923427,-0.196628,0.000000,0.000000,0.000000,-1,0.887302,0.493639,0.171463,-0.054138,-0.024929,0.240452
"2019-05-05 23:00:25.730 +0000",1557097225.729711,1.018506,-1.164789,0.304509,0.336226,0.918705,-0.207203,0.000000,0.000000,0.000000,-1,0.639120,0.614181,0.195097,-0.123061,-0.022511,0.233936
"2019-05-05 23:00:25.752 +0000",1557097225.752019,1.010770,-1.153844,0.283457,0.343112,0.914327,-0.215127,0.000000,0.000000,0.000000,-1,0.571387,0.429750,0.226478,-0.230685,0.054011,0.060479
"2019-05-05 23:00:25.774 +0000",1557097225.774327,0.998342,-1.143315,0.262829,0.348485,0.910013,-0.224577,0.000000,0.000000,0.000000,-1,0.581029,0.252354,0.159827,-0.291417,0.102774,-0.002734
"2019-05-05 23:00:25.797 +0000",1557097225.796626,0.985129,-1.133853,0.237799,0.352648,0.906049,-0.233911,0.000000,0.000000,0.000000,-1,0.668627,0.565682,0.056600,-0.176027,0.161196,-0.034720
"2019-05-05 23:00:25.819 +0000",1557097225.818912,0.968362,-1.122378,0.202388,0.357220,0.901134,-0.245666,0.000000,0.000000,0.000000,-1,0.989771,0.660509,0.048452,-0.120098,0.174519,-0.036408
"2019-05-05 23:00:25.841 +0000",1557097225.841219,0.932317,-1.105163,0.152370,0.360539,0.893537,-0.267586,0.000000,0.000000,0.000000,-1,1.375876,0.228946,0.063613,-0.011708,0.226198,0.028206
"2019-05-05 23:00:25.864 +0000",1557097225.863528,0.892661,-1.085592,0.105859,0.363197,0.884580,-0.292585,0.000000,0.000000,0.000000,-1,1.142874,0.070551,0.165404,0.037697,0.239245,0.253935
"2019-05-05 23:00:25.886 +0000",1557097225.885825,0.889216,-1.070617,0.086165,0.372434,0.877496,-0.302148,0.000000,0.000000,0.000000,-1,0.456666,0.999537,0.297044,-0.087949,0.248495,0.477822
"2019-05-05 23:00:25.908 +0000",1557097225.908144,0.917277,-1.065001,0.092939,0.384671,0.874790,-0.294570,0.000000,0.000000,0.000000,-1,-0.074266,0.783850,0.249110,-0.363232,0.504223,0.130691
"2019-05-05 23:00:25.930 +0000",1557097225.930420,0.922008,-1.063616,0.093982,0.387025,0.874118,-0.293479,0.000000,0.000000,0.000000,-1,0.060485,-0.228492,-0.064387,-0.647248,0.533582,-0.181176
"2019-05-05 23:00:25.953 +0000",1557097225.952749,0.906581,-1.070207,0.090101,0.377907,0.877300,-0.295857,0.000000,0.000000,0.000000,-1,-0.264774,-0.569483,-0.408851,-0.397027,0.246861,0.212620
"2019-05-05 23:00:25.975 +0000",1557097225.975037,0.902949,-1.087662,0.094634,0.364750,0.885543,-0.287699,0.000000,0.000000,0.000000,-1,-0.764565,-0.109217,-0.624042,-0.015262,0.249955,0.393183
"2019-05-05 23:00:25.997 +0000",1557097225.997326,0.931497,-1.115130,0.116321,0.353155,0.897968,-0.262555,0.000000,0.000000,0.000000,-1,-1.296343,0.686014,-0.741737,0.207331,0.142392,0.378247
